"","keys","accuracy","rt","Fimg","Simg","feature_index","subID","trialNum","run"
"2",1,1,244,6,6,3,"10a57b8",1,1
"3",1,1,467,5,5,3,"10a57b8",2,1
"4",1,0,264,1,6,3,"10a57b8",3,1
"5",1,0,272,4,1,3,"10a57b8",4,1
"6",1,1,331,1,1,3,"10a57b8",5,1
"7",0,1,296,5,1,3,"10a57b8",6,1
"8",1,1,295,4,4,3,"10a57b8",7,1
"9",0,1,348,5,1,3,"10a57b8",8,1
"10",1,1,271,5,5,3,"10a57b8",9,1
"11",1,1,250,6,6,3,"10a57b8",10,1
"12",1,0,201,1,6,3,"10a57b8",11,1
"13",0,0,276,4,4,3,"10a57b8",12,1
"14",1,1,391,1,1,3,"10a57b8",13,1
"15",0,1,278,4,1,3,"10a57b8",14,1
"16",0,1,284,1,5,3,"10a57b8",15,1
"17",1,0,304,1,6,3,"10a57b8",16,1
"18",0,0,341,5,5,3,"10a57b8",17,1
"19",0,0,271,4,4,3,"10a57b8",18,1
"20",1,1,177,1,1,3,"10a57b8",19,1
"21",1,0,286,1,4,3,"10a57b8",20,1
"22",0,0,224,6,6,3,"10a57b8",21,1
"23",1,1,256,5,5,3,"10a57b8",22,1
"24",0,1,258,6,1,3,"10a57b8",23,1
"25",1,1,266,6,6,3,"10a57b8",24,1
"26",0,1,838,1,4,3,"10a57b8",25,1
"27",1,1,271,1,1,3,"10a57b8",26,1
"28",1,1,944,4,4,3,"10a57b8",27,1
"29",0,1,291,5,1,3,"10a57b8",28,1
"30",0,1,283,1,4,3,"10a57b8",29,1
"31",1,1,236,4,4,3,"10a57b8",30,1
"32",0,1,412,1,6,3,"10a57b8",31,1
"33",1,1,151,6,6,3,"10a57b8",32,1
"34",0,1,196,1,5,3,"10a57b8",33,1
"35",1,1,269,5,5,3,"10a57b8",34,1
"36",1,1,262,1,1,3,"10a57b8",35,1
"37",0,1,257,6,1,3,"10a57b8",36,1
"38",0,1,430,1,4,3,"10a57b8",37,1
"39",0,1,283,1,5,3,"10a57b8",38,1
"40",1,1,123,5,5,3,"10a57b8",39,1
"41",1,1,180,1,1,3,"10a57b8",40,1
"42",1,1,269,6,6,3,"10a57b8",41,1
"43",1,1,278,4,4,3,"10a57b8",42,1
"44",0,1,130,1,5,3,"10a57b8",43,1
"45",1,1,432,1,1,3,"10a57b8",44,1
"46",1,1,216,4,4,3,"10a57b8",45,1
"47",0,1,132,4,1,3,"10a57b8",46,1
"48",1,0,65,6,1,3,"10a57b8",47,1
"49",1,1,185,5,5,3,"10a57b8",48,1
"50",1,1,85,6,6,3,"10a57b8",49,1
"51",1,1,230,5,5,3,"10a57b8",50,1
"52",0,1,292,1,6,3,"10a57b8",51,1
"53",1,1,363,1,1,3,"10a57b8",52,1
"54",1,1,197,6,6,3,"10a57b8",53,1
"55",1,1,420,4,4,3,"10a57b8",54,1
"56",0,1,273,5,1,3,"10a57b8",55,1
"57",0,1,229,4,1,3,"10a57b8",56,1
"58",1,1,593,1,1,3,"10a57b8",57,1
"59",1,1,340,5,5,3,"10a57b8",58,1
"60",1,1,279,4,4,3,"10a57b8",59,1
"61",0,1,475,1,4,3,"10a57b8",60,1
"62",0,1,238,5,1,3,"10a57b8",61,1
"63",0,1,219,1,6,3,"10a57b8",62,1
"64",1,1,37,6,6,3,"10a57b8",63,1
"65",0,1,469,6,1,3,"10a57b8",64,1
"66",1,1,68,5,5,3,"10a57b8",65,1
"67",1,1,341,1,1,3,"10a57b8",66,1
"68",1,1,120,4,4,3,"10a57b8",67,1
"69",0,1,321,4,1,3,"10a57b8",68,1
"70",1,1,152,6,6,3,"10a57b8",69,1
"71",0,1,416,5,1,3,"10a57b8",70,1
"210",1,0,75,4,1,2,"11368d9",1,1
"310",1,1,585,5,5,2,"11368d9",2,1
"410",1,1,351,1,1,2,"11368d9",3,1
"510",0,0,342,6,6,2,"11368d9",4,1
"610",0,1,292,1,5,2,"11368d9",5,1
"72",1,1,291,4,4,2,"11368d9",6,1
"81",0,1,396,1,6,2,"11368d9",7,1
"91",0,1,299,1,6,2,"11368d9",8,1
"101",0,1,401,1,4,2,"11368d9",9,1
"111",1,1,280,1,1,2,"11368d9",10,1
"121",1,1,406,4,4,2,"11368d9",11,1
"131",0,1,461,1,5,2,"11368d9",12,1
"141",1,1,298,6,6,2,"11368d9",13,1
"151",1,1,354,5,5,2,"11368d9",14,1
"161",0,1,369,1,4,2,"11368d9",15,1
"171",1,1,448,6,6,2,"11368d9",16,1
"181",1,1,393,5,5,2,"11368d9",17,1
"191",1,1,454,1,1,2,"11368d9",18,1
"201",0,1,301,6,1,2,"11368d9",19,1
"211",0,1,299,1,5,2,"11368d9",20,1
"221",1,1,279,4,4,2,"11368d9",21,1
"231",1,1,270,1,1,2,"11368d9",22,1
"241",0,1,420,1,4,2,"11368d9",23,1
"251",1,1,211,5,5,2,"11368d9",24,1
"261",1,1,289,6,6,2,"11368d9",25,1
"271",0,1,383,1,5,2,"11368d9",26,1
"281",1,1,315,4,4,2,"11368d9",27,1
"291",0,1,402,6,1,2,"11368d9",28,1
"301",0,1,343,6,1,2,"11368d9",29,1
"311",1,1,195,1,1,2,"11368d9",30,1
"321",0,1,308,1,4,2,"11368d9",31,1
"331",0,1,490,1,5,2,"11368d9",32,1
"341",1,1,288,5,5,2,"11368d9",33,1
"351",1,1,462,6,6,2,"11368d9",34,1
"361",1,1,609,4,4,2,"11368d9",35,1
"371",1,1,593,5,5,2,"11368d9",36,1
"381",0,1,541,1,4,2,"11368d9",37,1
"391",1,1,276,6,6,2,"11368d9",38,1
"401",1,1,431,1,1,2,"11368d9",39,1
"411",1,1,336,4,4,2,"11368d9",40,1
"421",0,1,301,5,1,2,"11368d9",41,1
"431",0,1,435,6,1,2,"11368d9",42,1
"441",1,1,499,5,5,2,"11368d9",43,1
"451",1,1,528,4,4,2,"11368d9",44,1
"461",0,1,262,4,1,2,"11368d9",45,1
"471",0,1,322,6,1,2,"11368d9",46,1
"481",1,1,250,1,1,2,"11368d9",47,1
"491",0,1,246,1,5,2,"11368d9",48,1
"501",1,1,43,6,6,2,"11368d9",49,1
"511",0,1,362,5,1,2,"11368d9",50,1
"521",1,1,232,1,1,2,"11368d9",51,1
"531",1,1,288,4,4,2,"11368d9",52,1
"541",0,1,108,4,1,2,"11368d9",53,1
"551",1,0,664,1,6,2,"11368d9",54,1
"561",1,1,279,6,6,2,"11368d9",55,1
"571",1,1,341,5,5,2,"11368d9",56,1
"581",1,1,66,4,4,2,"11368d9",57,1
"591",1,1,312,1,1,2,"11368d9",58,1
"601",0,1,364,1,6,2,"11368d9",59,1
"611",1,1,340,5,5,2,"11368d9",60,1
"621",0,1,297,4,1,2,"11368d9",61,1
"631",0,1,300,1,5,2,"11368d9",62,1
"641",1,1,462,6,6,2,"11368d9",63,1
"651",1,1,410,1,1,2,"11368d9",64,1
"661",0,1,418,6,1,2,"11368d9",65,1
"671",1,1,468,6,6,2,"11368d9",66,1
"681",1,1,317,5,5,2,"11368d9",67,1
"691",1,1,466,4,4,2,"11368d9",68,1
"701",0,1,380,1,4,2,"11368d9",69,1
"711",0,1,5,5,1,2,"11368d9",70,1
"212",1,0,586,6,1,1,"10eb4dc",1,1
"312",1,1,699,4,4,1,"10eb4dc",2,1
"412",1,1,520,1,1,1,"10eb4dc",3,1
"512",0,1,313,5,1,1,"10eb4dc",4,1
"612",1,1,399,6,6,1,"10eb4dc",5,1
"73",0,1,459,4,1,1,"10eb4dc",6,1
"82",1,1,325,5,5,1,"10eb4dc",7,1
"92",1,1,240,5,5,1,"10eb4dc",8,1
"102",0,1,266,6,1,1,"10eb4dc",9,1
"112",1,1,229,6,6,1,"10eb4dc",10,1
"122",1,1,219,1,1,1,"10eb4dc",11,1
"132",1,1,364,4,4,1,"10eb4dc",12,1
"142",0,1,323,4,1,1,"10eb4dc",13,1
"152",0,1,291,1,5,1,"10eb4dc",14,1
"162",1,1,286,6,6,1,"10eb4dc",15,1
"172",0,1,287,1,6,1,"10eb4dc",16,1
"182",0,1,446,5,1,1,"10eb4dc",17,1
"192",1,1,459,5,5,1,"10eb4dc",18,1
"202",1,1,279,4,4,1,"10eb4dc",19,1
"213",1,1,504,1,1,1,"10eb4dc",20,1
"222",0,1,368,1,4,1,"10eb4dc",21,1
"232",1,1,413,5,5,1,"10eb4dc",22,1
"242",0,1,728,1,6,1,"10eb4dc",23,1
"252",1,1,455,4,4,1,"10eb4dc",24,1
"262",0,1,482,1,4,1,"10eb4dc",25,1
"272",1,1,516,1,1,1,"10eb4dc",26,1
"282",1,1,279,6,6,1,"10eb4dc",27,1
"292",0,1,570,5,1,1,"10eb4dc",28,1
"302",1,1,428,6,6,1,"10eb4dc",29,1
"313",0,1,374,4,1,1,"10eb4dc",30,1
"322",0,1,393,5,1,1,"10eb4dc",31,1
"332",0,1,327,1,6,1,"10eb4dc",32,1
"342",1,1,313,4,4,1,"10eb4dc",33,1
"352",1,1,398,5,5,1,"10eb4dc",34,1
"362",1,1,495,1,1,1,"10eb4dc",35,1
"372",1,1,274,5,5,1,"10eb4dc",36,1
"382",1,1,663,6,6,1,"10eb4dc",37,1
"392",0,1,457,1,6,1,"10eb4dc",38,1
"402",0,1,275,4,1,1,"10eb4dc",39,1
"413",1,1,317,4,4,1,"10eb4dc",40,1
"422",1,1,695,1,1,1,"10eb4dc",41,1
"432",0,1,250,5,1,1,"10eb4dc",42,1
"442",0,1,366,1,5,1,"10eb4dc",43,1
"452",1,1,295,5,5,1,"10eb4dc",44,1
"462",1,1,305,1,1,1,"10eb4dc",45,1
"472",1,1,317,4,4,1,"10eb4dc",46,1
"482",0,1,553,1,4,1,"10eb4dc",47,1
"492",1,1,483,6,6,1,"10eb4dc",48,1
"502",0,1,339,6,1,1,"10eb4dc",49,1
"513",0,1,500,6,1,1,"10eb4dc",50,1
"522",1,1,334,6,6,1,"10eb4dc",51,1
"532",1,1,520,4,4,1,"10eb4dc",52,1
"542",0,1,563,4,1,1,"10eb4dc",53,1
"552",0,1,492,1,5,1,"10eb4dc",54,1
"562",1,1,248,5,5,1,"10eb4dc",55,1
"572",1,1,377,1,1,1,"10eb4dc",56,1
"582",1,1,439,6,6,1,"10eb4dc",57,1
"592",1,1,80,4,4,1,"10eb4dc",58,1
"602",0,1,468,1,4,1,"10eb4dc",59,1
"613",1,1,453,1,1,1,"10eb4dc",60,1
"622",1,1,482,5,5,1,"10eb4dc",61,1
"632",0,1,427,6,1,1,"10eb4dc",62,1
"642",0,1,524,1,5,1,"10eb4dc",63,1
"652",0,1,277,6,1,1,"10eb4dc",64,1
"662",1,1,767,5,5,1,"10eb4dc",65,1
"672",0,1,361,4,1,1,"10eb4dc",66,1
"682",1,1,435,4,4,1,"10eb4dc",67,1
"692",1,1,263,1,1,1,"10eb4dc",68,1
"702",1,1,531,6,6,1,"10eb4dc",69,1
"712",0,1,405,1,5,1,"10eb4dc",70,1
"214",1,0,559,1,5,3,"1f6ed26",1,1
"314",0,1,311,1,4,3,"1f6ed26",2,1
"414",0,0,332,1,1,3,"1f6ed26",3,1
"514",1,1,157,4,4,3,"1f6ed26",4,1
"614",1,1,299,6,6,3,"1f6ed26",5,1
"74",1,0,264,1,6,3,"1f6ed26",6,1
"83",0,0,406,5,5,3,"1f6ed26",7,1
"93",1,1,92,5,5,3,"1f6ed26",8,1
"103",1,1,286,4,4,3,"1f6ed26",9,1
"113",0,1,257,1,4,3,"1f6ed26",10,1
"123",0,1,224,5,1,3,"1f6ed26",11,1
"133",1,1,142,6,6,3,"1f6ed26",12,1
"143",1,0,130,6,1,3,"1f6ed26",13,1
"153",1,1,147,1,1,3,"1f6ed26",14,1
"163",1,1,190,4,4,3,"1f6ed26",15,1
"173",0,1,640,1,5,3,"1f6ed26",16,1
"183",1,1,144,5,5,3,"1f6ed26",17,1
"193",1,0,295,1,6,3,"1f6ed26",18,1
"203",1,1,200,1,1,3,"1f6ed26",19,1
"215",0,1,183,1,4,3,"1f6ed26",20,1
"223",1,1,215,6,6,3,"1f6ed26",21,1
"233",0,1,190,1,4,3,"1f6ed26",22,1
"243",1,1,112,4,4,3,"1f6ed26",23,1
"253",1,0,253,5,1,3,"1f6ed26",24,1
"263",0,0,277,5,5,3,"1f6ed26",25,1
"273",0,0,133,6,6,3,"1f6ed26",26,1
"283",1,1,79,1,1,3,"1f6ed26",27,1
"293",1,0,68,6,1,3,"1f6ed26",28,1
"303",0,1,184,1,5,3,"1f6ed26",29,1
"315",1,1,213,1,1,3,"1f6ed26",30,1
"323",1,1,98,4,4,3,"1f6ed26",31,1
"333",0,1,194,6,1,3,"1f6ed26",32,1
"343",1,1,248,6,6,3,"1f6ed26",33,1
"353",0,1,164,4,1,3,"1f6ed26",34,1
"363",1,1,160,5,5,3,"1f6ed26",35,1
"373",1,0,276,6,1,3,"1f6ed26",36,1
"383",1,1,288,4,4,3,"1f6ed26",37,1
"393",0,1,141,4,1,3,"1f6ed26",38,1
"403",1,1,241,6,6,3,"1f6ed26",39,1
"415",1,1,226,5,5,3,"1f6ed26",40,1
"423",1,1,159,1,1,3,"1f6ed26",41,1
"433",0,1,587,5,1,3,"1f6ed26",42,1
"443",0,1,426,6,1,3,"1f6ed26",43,1
"453",1,1,276,4,4,3,"1f6ed26",44,1
"463",1,1,170,1,1,3,"1f6ed26",45,1
"473",0,1,189,4,1,3,"1f6ed26",46,1
"483",0,1,142,5,1,3,"1f6ed26",47,1
"493",1,1,147,5,5,3,"1f6ed26",48,1
"503",1,1,33,6,6,3,"1f6ed26",49,1
"515",1,1,13,5,5,3,"1f6ed26",50,1
"523",1,1,234,4,4,3,"1f6ed26",51,1
"533",0,1,201,6,1,3,"1f6ed26",52,1
"543",0,1,59,5,1,3,"1f6ed26",53,1
"553",1,1,240,1,1,3,"1f6ed26",54,1
"563",0,1,155,4,1,3,"1f6ed26",55,1
"573",1,1,47,6,6,3,"1f6ed26",56,1
"583",0,1,289,6,1,3,"1f6ed26",57,1
"593",1,1,257,1,1,3,"1f6ed26",58,1
"603",0,1,46,5,1,3,"1f6ed26",59,1
"615",1,1,48,4,4,3,"1f6ed26",60,1
"623",0,1,86,1,4,3,"1f6ed26",61,1
"633",1,1,140,5,5,3,"1f6ed26",62,1
"643",1,1,95,6,6,3,"1f6ed26",63,1
"653",1,1,252,6,6,3,"1f6ed26",64,1
"663",0,1,26,1,6,3,"1f6ed26",65,1
"673",0,1,61,1,4,3,"1f6ed26",66,1
"683",1,1,251,4,4,3,"1f6ed26",67,1
"693",1,1,30,5,5,3,"1f6ed26",68,1
"703",0,1,233,1,5,3,"1f6ed26",69,1
"713",1,1,305,1,1,3,"1f6ed26",70,1
"216",1,1,1354,6,6,2,"1cf8384",1,1
"316",0,1,497,1,4,2,"1cf8384",2,1
"416",0,0,312,4,4,2,"1cf8384",3,1
"516",1,0,453,5,1,2,"1cf8384",4,1
"616",1,1,495,1,1,2,"1cf8384",5,1
"75",0,1,640,6,1,2,"1cf8384",6,1
"84",1,1,662,5,5,2,"1cf8384",7,1
"94",0,1,719,1,6,2,"1cf8384",8,1
"104",1,1,419,5,5,2,"1cf8384",9,1
"114",0,1,1569,1,5,2,"1cf8384",10,1
"124",-1,-1,0,4,1,2,"1cf8384",11,1
"134",0,0,223,4,4,2,"1cf8384",12,1
"144",1,1,238,6,6,2,"1cf8384",13,1
"154",1,1,183,1,1,2,"1cf8384",14,1
"164",1,1,356,6,6,2,"1cf8384",15,1
"174",1,1,264,5,5,2,"1cf8384",16,1
"184",1,1,381,1,1,2,"1cf8384",17,1
"194",1,1,249,4,4,2,"1cf8384",18,1
"204",0,1,271,6,1,2,"1cf8384",19,1
"217",0,1,501,4,1,2,"1cf8384",20,1
"224",0,1,485,1,5,2,"1cf8384",21,1
"234",0,1,460,1,4,2,"1cf8384",22,1
"244",1,1,281,1,1,2,"1cf8384",23,1
"254",1,1,745,6,6,2,"1cf8384",24,1
"264",1,1,322,5,5,2,"1cf8384",25,1
"274",0,1,407,6,1,2,"1cf8384",26,1
"284",1,1,569,4,4,2,"1cf8384",27,1
"294",0,1,230,1,5,2,"1cf8384",28,1
"304",0,1,339,5,1,2,"1cf8384",29,1
"317",1,1,283,1,1,2,"1cf8384",30,1
"324",1,1,137,4,4,2,"1cf8384",31,1
"334",1,1,301,6,6,2,"1cf8384",32,1
"344",0,1,251,4,1,2,"1cf8384",33,1
"354",1,1,221,5,5,2,"1cf8384",34,1
"364",0,1,238,6,1,2,"1cf8384",35,1
"374",0,0,194,6,6,2,"1cf8384",36,1
"384",0,1,253,1,5,2,"1cf8384",37,1
"394",0,1,351,1,6,2,"1cf8384",38,1
"404",0,1,242,4,1,2,"1cf8384",39,1
"417",1,1,258,5,5,2,"1cf8384",40,1
"424",1,1,794,1,1,2,"1cf8384",41,1
"434",1,1,400,4,4,2,"1cf8384",42,1
"444",1,1,571,5,5,2,"1cf8384",43,1
"454",1,1,398,4,4,2,"1cf8384",44,1
"464",0,1,353,1,6,2,"1cf8384",45,1
"474",0,1,428,5,1,2,"1cf8384",46,1
"484",1,1,290,6,6,2,"1cf8384",47,1
"494",1,1,268,1,1,2,"1cf8384",48,1
"504",0,1,262,4,1,2,"1cf8384",49,1
"517",1,1,14,6,6,2,"1cf8384",50,1
"524",0,1,292,5,1,2,"1cf8384",51,1
"534",0,1,288,1,6,2,"1cf8384",52,1
"544",1,1,367,5,5,2,"1cf8384",53,1
"554",1,1,469,4,4,2,"1cf8384",54,1
"564",0,1,458,1,4,2,"1cf8384",55,1
"574",1,1,451,1,1,2,"1cf8384",56,1
"584",1,1,414,1,1,2,"1cf8384",57,1
"594",1,1,438,4,4,2,"1cf8384",58,1
"604",1,1,235,6,6,2,"1cf8384",59,1
"617",0,1,430,1,4,2,"1cf8384",60,1
"624",0,1,419,1,6,2,"1cf8384",61,1
"634",1,1,437,5,5,2,"1cf8384",62,1
"644",0,1,85,5,1,2,"1cf8384",63,1
"654",1,1,438,4,4,2,"1cf8384",64,1
"664",0,1,316,6,1,2,"1cf8384",65,1
"674",-1,-1,0,4,1,2,"1cf8384",66,1
"684",1,1,167,6,6,2,"1cf8384",67,1
"694",1,1,429,5,5,2,"1cf8384",68,1
"704",1,1,711,1,1,2,"1cf8384",69,1
"714",0,1,1088,5,1,2,"1cf8384",70,1
"218",0,0,909,5,5,1,"13f48f4",1,1
"318",1,1,488,4,4,1,"13f48f4",2,1
"418",0,1,384,1,6,1,"13f48f4",3,1
"518",1,1,590,6,6,1,"13f48f4",4,1
"618",0,1,622,1,5,1,"13f48f4",5,1
"76",0,1,443,4,1,1,"13f48f4",6,1
"85",1,1,329,1,1,1,"13f48f4",7,1
"95",1,1,698,5,5,1,"13f48f4",8,1
"105",0,1,313,6,1,1,"13f48f4",9,1
"115",1,1,328,4,4,1,"13f48f4",10,1
"125",1,1,310,6,6,1,"13f48f4",11,1
"135",1,1,323,1,1,1,"13f48f4",12,1
"145",0,1,387,1,5,1,"13f48f4",13,1
"155",0,1,369,1,4,1,"13f48f4",14,1
"165",0,1,319,4,1,1,"13f48f4",15,1
"175",1,1,494,6,6,1,"13f48f4",16,1
"185",1,1,269,4,4,1,"13f48f4",17,1
"195",0,1,299,1,6,1,"13f48f4",18,1
"205",0,1,475,5,1,1,"13f48f4",19,1
"219",1,1,458,5,5,1,"13f48f4",20,1
"225",1,1,407,1,1,1,"13f48f4",21,1
"235",0,1,471,4,1,1,"13f48f4",22,1
"245",1,1,327,1,1,1,"13f48f4",23,1
"255",1,1,373,4,4,1,"13f48f4",24,1
"265",0,1,356,5,1,1,"13f48f4",25,1
"275",1,1,385,5,5,1,"13f48f4",26,1
"285",1,1,546,6,6,1,"13f48f4",27,1
"295",0,1,450,6,1,1,"13f48f4",28,1
"305",1,1,336,6,6,1,"13f48f4",29,1
"319",0,1,542,4,1,1,"13f48f4",30,1
"325",1,1,334,5,5,1,"13f48f4",31,1
"335",1,1,445,4,4,1,"13f48f4",32,1
"345",0,1,410,6,1,1,"13f48f4",33,1
"355",0,1,410,1,5,1,"13f48f4",34,1
"365",1,1,873,1,1,1,"13f48f4",35,1
"375",1,1,1591,5,5,1,"13f48f4",36,1
"385",1,1,390,6,6,1,"13f48f4",37,1
"395",0,1,405,1,6,1,"13f48f4",38,1
"405",0,1,405,1,5,1,"13f48f4",39,1
"419",1,1,869,4,4,1,"13f48f4",40,1
"425",1,1,481,1,1,1,"13f48f4",41,1
"435",0,1,433,4,1,1,"13f48f4",42,1
"445",0,1,479,6,1,1,"13f48f4",43,1
"455",1,1,879,6,6,1,"13f48f4",44,1
"465",1,1,398,1,1,1,"13f48f4",45,1
"475",1,1,380,4,4,1,"13f48f4",46,1
"485",0,1,394,5,1,1,"13f48f4",47,1
"495",0,1,458,1,4,1,"13f48f4",48,1
"505",1,1,392,5,5,1,"13f48f4",49,1
"519",1,1,984,1,1,1,"13f48f4",50,1
"525",1,1,437,6,6,1,"13f48f4",51,1
"535",0,1,980,1,4,1,"13f48f4",52,1
"545",0,1,450,6,1,1,"13f48f4",53,1
"555",1,1,499,5,5,1,"13f48f4",54,1
"565",0,1,1474,5,1,1,"13f48f4",55,1
"575",1,1,417,4,4,1,"13f48f4",56,1
"585",0,1,416,1,5,1,"13f48f4",57,1
"595",0,1,397,4,1,1,"13f48f4",58,1
"605",1,1,397,4,4,1,"13f48f4",59,1
"619",1,1,396,1,1,1,"13f48f4",60,1
"625",1,1,1547,5,5,1,"13f48f4",61,1
"635",0,1,1093,1,6,1,"13f48f4",62,1
"645",1,1,435,6,6,1,"13f48f4",63,1
"655",1,1,370,4,4,1,"13f48f4",64,1
"665",0,1,401,1,6,1,"13f48f4",65,1
"675",0,1,320,1,5,1,"13f48f4",66,1
"685",1,1,799,6,6,1,"13f48f4",67,1
"695",1,1,334,1,1,1,"13f48f4",68,1
"705",1,1,556,5,5,1,"13f48f4",69,1
"715",0,1,458,1,4,1,"13f48f4",70,1
"220",1,1,614,5,5,1,"",1,1
"320",1,0,497,5,1,1,"",2,1
"420",0,1,465,6,1,1,"",3,1
"520",0,1,304,4,1,1,"",4,1
"620",1,1,303,4,4,1,"",5,1
"77",1,1,305,1,1,1,"",6,1
"86",1,1,380,6,6,1,"",7,1
"96",1,1,280,4,4,1,"",8,1
"106",1,1,262,1,1,1,"",9,1
"116",0,1,283,1,6,1,"",10,1
"126",0,1,302,5,1,1,"",11,1
"136",1,1,290,5,5,1,"",12,1
"146",0,1,278,1,4,1,"",13,1
"156",1,1,288,6,6,1,"",14,1
"166",0,1,507,5,1,1,"",15,1
"176",0,1,298,1,4,1,"",16,1
"186",1,1,255,4,4,1,"",17,1
"196",1,1,265,1,1,1,"",18,1
"206",1,1,259,6,6,1,"",19,1
"2110",0,1,255,6,1,1,"",20,1
"226",1,1,276,5,5,1,"",21,1
"236",0,1,275,6,1,1,"",22,1
"246",1,1,274,6,6,1,"",23,1
"256",1,1,273,4,4,1,"",24,1
"266",0,1,272,4,1,1,"",25,1
"276",0,1,281,1,5,1,"",26,1
"286",1,1,487,5,5,1,"",27,1
"296",1,1,215,1,1,1,"",28,1
"306",1,1,273,5,5,1,"",29,1
"3110",1,1,358,1,1,1,"",30,1
"326",1,1,196,6,6,1,"",31,1
"336",0,1,178,5,1,1,"",32,1
"346",0,1,296,4,1,1,"",33,1
"356",0,1,465,6,1,1,"",34,1
"366",1,1,154,4,4,1,"",35,1
"376",1,1,244,1,1,1,"",36,1
"386",0,1,249,4,1,1,"",37,1
"396",1,1,300,4,4,1,"",38,1
"406",1,1,84,5,5,1,"",39,1
"4110",0,1,486,6,1,1,"",40,1
"426",1,1,192,6,6,1,"",41,1
"436",0,1,475,1,5,1,"",42,1
"446",0,1,281,1,5,1,"",43,1
"456",1,1,249,4,4,1,"",44,1
"466",0,1,275,6,1,1,"",45,1
"476",0,1,141,4,1,1,"",46,1
"486",-1,0,1743,6,6,1,"",47,1
"496",1,1,308,5,5,1,"",48,1
"506",1,1,296,1,1,1,"",49,1
"5110",1,1,126,6,6,1,"",50,1
"526",0,1,196,1,6,1,"",51,1
"536",1,1,247,5,5,1,"",52,1
"546",1,1,299,1,1,1,"",53,1
"556",1,1,280,4,4,1,"",54,1
"566",0,1,133,5,1,1,"",55,1
"576",0,1,312,1,4,1,"",56,1
"586",0,1,296,4,1,1,"",57,1
"596",1,1,261,4,4,1,"",58,1
"606",1,1,151,5,5,1,"",59,1
"6110",0,1,255,1,6,1,"",60,1
"626",1,1,282,6,6,1,"",61,1
"636",1,1,265,1,1,1,"",62,1
"646",0,1,366,5,1,1,"",63,1
"656",1,1,294,4,4,1,"",64,1
"666",0,1,287,1,4,1,"",65,1
"676",0,1,233,1,6,1,"",66,1
"686",0,1,319,5,1,1,"",67,1
"696",1,1,275,1,1,1,"",68,1
"706",1,1,305,6,6,1,"",69,1
"716",1,1,290,5,5,1,"",70,1
"227",1,1,719,4,4,2,"101e034",1,1
"327",1,1,615,1,1,2,"101e034",2,1
"427",1,1,581,5,5,2,"101e034",3,1
"527",1,0,390,1,5,2,"101e034",4,1
"627",1,0,383,1,4,2,"101e034",5,1
"78",0,1,629,6,1,2,"101e034",6,1
"87",1,1,444,6,6,2,"101e034",7,1
"97",1,1,566,6,6,2,"101e034",8,1
"107",1,1,434,5,5,2,"101e034",9,1
"117",0,0,427,1,1,2,"101e034",10,1
"127",1,0,402,1,5,2,"101e034",11,1
"137",1,0,292,1,4,2,"101e034",12,1
"147",1,0,393,1,6,2,"101e034",13,1
"157",1,1,309,4,4,2,"101e034",14,1
"167",1,1,237,4,4,2,"101e034",15,1
"177",1,0,410,5,1,2,"101e034",16,1
"187",1,1,175,6,6,2,"101e034",17,1
"197",0,1,366,1,6,2,"101e034",18,1
"207",1,1,420,1,1,2,"101e034",19,1
"2111",0,1,348,4,1,2,"101e034",20,1
"228",0,0,551,5,5,2,"101e034",21,1
"237",0,1,346,6,1,2,"101e034",22,1
"247",0,1,527,5,1,2,"101e034",23,1
"257",1,1,402,5,5,2,"101e034",24,1
"267",1,1,264,4,4,2,"101e034",25,1
"277",1,1,445,6,6,2,"101e034",26,1
"287",1,1,507,1,1,2,"101e034",27,1
"297",0,1,336,1,4,2,"101e034",28,1
"307",1,1,383,4,4,2,"101e034",29,1
"3111",1,1,253,6,6,2,"101e034",30,1
"328",0,1,696,5,1,2,"101e034",31,1
"337",0,1,424,4,1,2,"101e034",32,1
"347",0,1,403,6,1,2,"101e034",33,1
"357",1,1,31,1,1,2,"101e034",34,1
"367",1,1,361,5,5,2,"101e034",35,1
"377",0,1,81,1,4,2,"101e034",36,1
"387",1,1,838,5,5,2,"101e034",37,1
"397",0,1,373,6,1,2,"101e034",38,1
"407",1,1,853,1,1,2,"101e034",39,1
"4111",1,1,313,4,4,2,"101e034",40,1
"428",1,1,333,6,6,2,"101e034",41,1
"437",0,1,337,5,1,2,"101e034",42,1
"447",1,1,444,6,6,2,"101e034",43,1
"457",0,1,813,6,1,2,"101e034",44,1
"467",1,1,1307,1,1,2,"101e034",45,1
"477",1,1,709,5,5,2,"101e034",46,1
"487",1,1,1329,4,4,2,"101e034",47,1
"497",1,0,269,1,4,2,"101e034",48,1
"507",0,1,199,1,5,2,"101e034",49,1
"5111",1,1,480,4,4,2,"101e034",50,1
"528",1,0,451,1,4,2,"101e034",51,1
"537",0,1,1390,1,6,2,"101e034",52,1
"547",1,1,978,6,6,2,"101e034",53,1
"557",-1,-1,0,5,5,2,"101e034",54,1
"567",1,1,260,1,1,2,"101e034",55,1
"577",0,1,324,5,1,2,"101e034",56,1
"587",1,1,405,1,1,2,"101e034",57,1
"597",1,1,217,6,6,2,"101e034",58,1
"607",0,1,351,1,5,2,"101e034",59,1
"6111",0,1,55,1,4,2,"101e034",60,1
"628",1,1,375,5,5,2,"101e034",61,1
"637",1,1,295,4,4,2,"101e034",62,1
"647",0,1,555,1,6,2,"101e034",63,1
"657",1,1,423,1,1,2,"101e034",64,1
"667",1,1,343,6,6,2,"101e034",65,1
"677",0,1,382,6,1,2,"101e034",66,1
"687",1,1,574,5,5,2,"101e034",67,1
"697",0,1,176,1,4,2,"101e034",68,1
"707",0,1,255,5,1,2,"101e034",69,1
"717",1,1,431,4,4,2,"101e034",70,1
"229",1,1,667,5,5,2,"1c471fb",1,1
"329",1,1,393,1,1,2,"1c471fb",2,1
"429",1,1,302,4,4,2,"1c471fb",3,1
"529",1,0,442,5,1,2,"1c471fb",4,1
"629",1,0,553,1,6,2,"1c471fb",5,1
"79",1,1,468,6,6,2,"1c471fb",6,1
"88",1,0,446,1,4,2,"1c471fb",7,1
"98",1,0,929,5,1,2,"1c471fb",8,1
"108",0,0,295,1,1,2,"1c471fb",9,1
"118",1,1,209,6,6,2,"1c471fb",10,1
"128",0,1,233,4,1,2,"1c471fb",11,1
"138",0,0,313,5,5,2,"1c471fb",12,1
"148",0,0,397,4,4,2,"1c471fb",13,1
"158",0,1,302,6,1,2,"1c471fb",14,1
"168",1,1,280,6,6,2,"1c471fb",15,1
"178",0,1,307,6,1,2,"1c471fb",16,1
"188",0,0,379,5,5,2,"1c471fb",17,1
"198",0,1,635,1,4,2,"1c471fb",18,1
"208",1,1,272,4,4,2,"1c471fb",19,1
"2112",1,1,298,1,1,2,"1c471fb",20,1
"2210",0,1,429,5,1,2,"1c471fb",21,1
"238",0,1,355,1,6,2,"1c471fb",22,1
"248",1,1,521,6,6,2,"1c471fb",23,1
"258",1,1,340,4,4,2,"1c471fb",24,1
"268",1,1,215,1,1,2,"1c471fb",25,1
"278",0,1,348,5,1,2,"1c471fb",26,1
"288",1,1,322,5,5,2,"1c471fb",27,1
"298",0,1,389,4,1,2,"1c471fb",28,1
"308",0,0,378,6,6,2,"1c471fb",29,1
"3112",1,0,855,6,1,2,"1c471fb",30,1
"3210",0,1,433,4,1,2,"1c471fb",31,1
"338",1,1,1154,4,4,2,"1c471fb",32,1
"348",0,0,387,1,1,2,"1c471fb",33,1
"358",0,1,275,1,5,2,"1c471fb",34,1
"368",0,0,1804,5,5,2,"1c471fb",35,1
"378",0,1,298,1,4,2,"1c471fb",36,1
"388",1,1,252,4,4,2,"1c471fb",37,1
"398",0,1,394,5,1,2,"1c471fb",38,1
"408",1,1,282,5,5,2,"1c471fb",39,1
"4112",0,1,71,1,6,2,"1c471fb",40,1
"4210",1,1,1035,1,1,2,"1c471fb",41,1
"438",0,0,478,6,6,2,"1c471fb",42,1
"448",1,1,1380,6,6,2,"1c471fb",43,1
"458",1,1,513,1,1,2,"1c471fb",44,1
"468",0,1,345,4,1,2,"1c471fb",45,1
"478",0,1,294,5,1,2,"1c471fb",46,1
"488",0,1,690,1,6,2,"1c471fb",47,1
"498",0,0,819,4,4,2,"1c471fb",48,1
"508",0,0,270,5,5,2,"1c471fb",49,1
"5112",1,1,272,1,1,2,"1c471fb",50,1
"5210",0,1,310,1,5,2,"1c471fb",51,1
"538",1,1,490,6,6,2,"1c471fb",52,1
"548",0,1,377,1,6,2,"1c471fb",53,1
"558",0,0,492,5,5,2,"1c471fb",54,1
"568",1,1,155,4,4,2,"1c471fb",55,1
"578",0,1,308,4,1,2,"1c471fb",56,1
"588",0,1,522,1,4,2,"1c471fb",57,1
"598",0,1,397,5,1,2,"1c471fb",58,1
"608",1,1,293,5,5,2,"1c471fb",59,1
"6112",1,1,452,6,6,2,"1c471fb",60,1
"6210",0,1,423,1,6,2,"1c471fb",61,1
"638",1,1,969,4,4,2,"1c471fb",62,1
"648",1,1,269,1,1,2,"1c471fb",63,1
"658",1,1,268,5,5,2,"1c471fb",64,1
"668",1,1,313,4,4,2,"1c471fb",65,1
"678",1,1,400,6,6,2,"1c471fb",66,1
"688",0,1,381,4,1,2,"1c471fb",67,1
"698",0,1,345,6,1,2,"1c471fb",68,1
"708",1,1,331,1,1,2,"1c471fb",69,1
"718",0,1,556,5,1,2,"1c471fb",70,1
"230",1,0,550,1,6,1,"171167a",1,1
"330",1,1,653,4,4,1,"171167a",2,1
"430",1,1,686,5,5,1,"171167a",3,1
"530",1,1,296,1,1,1,"171167a",4,1
"630",0,1,329,1,4,1,"171167a",5,1
"710",1,1,323,6,6,1,"171167a",6,1
"89",0,1,275,1,5,1,"171167a",7,1
"99",1,1,398,4,4,1,"171167a",8,1
"109",1,1,1358,6,6,1,"171167a",9,1
"119",0,1,1361,1,6,1,"171167a",10,1
"129",0,1,600,1,5,1,"171167a",11,1
"139",0,1,358,1,4,1,"171167a",12,1
"149",1,1,386,5,5,1,"171167a",13,1
"159",1,1,327,1,1,1,"171167a",14,1
"169",1,1,170,1,1,1,"171167a",15,1
"179",1,1,50,5,5,1,"171167a",16,1
"189",1,1,394,4,4,1,"171167a",17,1
"199",1,1,250,6,6,1,"171167a",18,1
"209",0,1,74,1,5,1,"171167a",19,1
"2113",0,1,390,1,4,1,"171167a",20,1
"2211",0,1,6,1,6,1,"171167a",21,1
"239",0,1,399,5,1,1,"171167a",22,1
"249",1,1,995,5,5,1,"171167a",23,1
"259",1,1,1032,4,4,1,"171167a",24,1
"269",1,1,428,1,1,1,"171167a",25,1
"279",0,1,254,6,1,1,"171167a",26,1
"289",0,1,489,1,4,1,"171167a",27,1
"299",1,1,785,6,6,1,"171167a",28,1
"309",1,1,241,5,5,1,"171167a",29,1
"3113",0,1,135,1,6,1,"171167a",30,1
"3211",1,1,1154,6,6,1,"171167a",31,1
"339",1,1,595,1,1,1,"171167a",32,1
"349",-1,-1,0,1,4,1,"171167a",33,1
"359",0,1,155,5,1,1,"171167a",34,1
"369",1,1,394,4,4,1,"171167a",35,1
"379",0,1,194,1,5,1,"171167a",36,1
"389",0,1,559,4,1,1,"171167a",37,1
"399",1,1,774,4,4,1,"171167a",38,1
"409",1,1,600,5,5,1,"171167a",39,1
"4113",1,1,320,6,6,1,"171167a",40,1
"4211",1,1,48,1,1,1,"171167a",41,1
"439",0,1,351,6,1,1,"171167a",42,1
"449",0,1,730,1,4,1,"171167a",43,1
"459",0,1,657,5,1,1,"171167a",44,1
"469",0,1,1878,6,1,1,"171167a",45,1
"479",1,1,425,1,1,1,"171167a",46,1
"489",1,1,477,5,5,1,"171167a",47,1
"499",1,1,320,4,4,1,"171167a",48,1
"509",1,1,712,6,6,1,"171167a",49,1
"5113",0,1,337,6,1,1,"171167a",50,1
"5211",1,1,579,4,4,1,"171167a",51,1
"539",1,1,368,5,5,1,"171167a",52,1
"549",0,1,851,5,1,1,"171167a",53,1
"559",1,1,244,6,6,1,"171167a",54,1
"569",0,1,199,1,4,1,"171167a",55,1
"579",1,1,246,1,1,1,"171167a",56,1
"589",0,1,639,1,4,1,"171167a",57,1
"599",0,1,518,1,5,1,"171167a",58,1
"609",0,1,791,1,6,1,"171167a",59,1
"6113",1,1,503,1,1,1,"171167a",60,1
"6211",1,1,489,5,5,1,"171167a",61,1
"639",1,1,720,6,6,1,"171167a",62,1
"649",1,1,468,4,4,1,"171167a",63,1
"659",0,1,932,1,6,1,"171167a",64,1
"669",1,1,376,4,4,1,"171167a",65,1
"679",1,1,444,5,5,1,"171167a",66,1
"689",1,1,78,1,1,1,"171167a",67,1
"699",0,1,762,5,1,1,"171167a",68,1
"709",1,1,635,6,6,1,"171167a",69,1
"719",0,1,524,1,4,1,"171167a",70,1
"240",1,1,762,4,4,3,"14294f4",1,1
"340",1,0,1354,1,4,3,"14294f4",2,1
"440",1,1,1001,5,5,3,"14294f4",3,1
"540",0,1,1070,1,5,3,"14294f4",4,1
"640",1,1,523,1,1,3,"14294f4",5,1
"720",0,1,797,6,1,3,"14294f4",6,1
"810",1,1,594,6,6,3,"14294f4",7,1
"910",1,1,647,6,6,3,"14294f4",8,1
"1010",0,1,694,1,6,3,"14294f4",9,1
"1110",1,1,856,5,5,3,"14294f4",10,1
"1210",1,1,541,1,1,3,"14294f4",11,1
"1310",1,0,655,1,4,3,"14294f4",12,1
"1410",1,1,611,4,4,3,"14294f4",13,1
"1510",0,1,659,5,1,3,"14294f4",14,1
"1610",1,1,659,4,4,3,"14294f4",15,1
"1710",0,0,720,5,5,3,"14294f4",16,1
"1810",0,1,619,1,4,3,"14294f4",17,1
"1910",1,1,602,1,1,3,"14294f4",18,1
"2010",1,1,495,6,6,3,"14294f4",19,1
"2114",0,1,761,1,5,3,"14294f4",20,1
"2212",0,1,699,1,6,3,"14294f4",21,1
"2310",1,1,547,5,5,3,"14294f4",22,1
"2410",0,1,751,4,1,3,"14294f4",23,1
"2510",1,1,594,6,6,3,"14294f4",24,1
"2610",1,1,593,4,4,3,"14294f4",25,1
"2710",0,1,642,1,5,3,"14294f4",26,1
"2810",0,1,735,1,6,3,"14294f4",27,1
"2910",1,1,753,1,1,3,"14294f4",28,1
"3010",0,1,558,4,1,3,"14294f4",29,1
"3114",1,1,663,4,4,3,"14294f4",30,1
"3212",0,1,580,6,1,3,"14294f4",31,1
"3310",1,1,816,1,1,3,"14294f4",32,1
"3410",1,1,667,5,5,3,"14294f4",33,1
"3510",0,1,600,1,5,3,"14294f4",34,1
"3610",1,1,691,6,6,3,"14294f4",35,1
"3710",1,1,566,4,4,3,"14294f4",36,1
"3810",1,1,539,5,5,3,"14294f4",37,1
"3910",0,1,617,6,1,3,"14294f4",38,1
"4010",1,1,602,1,1,3,"14294f4",39,1
"4114",0,1,558,1,4,3,"14294f4",40,1
"4212",1,1,1216,6,6,3,"14294f4",41,1
"4310",0,1,558,1,5,3,"14294f4",42,1
"4410",-1,-1,0,4,4,3,"14294f4",43,1
"4510",1,1,588,1,1,3,"14294f4",44,1
"4610",1,1,547,6,6,3,"14294f4",45,1
"4710",0,1,620,6,1,3,"14294f4",46,1
"4810",0,1,576,1,4,3,"14294f4",47,1
"4910",1,1,513,5,5,3,"14294f4",48,1
"5010",0,1,618,1,5,3,"14294f4",49,1
"5114",1,1,494,5,5,3,"14294f4",50,1
"5212",0,1,573,1,4,3,"14294f4",51,1
"5310",0,1,712,1,6,3,"14294f4",52,1
"5410",1,1,500,1,1,3,"14294f4",53,1
"5510",0,1,622,5,1,3,"14294f4",54,1
"5610",1,1,528,6,6,3,"14294f4",55,1
"5710",1,1,564,4,4,3,"14294f4",56,1
"5810",0,1,446,5,1,3,"14294f4",57,1
"5910",1,1,448,1,1,3,"14294f4",58,1
"6010",1,1,554,4,4,3,"14294f4",59,1
"6114",1,1,483,5,5,3,"14294f4",60,1
"6212",0,1,607,4,1,3,"14294f4",61,1
"6310",0,1,379,1,6,3,"14294f4",62,1
"6410",1,1,547,6,6,3,"14294f4",63,1
"6510",1,1,462,5,5,3,"14294f4",64,1
"6610",1,1,305,1,1,3,"14294f4",65,1
"6710",1,1,540,6,6,3,"14294f4",66,1
"6810",0,1,614,6,1,3,"14294f4",67,1
"6910",0,1,645,1,4,3,"14294f4",68,1
"7010",1,1,548,4,4,3,"14294f4",69,1
"7110",0,1,578,5,1,3,"14294f4",70,1
"250",1,0,921,6,1,1,"18393e3",1,1
"350",0,1,583,1,5,1,"18393e3",2,1
"450",-1,-1,0,5,5,1,"18393e3",3,1
"550",0,0,447,1,1,1,"18393e3",4,1
"650",0,1,440,4,1,1,"18393e3",5,1
"721",1,1,500,6,6,1,"18393e3",6,1
"811",1,1,621,4,4,1,"18393e3",7,1
"911",1,1,541,5,5,1,"18393e3",8,1
"1011",1,1,776,6,6,1,"18393e3",9,1
"1111",1,1,397,4,4,1,"18393e3",10,1
"1211",0,1,292,1,6,1,"18393e3",11,1
"1311",0,1,452,4,1,1,"18393e3",12,1
"1411",0,1,298,1,5,1,"18393e3",13,1
"1511",1,1,408,1,1,1,"18393e3",14,1
"1611",0,1,345,1,4,1,"18393e3",15,1
"1711",0,1,348,1,6,1,"18393e3",16,1
"1811",1,1,346,6,6,1,"18393e3",17,1
"1911",0,1,220,1,5,1,"18393e3",18,1
"2011",1,1,922,5,5,1,"18393e3",19,1
"2115",1,1,365,4,4,1,"18393e3",20,1
"2213",1,1,283,1,1,1,"18393e3",21,1
"2311",0,1,376,1,4,1,"18393e3",22,1
"2411",1,1,411,6,6,1,"18393e3",23,1
"2511",1,1,294,5,5,1,"18393e3",24,1
"2611",1,1,355,1,1,1,"18393e3",25,1
"2711",0,1,386,1,5,1,"18393e3",26,1
"2811",1,1,869,4,4,1,"18393e3",27,1
"2911",0,1,426,1,6,1,"18393e3",28,1
"3011",1,1,468,5,5,1,"18393e3",29,1
"3115",0,1,318,4,1,1,"18393e3",30,1
"3213",0,1,299,1,6,1,"18393e3",31,1
"3311",1,1,340,1,1,1,"18393e3",32,1
"3411",1,1,339,6,6,1,"18393e3",33,1
"3511",0,1,341,5,1,1,"18393e3",34,1
"3611",1,1,376,4,4,1,"18393e3",35,1
"3711",1,1,428,6,6,1,"18393e3",36,1
"3811",1,1,361,4,4,1,"18393e3",37,1
"3911",1,1,300,5,5,1,"18393e3",38,1
"4011",1,1,329,1,1,1,"18393e3",39,1
"4115",0,1,365,5,1,1,"18393e3",40,1
"4213",0,1,340,4,1,1,"18393e3",41,1
"4311",0,1,281,1,6,1,"18393e3",42,1
"4411",0,1,307,1,5,1,"18393e3",43,1
"4511",0,1,282,1,6,1,"18393e3",44,1
"4611",1,1,311,4,4,1,"18393e3",45,1
"4711",1,1,340,1,1,1,"18393e3",46,1
"4811",1,1,109,5,5,1,"18393e3",47,1
"4911",1,1,321,6,6,1,"18393e3",48,1
"5011",0,1,277,4,1,1,"18393e3",49,1
"5115",0,1,297,1,6,1,"18393e3",50,1
"5213",1,1,313,5,5,1,"18393e3",51,1
"5311",0,1,297,4,1,1,"18393e3",52,1
"5411",1,1,352,4,4,1,"18393e3",53,1
"5511",1,1,335,1,1,1,"18393e3",54,1
"5611",1,1,369,6,6,1,"18393e3",55,1
"5711",0,1,318,5,1,1,"18393e3",56,1
"5811",1,1,322,6,6,1,"18393e3",57,1
"5911",1,1,347,4,4,1,"18393e3",58,1
"6011",1,1,337,1,1,1,"18393e3",59,1
"6115",1,1,209,5,5,1,"18393e3",60,1
"6213",0,1,282,1,5,1,"18393e3",61,1
"6311",0,1,233,1,6,1,"18393e3",62,1
"6411",0,1,276,1,4,1,"18393e3",63,1
"6511",0,1,388,5,1,1,"18393e3",64,1
"6611",1,1,131,5,5,1,"18393e3",65,1
"6711",1,1,223,4,4,1,"18393e3",66,1
"6811",1,1,362,1,1,1,"18393e3",67,1
"6911",0,1,307,1,4,1,"18393e3",68,1
"7011",1,1,320,6,6,1,"18393e3",69,1
"7111",0,1,276,1,6,1,"18393e3",70,1
"260",1,0,1895,1,6,2,"13350ed",1,1
"360",1,1,461,5,5,2,"13350ed",2,1
"460",1,0,475,4,1,2,"13350ed",3,1
"560",1,0,440,5,1,2,"13350ed",4,1
"660",0,0,245,1,1,2,"13350ed",5,1
"722",1,1,376,4,4,2,"13350ed",6,1
"812",0,0,273,6,6,2,"13350ed",7,1
"912",1,1,436,1,1,2,"13350ed",8,1
"1012",0,1,345,6,1,2,"13350ed",9,1
"1112",0,0,243,4,4,2,"13350ed",10,1
"1212",0,0,295,5,5,2,"13350ed",11,1
"1312",0,0,253,6,6,2,"13350ed",12,1
"1412",0,1,375,4,1,2,"13350ed",13,1
"1512",0,1,270,1,5,2,"13350ed",14,1
"1612",0,0,703,5,5,2,"13350ed",15,1
"1712",1,1,304,1,1,2,"13350ed",16,1
"1812",0,0,275,4,4,2,"13350ed",17,1
"1912",1,0,278,1,4,2,"13350ed",18,1
"2012",0,0,224,6,6,2,"13350ed",19,1
"2116",1,0,265,6,1,2,"13350ed",20,1
"2214",0,1,359,1,5,2,"13350ed",21,1
"2312",0,1,247,1,5,2,"13350ed",22,1
"2412",0,0,270,6,6,2,"13350ed",23,1
"2512",0,0,419,1,1,2,"13350ed",24,1
"2612",1,0,300,4,1,2,"13350ed",25,1
"2712",0,1,306,1,6,2,"13350ed",26,1
"2812",1,1,342,5,5,2,"13350ed",27,1
"2912",0,0,602,4,4,2,"13350ed",28,1
"3012",1,0,515,1,6,2,"13350ed",29,1
"3116",0,0,526,1,1,2,"13350ed",30,1
"3214",1,1,224,4,4,2,"13350ed",31,1
"3312",0,1,344,1,4,2,"13350ed",32,1
"3412",0,0,707,5,5,2,"13350ed",33,1
"3512",1,1,424,6,6,2,"13350ed",34,1
"3612",1,0,1310,1,5,2,"13350ed",35,1
"3712",1,1,1600,1,1,2,"13350ed",36,1
"3812",0,1,231,1,5,2,"13350ed",37,1
"3912",1,0,256,1,6,2,"13350ed",38,1
"4012",0,0,258,6,6,2,"13350ed",39,1
"4116",1,1,459,5,5,2,"13350ed",40,1
"4214",0,1,283,1,4,2,"13350ed",41,1
"4312",1,1,1015,4,4,2,"13350ed",42,1
"4412",0,1,273,1,5,2,"13350ed",43,1
"4512",1,1,247,5,5,2,"13350ed",44,1
"4612",1,1,218,1,1,2,"13350ed",45,1
"4712",1,0,268,1,6,2,"13350ed",46,1
"4812",1,1,245,4,4,2,"13350ed",47,1
"4912",1,0,1326,4,1,2,"13350ed",48,1
"5012",1,1,242,6,6,2,"13350ed",49,1
"5116",0,0,542,5,5,2,"13350ed",50,1
"5214",0,0,314,4,4,2,"13350ed",51,1
"5312",1,1,240,6,6,2,"13350ed",52,1
"5412",1,0,355,5,1,2,"13350ed",53,1
"5512",0,0,254,1,1,2,"13350ed",54,1
"5612",0,1,249,4,1,2,"13350ed",55,1
"5712",1,0,527,6,1,2,"13350ed",56,1
"5812",1,1,137,1,1,2,"13350ed",57,1
"5912",0,0,407,6,6,2,"13350ed",58,1
"6012",1,1,420,5,5,2,"13350ed",59,1
"6116",0,1,302,1,5,2,"13350ed",60,1
"6214",1,1,403,4,4,2,"13350ed",61,1
"6312",0,1,1194,4,1,2,"13350ed",62,1
"6412",0,1,988,1,6,2,"13350ed",63,1
"6512",1,1,440,4,4,2,"13350ed",64,1
"6612",0,0,258,6,6,2,"13350ed",65,1
"6712",1,0,561,5,1,2,"13350ed",66,1
"6812",0,1,241,6,1,2,"13350ed",67,1
"6912",1,1,330,5,5,2,"13350ed",68,1
"7012",1,1,211,1,1,2,"13350ed",69,1
"7112",0,1,255,4,1,2,"13350ed",70,1
"270",1,1,913,5,5,3,"1187bc1",1,1
"370",1,1,313,4,4,3,"1187bc1",2,1
"470",1,0,418,5,1,3,"1187bc1",3,1
"570",1,0,350,6,1,3,"1187bc1",4,1
"670",1,1,348,6,6,3,"1187bc1",5,1
"723",1,0,329,4,1,3,"1187bc1",6,1
"813",1,1,299,1,1,3,"1187bc1",7,1
"913",1,0,383,1,5,3,"1187bc1",8,1
"1013",1,0,367,4,1,3,"1187bc1",9,1
"1113",1,1,413,6,6,3,"1187bc1",10,1
"1213",1,1,324,5,5,3,"1187bc1",11,1
"1313",0,0,378,4,4,3,"1187bc1",12,1
"1413",1,0,291,6,1,3,"1187bc1",13,1
"1513",1,1,334,1,1,3,"1187bc1",14,1
"1613",1,1,492,1,1,3,"1187bc1",15,1
"1713",1,0,344,1,4,3,"1187bc1",16,1
"1813",1,0,450,5,1,3,"1187bc1",17,1
"1913",1,0,341,1,6,3,"1187bc1",18,1
"2013",0,0,401,6,6,3,"1187bc1",19,1
"2117",1,1,336,4,4,3,"1187bc1",20,1
"2215",1,1,280,5,5,3,"1187bc1",21,1
"2313",1,1,325,6,6,3,"1187bc1",22,1
"2413",1,1,316,4,4,3,"1187bc1",23,1
"2513",0,1,335,1,5,3,"1187bc1",24,1
"2613",1,0,365,1,6,3,"1187bc1",25,1
"2713",1,1,282,5,5,3,"1187bc1",26,1
"2813",1,1,468,1,1,3,"1187bc1",27,1
"2913",1,0,321,1,4,3,"1187bc1",28,1
"3013",0,1,427,1,6,3,"1187bc1",29,1
"3117",0,1,289,1,5,3,"1187bc1",30,1
"3215",1,1,286,5,5,3,"1187bc1",31,1
"3313",1,0,331,1,4,3,"1187bc1",32,1
"3413",1,1,567,4,4,3,"1187bc1",33,1
"3513",0,0,331,1,1,3,"1187bc1",34,1
"3613",1,1,22,6,6,3,"1187bc1",35,1
"3713",1,1,375,5,5,3,"1187bc1",36,1
"3813",1,1,328,4,4,3,"1187bc1",37,1
"3913",1,1,616,6,6,3,"1187bc1",38,1
"4013",0,1,707,4,1,3,"1187bc1",39,1
"4117",1,1,1329,1,1,3,"1187bc1",40,1
"4215",0,1,1202,1,6,3,"1187bc1",41,1
"4313",1,0,470,5,1,3,"1187bc1",42,1
"4413",1,0,393,5,1,3,"1187bc1",43,1
"4513",1,1,628,5,5,3,"1187bc1",44,1
"4613",1,1,709,4,4,3,"1187bc1",45,1
"4713",0,0,634,1,1,3,"1187bc1",46,1
"4813",-1,-1,0,6,1,3,"1187bc1",47,1
"4913",1,1,306,6,6,3,"1187bc1",48,1
"5013",-1,-1,0,4,1,3,"1187bc1",49,1
"5117",1,1,294,5,5,3,"1187bc1",50,1
"5215",1,0,312,1,6,3,"1187bc1",51,1
"5313",0,1,644,1,5,3,"1187bc1",52,1
"5413",1,1,302,4,4,3,"1187bc1",53,1
"5513",1,0,453,1,4,3,"1187bc1",54,1
"5613",0,0,336,1,1,3,"1187bc1",55,1
"5713",1,1,438,6,6,3,"1187bc1",56,1
"5813",1,0,329,5,1,3,"1187bc1",57,1
"5913",1,1,400,6,6,3,"1187bc1",58,1
"6013",1,0,1979,6,1,3,"1187bc1",59,1
"6117",0,0,373,1,1,3,"1187bc1",60,1
"6215",1,1,541,5,5,3,"1187bc1",61,1
"6313",1,0,283,4,1,3,"1187bc1",62,1
"6413",0,0,364,4,4,3,"1187bc1",63,1
"6513",1,1,246,6,6,3,"1187bc1",64,1
"6613",1,0,278,5,1,3,"1187bc1",65,1
"6713",1,0,322,4,1,3,"1187bc1",66,1
"6813",0,0,1124,5,5,3,"1187bc1",67,1
"6913",1,1,754,1,1,3,"1187bc1",68,1
"7013",1,0,831,1,6,3,"1187bc1",69,1
"7113",1,1,249,4,4,3,"1187bc1",70,1
"280",1,1,159,6,6,1,"112f40b",1,1
"380",1,0,323,6,1,1,"112f40b",2,1
"480",1,1,416,4,4,1,"112f40b",3,1
"580",1,0,641,4,1,1,"112f40b",4,1
"680",0,0,666,1,1,1,"112f40b",5,1
"724",1,1,666,5,5,1,"112f40b",6,1
"814",1,0,522,5,1,1,"112f40b",7,1
"914",0,1,384,5,1,1,"112f40b",8,1
"1014",1,1,524,6,6,1,"112f40b",9,1
"1114",1,1,507,1,1,1,"112f40b",10,1
"1214",0,1,505,1,6,1,"112f40b",11,1
"1314",-1,-1,0,1,4,1,"112f40b",12,1
"1414",1,1,288,4,4,1,"112f40b",13,1
"1514",1,1,460,5,5,1,"112f40b",14,1
"1614",1,1,404,6,6,1,"112f40b",15,1
"1714",0,1,372,1,4,1,"112f40b",16,1
"1814",0,1,412,1,6,1,"112f40b",17,1
"1914",1,1,354,1,1,1,"112f40b",18,1
"2014",1,1,502,5,5,1,"112f40b",19,1
"2118",0,1,971,5,1,1,"112f40b",20,1
"2216",1,1,320,4,4,1,"112f40b",21,1
"2314",1,1,384,5,5,1,"112f40b",22,1
"2414",0,1,540,6,1,1,"112f40b",23,1
"2514",1,1,567,4,4,1,"112f40b",24,1
"2614",1,1,326,6,6,1,"112f40b",25,1
"2714",0,1,273,1,4,1,"112f40b",26,1
"2814",1,1,451,1,1,1,"112f40b",27,1
"2914",0,1,585,5,1,1,"112f40b",28,1
"3014",0,1,441,4,1,1,"112f40b",29,1
"3118",1,1,204,1,1,1,"112f40b",30,1
"3216",1,1,369,5,5,1,"112f40b",31,1
"3314",0,1,702,5,1,1,"112f40b",32,1
"3414",1,1,692,4,4,1,"112f40b",33,1
"3514",1,1,718,6,6,1,"112f40b",34,1
"3614",0,1,309,1,6,1,"112f40b",35,1
"3714",1,1,520,5,5,1,"112f40b",36,1
"3814",0,1,256,5,1,1,"112f40b",37,1
"3914",0,1,215,1,4,1,"112f40b",38,1
"4014",1,1,370,4,4,1,"112f40b",39,1
"4118",1,1,347,6,6,1,"112f40b",40,1
"4216",1,1,353,1,1,1,"112f40b",41,1
"4314",0,1,375,6,1,1,"112f40b",42,1
"4414",0,1,369,5,1,1,"112f40b",43,1
"4514",1,1,265,6,6,1,"112f40b",44,1
"4614",1,1,252,5,5,1,"112f40b",45,1
"4714",1,1,223,1,1,1,"112f40b",46,1
"4814",1,0,287,4,1,1,"112f40b",47,1
"4914",1,1,333,4,4,1,"112f40b",48,1
"5014",0,1,264,1,6,1,"112f40b",49,1
"5118",0,1,325,5,1,1,"112f40b",50,1
"5216",0,1,404,6,1,1,"112f40b",51,1
"5314",1,1,243,5,5,1,"112f40b",52,1
"5414",1,1,1470,1,1,1,"112f40b",53,1
"5514",0,1,1074,4,1,1,"112f40b",54,1
"5614",1,1,273,6,6,1,"112f40b",55,1
"5714",1,1,254,4,4,1,"112f40b",56,1
"5814",0,1,342,1,5,1,"112f40b",57,1
"5914",1,1,250,1,1,1,"112f40b",58,1
"6014",0,1,1024,1,4,1,"112f40b",59,1
"6118",0,1,219,6,1,1,"112f40b",60,1
"6216",1,1,307,4,4,1,"112f40b",61,1
"6314",1,1,375,6,6,1,"112f40b",62,1
"6414",1,1,268,5,5,1,"112f40b",63,1
"6514",0,1,242,1,5,1,"112f40b",64,1
"6614",0,1,296,1,4,1,"112f40b",65,1
"6714",0,1,69,6,1,1,"112f40b",66,1
"6814",1,1,274,5,5,1,"112f40b",67,1
"6914",1,1,254,4,4,1,"112f40b",68,1
"7014",1,1,249,1,1,1,"112f40b",69,1
"7114",1,1,769,6,6,1,"112f40b",70,1
"290",-1,-1,0,6,6,2,"167a2c6",1,1
"390",-1,-1,0,4,4,2,"167a2c6",2,1
"490",1,1,642,1,1,2,"167a2c6",3,1
"590",1,0,312,1,5,2,"167a2c6",4,1
"690",1,0,294,1,4,2,"167a2c6",5,1
"725",1,1,331,5,5,2,"167a2c6",6,1
"815",1,0,247,1,6,2,"167a2c6",7,1
"915",1,0,305,1,6,2,"167a2c6",8,1
"1015",1,0,224,1,4,2,"167a2c6",9,1
"1115",1,1,264,5,5,2,"167a2c6",10,1
"1215",1,0,266,5,1,2,"167a2c6",11,1
"1315",1,1,344,1,1,2,"167a2c6",12,1
"1415",0,0,422,6,6,2,"167a2c6",13,1
"1515",1,1,55,4,4,2,"167a2c6",14,1
"1615",1,0,683,4,1,2,"167a2c6",15,1
"1715",1,1,272,4,4,2,"167a2c6",16,1
"1815",1,0,215,1,6,2,"167a2c6",17,1
"1915",0,0,289,5,5,2,"167a2c6",18,1
"2015",1,1,333,6,6,2,"167a2c6",19,1
"2119",1,0,260,1,5,2,"167a2c6",20,1
"2217",1,1,262,1,1,2,"167a2c6",21,1
"2315",1,1,1214,1,1,2,"167a2c6",22,1
"2415",1,0,345,6,1,2,"167a2c6",23,1
"2515",1,1,280,4,4,2,"167a2c6",24,1
"2615",1,0,286,1,5,2,"167a2c6",25,1
"2715",0,1,265,1,4,2,"167a2c6",26,1
"2815",1,1,441,6,6,2,"167a2c6",27,1
"2915",1,1,196,5,5,2,"167a2c6",28,1
"3015",0,0,254,5,5,2,"167a2c6",29,1
"3119",1,1,401,6,6,2,"167a2c6",30,1
"3217",1,0,282,6,1,2,"167a2c6",31,1
"3315",1,1,188,1,1,2,"167a2c6",32,1
"3415",1,0,389,1,4,2,"167a2c6",33,1
"3515",1,0,289,1,5,2,"167a2c6",34,1
"3615",1,1,388,4,4,2,"167a2c6",35,1
"3715",1,0,250,5,1,2,"167a2c6",36,1
"3815",1,1,185,1,1,2,"167a2c6",37,1
"3915",1,1,302,6,6,2,"167a2c6",38,1
"4015",1,1,351,5,5,2,"167a2c6",39,1
"4119",1,0,373,4,1,2,"167a2c6",40,1
"4217",0,1,344,6,1,2,"167a2c6",41,1
"4315",1,1,441,4,4,2,"167a2c6",42,1
"4415",1,1,55,1,1,2,"167a2c6",43,1
"4515",1,1,228,5,5,2,"167a2c6",44,1
"4615",1,1,129,6,6,2,"167a2c6",45,1
"4715",1,0,294,1,6,2,"167a2c6",46,1
"4815",1,1,506,4,4,2,"167a2c6",47,1
"4915",1,0,702,1,5,2,"167a2c6",48,1
"5015",1,0,177,4,1,2,"167a2c6",49,1
"5119",1,0,247,1,5,2,"167a2c6",50,1
"5217",1,1,555,6,6,2,"167a2c6",51,1
"5315",0,0,315,4,4,2,"167a2c6",52,1
"5415",1,1,268,1,1,2,"167a2c6",53,1
"5515",1,0,243,1,4,2,"167a2c6",54,1
"5615",1,1,619,5,5,2,"167a2c6",55,1
"5715",1,0,343,1,6,2,"167a2c6",56,1
"5815",1,1,268,6,6,2,"167a2c6",57,1
"5915",1,0,328,1,5,2,"167a2c6",58,1
"6015",1,1,375,5,5,2,"167a2c6",59,1
"6119",1,0,404,1,6,2,"167a2c6",60,1
"6217",1,0,174,1,4,2,"167a2c6",61,1
"6315",0,0,302,4,4,2,"167a2c6",62,1
"6415",1,1,524,1,1,2,"167a2c6",63,1
"6515",1,0,298,5,1,2,"167a2c6",64,1
"6615",1,1,390,1,1,2,"167a2c6",65,1
"6715",1,1,244,4,4,2,"167a2c6",66,1
"6815",1,0,217,1,4,2,"167a2c6",67,1
"6915",0,0,299,5,5,2,"167a2c6",68,1
"7015",1,1,516,6,6,2,"167a2c6",69,1
"7115",1,0,221,1,6,2,"167a2c6",70,1
"2100",1,0,842,1,6,2,"1d3c487",1,1
"3100",1,0,608,1,4,2,"1d3c487",2,1
"4100",0,0,847,5,5,2,"1d3c487",3,1
"5100",1,0,459,5,1,2,"1d3c487",4,1
"6100",1,1,665,1,1,2,"1d3c487",5,1
"726",0,0,407,6,6,2,"1d3c487",6,1
"816",1,1,462,4,4,2,"1d3c487",7,1
"916",1,0,648,1,5,2,"1d3c487",8,1
"1016",1,0,519,6,1,2,"1d3c487",9,1
"1116",1,0,446,1,4,2,"1d3c487",10,1
"1216",1,1,522,5,5,2,"1d3c487",11,1
"1316",1,1,406,1,1,2,"1d3c487",12,1
"1416",1,1,367,4,4,2,"1d3c487",13,1
"1516",0,0,483,6,6,2,"1d3c487",14,1
"1616",1,0,782,4,1,2,"1d3c487",15,1
"1716",1,1,452,6,6,2,"1d3c487",16,1
"1816",1,0,1261,1,5,2,"1d3c487",17,1
"1916",1,0,450,6,1,2,"1d3c487",18,1
"2016",0,0,273,5,5,2,"1d3c487",19,1
"2120",1,1,935,1,1,2,"1d3c487",20,1
"2218",0,0,477,4,4,2,"1d3c487",21,1
"2316",1,1,196,4,4,2,"1d3c487",22,1
"2416",1,0,49,1,4,2,"1d3c487",23,1
"2516",1,1,1306,1,1,2,"1d3c487",24,1
"2616",1,1,466,6,6,2,"1d3c487",25,1
"2716",1,0,619,6,1,2,"1d3c487",26,1
"2816",0,1,653,5,1,2,"1d3c487",27,1
"2916",1,1,1027,5,5,2,"1d3c487",28,1
"3016",1,0,859,1,5,2,"1d3c487",29,1
"3120",1,1,535,1,1,2,"1d3c487",30,1
"3218",0,0,608,5,5,2,"1d3c487",31,1
"3316",1,0,1047,1,6,2,"1d3c487",32,1
"3416",1,1,1822,6,6,2,"1d3c487",33,1
"3516",0,0,484,4,4,2,"1d3c487",34,1
"3616",1,0,615,4,1,2,"1d3c487",35,1
"3716",1,1,345,4,4,2,"1d3c487",36,1
"3816",1,1,646,5,5,2,"1d3c487",37,1
"3916",1,0,461,5,1,2,"1d3c487",38,1
"4016",1,1,831,1,1,2,"1d3c487",39,1
"4120",1,0,1196,4,1,2,"1d3c487",40,1
"4218",1,1,600,6,6,2,"1d3c487",41,1
"4316",1,0,487,6,1,2,"1d3c487",42,1
"4416",1,1,1304,1,1,2,"1d3c487",43,1
"4516",1,1,712,6,6,2,"1d3c487",44,1
"4616",0,1,1100,6,1,2,"1d3c487",45,1
"4716",0,1,1044,1,5,2,"1d3c487",46,1
"4816",1,1,433,5,5,2,"1d3c487",47,1
"4916",1,1,586,4,4,2,"1d3c487",48,1
"5016",0,1,875,4,1,2,"1d3c487",49,1
"5120",0,1,712,1,6,2,"1d3c487",50,1
"5218",0,1,678,1,4,2,"1d3c487",51,1
"5316",1,1,446,6,6,2,"1d3c487",52,1
"5416",1,1,530,1,1,2,"1d3c487",53,1
"5516",1,1,564,4,4,2,"1d3c487",54,1
"5616",0,1,1543,1,5,2,"1d3c487",55,1
"5716",1,1,1249,5,5,2,"1d3c487",56,1
"5816",1,1,256,5,5,2,"1d3c487",57,1
"5916",0,1,741,1,4,2,"1d3c487",58,1
"6016",1,1,1080,6,6,2,"1d3c487",59,1
"6120",1,0,439,1,6,2,"1d3c487",60,1
"6218",1,1,385,4,4,2,"1d3c487",61,1
"6316",0,0,506,1,1,2,"1d3c487",62,1
"6416",1,0,743,1,5,2,"1d3c487",63,1
"6516",0,1,1741,5,1,2,"1d3c487",64,1
"6616",1,1,1219,6,6,2,"1d3c487",65,1
"6716",1,1,860,4,4,2,"1d3c487",66,1
"6816",0,1,1587,6,1,2,"1d3c487",67,1
"6916",-1,0,796,5,5,2,"1d3c487",68,1
"7016",1,1,1696,1,1,2,"1d3c487",69,1
"7116",1,0,702,1,4,2,"1d3c487",70,1
"2101",1,1,1475,5,5,1,"166a21b",1,1
"3101",1,1,685,6,6,1,"166a21b",2,1
"4101",1,0,513,1,4,1,"166a21b",3,1
"5101",1,1,291,4,4,1,"166a21b",4,1
"6101",1,0,310,6,1,1,"166a21b",5,1
"727",1,0,288,5,1,1,"166a21b",6,1
"817",1,1,498,1,1,1,"166a21b",7,1
"917",0,1,318,1,4,1,"166a21b",8,1
"1017",1,0,642,6,1,1,"166a21b",9,1
"1117",1,1,285,4,4,1,"166a21b",10,1
"1217",1,1,496,1,1,1,"166a21b",11,1
"1317",1,1,426,6,6,1,"166a21b",12,1
"1417",1,0,272,5,1,1,"166a21b",13,1
"1517",1,1,251,5,5,1,"166a21b",14,1
"1617",1,1,408,5,5,1,"166a21b",15,1
"1717",1,1,333,4,4,1,"166a21b",16,1
"1817",1,0,514,5,1,1,"166a21b",17,1
"1917",1,1,238,6,6,1,"166a21b",18,1
"2017",1,0,289,4,1,1,"166a21b",19,1
"2121",1,1,206,1,1,1,"166a21b",20,1
"2219",0,1,167,6,1,1,"166a21b",21,1
"2317",1,1,263,6,6,1,"166a21b",22,1
"2417",0,1,207,4,1,1,"166a21b",23,1
"2517",0,1,263,1,6,1,"166a21b",24,1
"2617",1,1,372,5,5,1,"166a21b",25,1
"2717",0,1,262,1,5,1,"166a21b",26,1
"2817",1,1,479,4,4,1,"166a21b",27,1
"2917",1,1,407,1,1,1,"166a21b",28,1
"3017",1,1,296,4,4,1,"166a21b",29,1
"3121",0,1,193,1,5,1,"166a21b",30,1
"3219",1,1,339,6,6,1,"166a21b",31,1
"3317",1,1,457,5,5,1,"166a21b",32,1
"3417",0,1,328,4,1,1,"166a21b",33,1
"3517",1,1,303,1,1,1,"166a21b",34,1
"3617",0,1,414,1,6,1,"166a21b",35,1
"3717",1,1,441,4,4,1,"166a21b",36,1
"3817",1,1,346,1,1,1,"166a21b",37,1
"3917",0,1,332,4,1,1,"166a21b",38,1
"4017",0,1,294,6,1,1,"166a21b",39,1
"4121",1,1,308,6,6,1,"166a21b",40,1
"4219",0,1,309,5,1,1,"166a21b",41,1
"4317",1,1,308,5,5,1,"166a21b",42,1
"4417",0,1,281,4,1,1,"166a21b",43,1
"4517",1,1,144,5,5,1,"166a21b",44,1
"4617",0,1,315,1,5,1,"166a21b",45,1
"4717",1,1,316,4,4,1,"166a21b",46,1
"4817",0,1,264,1,6,1,"166a21b",47,1
"4917",1,1,318,1,1,1,"166a21b",48,1
"5017",1,1,293,6,6,1,"166a21b",49,1
"5121",0,1,316,1,6,1,"166a21b",50,1
"5219",0,1,583,4,1,1,"166a21b",51,1
"5317",1,1,270,6,6,1,"166a21b",52,1
"5417",0,1,341,5,1,1,"166a21b",53,1
"5517",1,1,307,5,5,1,"166a21b",54,1
"5617",1,1,374,1,1,1,"166a21b",55,1
"5717",1,1,245,4,4,1,"166a21b",56,1
"5817",0,1,272,4,1,1,"166a21b",57,1
"5917",1,1,288,5,5,1,"166a21b",58,1
"6017",0,1,285,1,5,1,"166a21b",59,1
"6121",0,1,434,6,1,1,"166a21b",60,1
"6219",1,1,246,1,1,1,"166a21b",61,1
"6317",1,1,324,4,4,1,"166a21b",62,1
"6417",1,1,397,6,6,1,"166a21b",63,1
"6517",1,1,446,4,4,1,"166a21b",64,1
"6617",0,1,480,5,1,1,"166a21b",65,1
"6717",1,1,264,5,5,1,"166a21b",66,1
"6817",0,1,526,6,1,1,"166a21b",67,1
"6917",1,1,174,1,1,1,"166a21b",68,1
"7017",0,1,271,1,4,1,"166a21b",69,1
"7117",1,1,396,6,6,1,"166a21b",70,1
"2102",1,0,616,4,1,1,"11dfa14",1,1
"3102",0,1,448,1,6,1,"11dfa14",2,1
"4102",1,0,394,5,1,1,"11dfa14",3,1
"5102",0,0,343,4,4,1,"11dfa14",4,1
"6102",1,1,380,6,6,1,"11dfa14",5,1
"728",1,1,381,5,5,1,"11dfa14",6,1
"818",0,0,387,1,1,1,"11dfa14",7,1
"918",1,1,377,6,6,1,"11dfa14",8,1
"1018",1,0,330,5,1,1,"11dfa14",9,1
"1118",1,0,317,1,4,1,"11dfa14",10,1
"1218",1,1,314,5,5,1,"11dfa14",11,1
"1318",1,1,269,1,1,1,"11dfa14",12,1
"1418",0,1,318,6,1,1,"11dfa14",13,1
"1518",1,1,363,4,4,1,"11dfa14",14,1
"1618",0,1,362,1,5,1,"11dfa14",15,1
"1718",1,1,339,1,1,1,"11dfa14",16,1
"1818",1,1,300,6,6,1,"11dfa14",17,1
"1918",1,0,325,1,4,1,"11dfa14",18,1
"2018",0,1,32,6,1,1,"11dfa14",19,1
"2122",1,1,308,5,5,1,"11dfa14",20,1
"2220",1,1,271,4,4,1,"11dfa14",21,1
"2318",1,1,317,6,6,1,"11dfa14",22,1
"2418",1,0,371,1,4,1,"11dfa14",23,1
"2518",0,0,293,1,1,1,"11dfa14",24,1
"2618",0,0,221,4,4,1,"11dfa14",25,1
"2718",1,0,336,1,5,1,"11dfa14",26,1
"2818",1,1,337,5,5,1,"11dfa14",27,1
"2918",0,1,355,6,1,1,"11dfa14",28,1
"3018",1,0,333,5,1,1,"11dfa14",29,1
"3122",0,0,327,4,4,1,"11dfa14",30,1
"3220",1,1,308,1,1,1,"11dfa14",31,1
"3318",0,0,358,6,6,1,"11dfa14",32,1
"3418",0,1,341,6,1,1,"11dfa14",33,1
"3518",1,1,281,5,5,1,"11dfa14",34,1
"3618",0,1,352,4,1,1,"11dfa14",35,1
"3718",0,1,346,6,1,1,"11dfa14",36,1
"3818",1,1,318,5,5,1,"11dfa14",37,1
"3918",0,1,301,5,1,1,"11dfa14",38,1
"4018",0,0,268,4,4,1,"11dfa14",39,1
"4122",1,1,334,1,1,1,"11dfa14",40,1
"4220",1,0,315,1,4,1,"11dfa14",41,1
"4318",0,0,160,6,6,1,"11dfa14",42,1
"4418",1,1,333,5,5,1,"11dfa14",43,1
"4518",1,0,768,5,1,1,"11dfa14",44,1
"4618",0,1,375,4,1,1,"11dfa14",45,1
"4718",1,1,346,4,4,1,"11dfa14",46,1
"4818",1,1,344,6,6,1,"11dfa14",47,1
"4918",1,1,561,1,1,1,"11dfa14",48,1
"5018",1,0,1246,1,6,1,"11dfa14",49,1
"5122",0,0,488,6,6,1,"11dfa14",50,1
"5220",1,0,404,1,6,1,"11dfa14",51,1
"5318",1,0,272,1,5,1,"11dfa14",52,1
"5418",0,1,293,4,1,1,"11dfa14",53,1
"5518",1,1,474,1,1,1,"11dfa14",54,1
"5618",1,1,353,5,5,1,"11dfa14",55,1
"5718",0,0,347,4,4,1,"11dfa14",56,1
"5818",1,1,353,4,4,1,"11dfa14",57,1
"5918",1,1,1151,6,6,1,"11dfa14",58,1
"6018",0,1,440,1,5,1,"11dfa14",59,1
"6122",0,1,275,6,1,1,"11dfa14",60,1
"6220",0,0,856,1,1,1,"11dfa14",61,1
"6318",1,1,985,5,5,1,"11dfa14",62,1
"6418",1,0,299,1,4,1,"11dfa14",63,1
"6518",1,1,339,6,6,1,"11dfa14",64,1
"6618",0,0,986,5,5,1,"11dfa14",65,1
"6718",1,0,1403,1,6,1,"11dfa14",66,1
"6818",0,0,1457,4,4,1,"11dfa14",67,1
"6918",1,0,291,1,5,1,"11dfa14",68,1
"7018",1,0,301,1,4,1,"11dfa14",69,1
"7118",-1,-1,0,1,1,1,"11dfa14",70,1
"2103",1,0,747,4,1,3,"1d5d471",1,1
"3103",1,1,747,5,5,3,"1d5d471",2,1
"4103",0,0,341,1,1,3,"1d5d471",3,1
"5103",1,1,274,4,4,3,"1d5d471",4,1
"6103",1,0,490,5,1,3,"1d5d471",5,1
"729",1,0,246,6,1,3,"1d5d471",6,1
"819",1,1,85,6,6,3,"1d5d471",7,1
"919",1,1,378,5,5,3,"1d5d471",8,1
"1019",1,1,269,6,6,3,"1d5d471",9,1
"1119",1,0,230,1,5,3,"1d5d471",10,1
"1219",1,1,716,4,4,3,"1d5d471",11,1
"1319",-1,-1,0,6,1,3,"1d5d471",12,1
"1419",1,0,347,1,4,3,"1d5d471",13,1
"1519",1,1,327,1,1,3,"1d5d471",14,1
"1619",0,1,230,1,4,3,"1d5d471",15,1
"1719",1,1,300,4,4,3,"1d5d471",16,1
"1819",0,1,402,6,1,3,"1d5d471",17,1
"1919",1,1,92,6,6,3,"1d5d471",18,1
"2019",-1,-1,0,5,5,3,"1d5d471",19,1
"2123",1,1,255,1,1,3,"1d5d471",20,1
"2221",0,1,279,5,1,3,"1d5d471",21,1
"2319",1,1,13,1,1,3,"1d5d471",22,1
"2419",1,1,313,4,4,3,"1d5d471",23,1
"2519",0,1,253,5,1,3,"1d5d471",24,1
"2619",0,1,218,4,1,3,"1d5d471",25,1
"2719",0,1,269,1,6,3,"1d5d471",26,1
"2819",1,1,257,5,5,3,"1d5d471",27,1
"2919",1,1,361,6,6,3,"1d5d471",28,1
"3019",0,1,299,4,1,3,"1d5d471",29,1
"3123",0,1,334,6,1,3,"1d5d471",30,1
"3221",1,1,215,1,1,3,"1d5d471",31,1
"3319",1,1,285,4,4,3,"1d5d471",32,1
"3419",0,1,241,5,1,3,"1d5d471",33,1
"3519",1,1,333,5,5,3,"1d5d471",34,1
"3619",1,1,412,6,6,3,"1d5d471",35,1
"3719",1,1,289,1,1,3,"1d5d471",36,1
"3819",1,1,278,6,6,3,"1d5d471",37,1
"3919",0,1,226,5,1,3,"1d5d471",38,1
"4019",1,1,39,4,4,3,"1d5d471",39,1
"4123",1,1,300,5,5,3,"1d5d471",40,1
"4221",0,1,248,1,4,3,"1d5d471",41,1
"4319",0,1,304,1,6,3,"1d5d471",42,1
"4419",0,1,380,5,1,3,"1d5d471",43,1
"4519",1,1,471,1,1,3,"1d5d471",44,1
"4619",1,1,197,4,4,3,"1d5d471",45,1
"4719",1,1,70,6,6,3,"1d5d471",46,1
"4819",0,1,445,6,1,3,"1d5d471",47,1
"4919",0,1,228,1,4,3,"1d5d471",48,1
"5019",1,1,257,5,5,3,"1d5d471",49,1
"5123",1,1,118,1,1,3,"1d5d471",50,1
"5221",1,1,288,4,4,3,"1d5d471",51,1
"5319",0,0,722,6,6,3,"1d5d471",52,1
"5419",0,1,292,4,1,3,"1d5d471",53,1
"5519",1,1,253,5,5,3,"1d5d471",54,1
"5619",0,1,243,1,5,3,"1d5d471",55,1
"5719",0,1,54,1,6,3,"1d5d471",56,1
"5819",0,1,292,1,6,3,"1d5d471",57,1
"5919",1,1,147,4,4,3,"1d5d471",58,1
"6019",0,1,188,4,1,3,"1d5d471",59,1
"6123",1,1,260,1,1,3,"1d5d471",60,1
"6221",1,1,297,6,6,3,"1d5d471",61,1
"6319",1,0,479,1,5,3,"1d5d471",62,1
"6419",1,1,845,5,5,3,"1d5d471",63,1
"6519",1,1,236,1,1,3,"1d5d471",64,1
"6619",0,1,376,1,4,3,"1d5d471",65,1
"6719",1,1,22,5,5,3,"1d5d471",66,1
"6819",1,1,32,4,4,3,"1d5d471",67,1
"6919",0,1,459,6,1,3,"1d5d471",68,1
"7019",0,1,280,1,5,3,"1d5d471",69,1
"7119",1,1,251,6,6,3,"1d5d471",70,1
"2104",1,0,678,6,1,2,"1003ca7",1,1
"3104",1,0,589,5,1,2,"1003ca7",2,1
"4104",1,1,308,1,1,2,"1003ca7",3,1
"5104",0,0,284,4,4,2,"1003ca7",4,1
"6104",0,0,401,5,5,2,"1003ca7",5,1
"730",1,1,389,6,6,2,"1003ca7",6,1
"820",0,1,254,1,4,2,"1003ca7",7,1
"920",1,1,1419,4,4,2,"1003ca7",8,1
"1020",0,1,709,4,1,2,"1003ca7",9,1
"1120",1,1,1280,6,6,2,"1003ca7",10,1
"1220",1,1,492,5,5,2,"1003ca7",11,1
"1320",0,1,1427,5,1,2,"1003ca7",12,1
"1420",0,0,386,1,1,2,"1003ca7",13,1
"1520",0,1,384,1,6,2,"1003ca7",14,1
"1620",-1,-1,0,4,4,2,"1003ca7",15,1
"1720",0,1,503,1,4,2,"1003ca7",16,1
"1820",1,1,401,1,1,2,"1003ca7",17,1
"1920",0,0,1393,5,5,2,"1003ca7",18,1
"2020",1,0,390,1,6,2,"1003ca7",19,1
"2124",1,1,1315,6,6,2,"1003ca7",20,1
"2222",-1,-1,0,5,1,2,"1003ca7",21,1
"2320",0,1,1401,1,5,2,"1003ca7",22,1
"2420",-1,-1,0,1,4,2,"1003ca7",23,1
"2520",1,1,405,5,5,2,"1003ca7",24,1
"2620",0,0,583,6,6,2,"1003ca7",25,1
"2720",1,1,1047,4,4,2,"1003ca7",26,1
"2820",-1,-1,0,1,1,2,"1003ca7",27,1
"2920",1,0,359,1,6,2,"1003ca7",28,1
"3020",1,1,525,1,1,2,"1003ca7",29,1
"3124",0,1,687,6,1,2,"1003ca7",30,1
"3222",-1,-1,0,5,1,2,"1003ca7",31,1
"3320",1,1,317,4,4,2,"1003ca7",32,1
"3420",1,0,1265,4,1,2,"1003ca7",33,1
"3520",1,1,664,5,5,2,"1003ca7",34,1
"3620",-1,-1,0,6,6,2,"1003ca7",35,1
"3720",0,1,370,5,1,2,"1003ca7",36,1
"3820",1,1,1677,6,6,2,"1003ca7",37,1
"3920",-1,-1,0,1,1,2,"1003ca7",38,1
"4020",0,1,348,4,1,2,"1003ca7",39,1
"4124",-1,-1,0,5,5,2,"1003ca7",40,1
"4222",0,1,1244,6,1,2,"1003ca7",41,1
"4320",0,0,778,4,4,2,"1003ca7",42,1
"4420",1,0,1007,5,1,2,"1003ca7",43,1
"4520",0,0,680,5,5,2,"1003ca7",44,1
"4620",-1,-1,0,4,4,2,"1003ca7",45,1
"4720",-1,-1,0,1,6,2,"1003ca7",46,1
"4820",1,1,781,1,1,2,"1003ca7",47,1
"4920",-1,-1,0,6,6,2,"1003ca7",48,1
"5020",0,1,862,4,1,2,"1003ca7",49,1
"5124",0,0,1105,5,5,2,"1003ca7",50,1
"5222",0,0,766,6,6,2,"1003ca7",51,1
"5320",1,0,1287,4,1,2,"1003ca7",52,1
"5420",0,1,688,1,5,2,"1003ca7",53,1
"5520",-1,-1,0,6,1,2,"1003ca7",54,1
"5620",1,1,1415,4,4,2,"1003ca7",55,1
"5720",0,0,1917,1,1,2,"1003ca7",56,1
"5820",1,1,311,4,4,2,"1003ca7",57,1
"5920",0,0,1125,6,6,2,"1003ca7",58,1
"6020",0,0,751,1,1,2,"1003ca7",59,1
"6124",0,0,1404,5,5,2,"1003ca7",60,1
"6222",1,0,858,4,1,2,"1003ca7",61,1
"6320",1,0,1321,1,6,2,"1003ca7",62,1
"6420",0,1,774,1,5,2,"1003ca7",63,1
"6520",-1,-1,0,1,1,2,"1003ca7",64,1
"6620",1,1,377,6,6,2,"1003ca7",65,1
"6720",0,1,437,1,6,2,"1003ca7",66,1
"6820",0,0,558,5,5,2,"1003ca7",67,1
"6920",1,0,294,4,1,2,"1003ca7",68,1
"7020",0,1,466,1,5,2,"1003ca7",69,1
"7120",1,1,371,4,4,2,"1003ca7",70,1
"2105",1,1,1776,5,5,1,"1589721",1,1
"3105",1,0,455,6,1,1,"1589721",2,1
"4105",1,1,427,1,1,1,"1589721",3,1
"5105",1,1,302,4,4,1,"1589721",4,1
"6105",0,1,306,5,1,1,"1589721",5,1
"731",0,0,435,6,6,1,"1589721",6,1
"821",0,1,361,1,4,1,"1589721",7,1
"921",0,1,309,1,5,1,"1589721",8,1
"1021",0,1,382,4,1,1,"1589721",9,1
"1121",1,1,296,4,4,1,"1589721",10,1
"1221",1,1,355,1,1,1,"1589721",11,1
"1321",1,1,318,5,5,1,"1589721",12,1
"1421",1,1,366,6,6,1,"1589721",13,1
"1521",0,1,283,6,1,1,"1589721",14,1
"1621",0,1,509,4,1,1,"1589721",15,1
"1721",1,1,242,6,6,1,"1589721",16,1
"1821",1,1,262,4,4,1,"1589721",17,1
"1921",0,1,223,1,5,1,"1589721",18,1
"2021",1,1,334,1,1,1,"1589721",19,1
"2125",1,1,247,5,5,1,"1589721",20,1
"2223",0,1,253,6,1,1,"1589721",21,1
"2321",1,1,272,4,4,1,"1589721",22,1
"2421",0,1,286,1,4,1,"1589721",23,1
"2521",1,1,204,6,6,1,"1589721",24,1
"2621",0,1,321,5,1,1,"1589721",25,1
"2721",0,1,713,1,6,1,"1589721",26,1
"2821",1,1,308,5,5,1,"1589721",27,1
"2921",1,1,307,1,1,1,"1589721",28,1
"3021",1,1,285,5,5,1,"1589721",29,1
"3125",0,1,371,6,1,1,"1589721",30,1
"3223",1,1,227,6,6,1,"1589721",31,1
"3321",0,1,279,1,5,1,"1589721",32,1
"3421",0,1,224,4,1,1,"1589721",33,1
"3521",1,1,290,1,1,1,"1589721",34,1
"3621",1,1,257,4,4,1,"1589721",35,1
"3721",1,1,215,4,4,1,"1589721",36,1
"3821",1,1,231,1,1,1,"1589721",37,1
"3921",0,1,410,1,4,1,"1589721",38,1
"4021",1,1,269,6,6,1,"1589721",39,1
"4125",1,1,248,5,5,1,"1589721",40,1
"4223",0,1,481,1,5,1,"1589721",41,1
"4321",0,1,506,1,6,1,"1589721",42,1
"4421",0,1,643,4,1,1,"1589721",43,1
"4521",0,1,252,5,1,1,"1589721",44,1
"4621",1,1,325,5,5,1,"1589721",45,1
"4721",1,1,209,6,6,1,"1589721",46,1
"4821",0,1,174,1,6,1,"1589721",47,1
"4921",1,1,208,1,1,1,"1589721",48,1
"5021",1,1,228,4,4,1,"1589721",49,1
"5125",1,1,216,5,5,1,"1589721",50,1
"5223",0,1,345,1,5,1,"1589721",51,1
"5321",1,1,184,6,6,1,"1589721",52,1
"5421",0,1,243,4,1,1,"1589721",53,1
"5521",1,1,267,1,1,1,"1589721",54,1
"5621",0,1,352,6,1,1,"1589721",55,1
"5721",1,1,210,4,4,1,"1589721",56,1
"5821",1,1,227,1,1,1,"1589721",57,1
"5921",0,1,104,1,5,1,"1589721",58,1
"6021",1,1,240,5,5,1,"1589721",59,1
"6125",0,1,279,1,6,1,"1589721",60,1
"6223",0,1,191,4,1,1,"1589721",61,1
"6321",1,1,229,6,6,1,"1589721",62,1
"6421",1,1,247,4,4,1,"1589721",63,1
"6521",0,1,262,4,1,1,"1589721",64,1
"6621",1,1,224,6,6,1,"1589721",65,1
"6721",0,1,1208,1,5,1,"1589721",66,1
"6821",1,1,303,4,4,1,"1589721",67,1
"6921",0,0,287,1,1,1,"1589721",68,1
"7021",1,1,324,5,5,1,"1589721",69,1
"7121",0,1,307,6,1,1,"1589721",70,1
"2106",1,1,280,6,6,2,"159b3ce",1,1
"3106",0,1,389,5,1,2,"159b3ce",2,1
"4106",0,1,403,1,6,2,"159b3ce",3,1
"5106",1,1,469,4,4,2,"159b3ce",4,1
"6106",1,0,449,1,4,2,"159b3ce",5,1
"732",1,1,437,5,5,2,"159b3ce",6,1
"822",1,1,425,1,1,2,"159b3ce",7,1
"922",0,1,429,1,4,2,"159b3ce",8,1
"1022",1,1,391,1,1,2,"159b3ce",9,1
"1122",0,0,720,5,5,2,"159b3ce",10,1
"1222",1,1,483,6,6,2,"159b3ce",11,1
"1322",0,1,342,1,6,2,"159b3ce",12,1
"1422",1,1,488,4,4,2,"159b3ce",13,1
"1522",0,1,514,5,1,2,"159b3ce",14,1
"1622",1,1,447,4,4,2,"159b3ce",15,1
"1722",1,1,330,6,6,2,"159b3ce",16,1
"1822",0,1,407,1,6,2,"159b3ce",17,1
"1922",1,1,467,1,1,2,"159b3ce",18,1
"2022",1,1,345,5,5,2,"159b3ce",19,1
"2126",0,1,347,4,1,2,"159b3ce",20,1
"2224",0,1,358,5,1,2,"159b3ce",21,1
"2322",1,1,374,5,5,2,"159b3ce",22,1
"2422",0,1,340,5,1,2,"159b3ce",23,1
"2522",1,1,384,4,4,2,"159b3ce",24,1
"2622",0,1,387,1,6,2,"159b3ce",25,1
"2722",1,1,423,1,1,2,"159b3ce",26,1
"2822",0,1,386,1,4,2,"159b3ce",27,1
"2922",1,1,284,6,6,2,"159b3ce",28,1
"3022",1,1,449,4,4,2,"159b3ce",29,1
"3126",1,1,448,1,1,2,"159b3ce",30,1
"3224",1,1,711,5,5,2,"159b3ce",31,1
"3322",0,1,516,1,5,2,"159b3ce",32,1
"3422",0,1,530,1,6,2,"159b3ce",33,1
"3522",0,1,396,4,1,2,"159b3ce",34,1
"3622",1,1,405,6,6,2,"159b3ce",35,1
"3722",1,1,462,6,6,2,"159b3ce",36,1
"3822",0,1,542,6,1,2,"159b3ce",37,1
"3922",1,1,366,4,4,2,"159b3ce",38,1
"4022",0,1,436,4,1,2,"159b3ce",39,1
"4126",0,1,334,5,1,2,"159b3ce",40,1
"4224",1,1,339,1,1,2,"159b3ce",41,1
"4322",1,1,587,5,5,2,"159b3ce",42,1
"4422",1,1,476,6,6,2,"159b3ce",43,1
"4522",0,1,445,6,1,2,"159b3ce",44,1
"4622",1,1,641,4,4,2,"159b3ce",45,1
"4722",0,1,673,4,1,2,"159b3ce",46,1
"4822",1,1,320,1,1,2,"159b3ce",47,1
"4922",1,1,468,5,5,2,"159b3ce",48,1
"5022",0,1,663,1,5,2,"159b3ce",49,1
"5126",0,1,804,6,1,2,"159b3ce",50,1
"5224",1,1,431,1,1,2,"159b3ce",51,1
"5322",0,1,543,1,4,2,"159b3ce",52,1
"5422",0,1,877,5,1,2,"159b3ce",53,1
"5522",1,1,370,6,6,2,"159b3ce",54,1
"5622",1,1,472,4,4,2,"159b3ce",55,1
"5722",1,1,438,5,5,2,"159b3ce",56,1
"5822",0,1,521,5,1,2,"159b3ce",57,1
"5922",0,1,547,1,6,2,"159b3ce",58,1
"6022",1,1,464,6,6,2,"159b3ce",59,1
"6126",1,1,456,5,5,2,"159b3ce",60,1
"6224",1,1,500,1,1,2,"159b3ce",61,1
"6322",0,1,453,4,1,2,"159b3ce",62,1
"6422",1,1,878,4,4,2,"159b3ce",63,1
"6522",1,1,600,1,1,2,"159b3ce",64,1
"6622",1,1,691,4,4,2,"159b3ce",65,1
"6722",0,1,398,1,6,2,"159b3ce",66,1
"6822",0,1,402,1,5,2,"159b3ce",67,1
"6922",1,1,679,6,6,2,"159b3ce",68,1
"7022",1,1,357,5,5,2,"159b3ce",69,1
"7122",0,1,521,4,1,2,"159b3ce",70,1
"2107",1,0,844,1,5,3,"109703d",1,1
"3107",1,1,384,5,5,3,"109703d",2,1
"4107",0,1,407,6,1,3,"109703d",3,1
"5107",1,1,320,1,1,3,"109703d",4,1
"6107",1,0,312,4,1,3,"109703d",5,1
"733",1,1,438,6,6,3,"109703d",6,1
"823",1,1,521,4,4,3,"109703d",7,1
"923",1,1,294,6,6,3,"109703d",8,1
"1023",1,1,310,1,1,3,"109703d",9,1
"1123",-1,-1,0,1,5,3,"109703d",10,1
"1223",0,1,559,1,6,3,"109703d",11,1
"1323",1,1,403,5,5,3,"109703d",12,1
"1423",1,1,269,4,4,3,"109703d",13,1
"1523",1,0,248,4,1,3,"109703d",14,1
"1623",0,1,367,4,1,3,"109703d",15,1
"1723",0,1,295,5,1,3,"109703d",16,1
"1823",1,1,291,4,4,3,"109703d",17,1
"1923",0,1,295,6,1,3,"109703d",18,1
"2023",1,1,681,6,6,3,"109703d",19,1
"2127",-1,-1,0,5,5,3,"109703d",20,1
"2225",0,0,429,1,1,3,"109703d",21,1
"2323",0,1,323,6,1,3,"109703d",22,1
"2423",0,1,385,4,1,3,"109703d",23,1
"2523",1,1,281,5,5,3,"109703d",24,1
"2623",0,1,303,5,1,3,"109703d",25,1
"2723",1,1,365,1,1,3,"109703d",26,1
"2823",1,1,430,4,4,3,"109703d",27,1
"2923",1,1,832,6,6,3,"109703d",28,1
"3023",1,1,367,4,4,3,"109703d",29,1
"3127",1,1,255,1,1,3,"109703d",30,1
"3225",1,1,290,5,5,3,"109703d",31,1
"3323",0,1,306,1,5,3,"109703d",32,1
"3423",1,1,235,6,6,3,"109703d",33,1
"3523",1,0,251,1,4,3,"109703d",34,1
"3623",0,1,320,6,1,3,"109703d",35,1
"3723",1,1,1834,1,1,3,"109703d",36,1
"3823",0,1,253,1,5,3,"109703d",37,1
"3923",1,1,370,5,5,3,"109703d",38,1
"4023",1,1,215,6,6,3,"109703d",39,1
"4127",0,1,246,6,1,3,"109703d",40,1
"4225",0,1,328,1,4,3,"109703d",41,1
"4323",1,1,1299,4,4,3,"109703d",42,1
"4423",0,1,1385,1,4,3,"109703d",43,1
"4523",1,1,239,6,6,3,"109703d",44,1
"4623",-1,-1,0,5,5,3,"109703d",45,1
"4723",0,1,651,5,1,3,"109703d",46,1
"4823",0,1,144,1,6,3,"109703d",47,1
"4923",0,0,263,1,1,3,"109703d",48,1
"5023",1,1,413,4,4,3,"109703d",49,1
"5127",1,1,696,1,1,3,"109703d",50,1
"5225",1,1,169,6,6,3,"109703d",51,1
"5323",0,1,267,1,5,3,"109703d",52,1
"5423",0,1,256,1,6,3,"109703d",53,1
"5523",1,1,1596,4,4,3,"109703d",54,1
"5623",0,1,663,4,1,3,"109703d",55,1
"5723",1,1,451,5,5,3,"109703d",56,1
"5823",0,1,377,6,1,3,"109703d",57,1
"5923",-1,-1,0,1,1,3,"109703d",58,1
"6023",1,1,1918,5,5,3,"109703d",59,1
"6127",1,1,335,4,4,3,"109703d",60,1
"6225",1,1,1008,6,6,3,"109703d",61,1
"6323",0,1,98,5,1,3,"109703d",62,1
"6423",0,1,617,1,4,3,"109703d",63,1
"6523",0,1,80,1,6,3,"109703d",64,1
"6623",1,1,1828,4,4,3,"109703d",65,1
"6723",1,1,860,6,6,3,"109703d",66,1
"6823",0,1,550,4,1,3,"109703d",67,1
"6923",1,1,794,5,5,3,"109703d",68,1
"7023",0,1,321,5,1,3,"109703d",69,1
"7123",1,1,18,1,1,3,"109703d",70,1
"2108",1,0,654,1,4,3,"7267deb",1,1
"3108",1,0,348,1,5,3,"7267deb",2,1
"4108",0,1,491,6,1,3,"7267deb",3,1
"5108",1,1,762,4,4,3,"7267deb",4,1
"6108",0,0,341,1,1,3,"7267deb",5,1
"734",1,1,245,6,6,3,"7267deb",6,1
"824",1,1,393,5,5,3,"7267deb",7,1
"924",0,0,292,5,5,3,"7267deb",8,1
"1024",1,1,325,6,6,3,"7267deb",9,1
"1124",0,1,953,5,1,3,"7267deb",10,1
"1224",1,1,1707,4,4,3,"7267deb",11,1
"1324",1,1,807,1,1,3,"7267deb",12,1
"1424",0,1,1244,1,4,3,"7267deb",13,1
"1524",0,1,801,1,6,3,"7267deb",14,1
"1624",1,1,332,1,1,3,"7267deb",15,1
"1724",0,1,77,1,5,3,"7267deb",16,1
"1824",0,1,1076,6,1,3,"7267deb",17,1
"1924",1,1,1129,6,6,3,"7267deb",18,1
"2024",1,1,54,4,4,3,"7267deb",19,1
"2128",0,1,209,1,4,3,"7267deb",20,1
"2226",1,1,27,5,5,3,"7267deb",21,1
"2324",0,1,1164,6,1,3,"7267deb",22,1
"2424",1,1,1724,4,4,3,"7267deb",23,1
"2524",0,1,273,1,4,3,"7267deb",24,1
"2624",-1,-1,0,6,6,3,"7267deb",25,1
"2724",1,1,579,1,1,3,"7267deb",26,1
"2824",1,1,963,5,5,3,"7267deb",27,1
"2924",0,1,1747,5,1,3,"7267deb",28,1
"3024",0,1,1251,5,1,3,"7267deb",29,1
"3128",1,1,276,1,1,3,"7267deb",30,1
"3226",1,1,946,5,5,3,"7267deb",31,1
"3324",1,1,703,6,6,3,"7267deb",32,1
"3424",0,1,487,1,4,3,"7267deb",33,1
"3524",0,1,902,6,1,3,"7267deb",34,1
"3624",1,1,304,4,4,3,"7267deb",35,1
"3724",0,1,307,4,1,3,"7267deb",36,1
"3824",1,1,616,6,6,3,"7267deb",37,1
"3924",1,1,1018,4,4,3,"7267deb",38,1
"4024",0,1,228,1,6,3,"7267deb",39,1
"4128",1,1,606,1,1,3,"7267deb",40,1
"4226",1,1,811,5,5,3,"7267deb",41,1
"4324",-1,-1,0,5,1,3,"7267deb",42,1
"4424",0,1,815,1,4,3,"7267deb",43,1
"4524",0,1,420,1,5,3,"7267deb",44,1
"4624",1,1,225,5,5,3,"7267deb",45,1
"4724",0,1,148,1,6,3,"7267deb",46,1
"4824",1,1,474,4,4,3,"7267deb",47,1
"4924",1,1,361,6,6,3,"7267deb",48,1
"5024",1,1,330,1,1,3,"7267deb",49,1
"5128",0,1,243,1,4,3,"7267deb",50,1
"5226",0,1,375,6,1,3,"7267deb",51,1
"5324",1,1,340,5,5,3,"7267deb",52,1
"5424",1,1,1441,6,6,3,"7267deb",53,1
"5524",1,1,336,1,1,3,"7267deb",54,1
"5624",1,1,305,4,4,3,"7267deb",55,1
"5724",0,1,329,5,1,3,"7267deb",56,1
"5824",0,1,730,6,1,3,"7267deb",57,1
"5924",-1,-1,0,4,1,3,"7267deb",58,1
"6024",1,1,1341,5,5,3,"7267deb",59,1
"6128",0,1,330,5,1,3,"7267deb",60,1
"6226",1,1,713,4,4,3,"7267deb",61,1
"6324",1,1,271,1,1,3,"7267deb",62,1
"6424",1,1,111,6,6,3,"7267deb",63,1
"6524",0,1,241,1,4,3,"7267deb",64,1
"6624",1,1,1273,6,6,3,"7267deb",65,1
"6724",1,1,293,4,4,3,"7267deb",66,1
"6824",1,1,471,5,5,3,"7267deb",67,1
"6924",0,1,505,1,6,3,"7267deb",68,1
"7024",0,1,316,1,5,3,"7267deb",69,1
"7124",1,1,297,1,1,3,"7267deb",70,1
"2109",1,1,794,5,5,2,"10b4792",1,1
"3109",1,1,247,1,1,2,"10b4792",2,1
"4109",1,0,577,1,5,2,"10b4792",3,1
"5109",1,1,423,4,4,2,"10b4792",4,1
"6109",1,0,310,1,4,2,"10b4792",5,1
"735",1,0,304,1,6,2,"10b4792",6,1
"825",0,0,232,6,6,2,"10b4792",7,1
"925",1,0,221,6,1,2,"10b4792",8,1
"1025",1,1,73,6,6,2,"10b4792",9,1
"1125",0,1,203,4,1,2,"10b4792",10,1
"1225",0,1,303,5,1,2,"10b4792",11,1
"1325",1,1,32,4,4,2,"10b4792",12,1
"1425",1,1,149,5,5,2,"10b4792",13,1
"1525",1,1,57,1,1,2,"10b4792",14,1
"1625",0,1,114,6,1,2,"10b4792",15,1
"1725",1,1,154,5,5,2,"10b4792",16,1
"1825",0,1,87,5,1,2,"10b4792",17,1
"1925",1,1,217,4,4,2,"10b4792",18,1
"2025",1,1,240,1,1,2,"10b4792",19,1
"2129",0,1,183,4,1,2,"10b4792",20,1
"2227",1,1,324,6,6,2,"10b4792",21,1
"2325",0,1,189,6,1,2,"10b4792",22,1
"2425",1,1,69,6,6,2,"10b4792",23,1
"2525",1,1,239,5,5,2,"10b4792",24,1
"2625",0,1,94,4,1,2,"10b4792",25,1
"2725",0,1,12,5,1,2,"10b4792",26,1
"2825",1,1,185,1,1,2,"10b4792",27,1
"2925",1,1,183,4,4,2,"10b4792",28,1
"3025",1,1,80,4,4,2,"10b4792",29,1
"3129",1,1,206,1,1,2,"10b4792",30,1
"3227",0,1,30,1,6,2,"10b4792",31,1
"3325",0,1,195,1,4,2,"10b4792",32,1
"3425",1,1,309,5,5,2,"10b4792",33,1
"3525",0,1,170,1,5,2,"10b4792",34,1
"3625",1,1,214,6,6,2,"10b4792",35,1
"3725",1,1,315,4,4,2,"10b4792",36,1
"3825",1,1,290,6,6,2,"10b4792",37,1
"3925",0,1,184,1,5,2,"10b4792",38,1
"4025",0,1,28,4,1,2,"10b4792",39,1
"4129",0,1,41,6,1,2,"10b4792",40,1
"4227",1,1,165,5,5,2,"10b4792",41,1
"4325",1,1,229,1,1,2,"10b4792",42,1
"4425",1,1,263,1,1,2,"10b4792",43,1
"4525",1,1,292,4,4,2,"10b4792",44,1
"4625",1,0,332,4,1,2,"10b4792",45,1
"4725",0,1,286,5,1,2,"10b4792",46,1
"4825",1,1,81,6,6,2,"10b4792",47,1
"4925",0,1,263,6,1,2,"10b4792",48,1
"5025",1,1,22,5,5,2,"10b4792",49,1
"5129",1,1,185,5,5,2,"10b4792",50,1
"5227",0,1,100,4,1,2,"10b4792",51,1
"5325",1,1,225,4,4,2,"10b4792",52,1
"5425",1,1,1065,1,1,2,"10b4792",53,1
"5525",0,1,61,6,1,2,"10b4792",54,1
"5625",1,1,23,6,6,2,"10b4792",55,1
"5725",0,1,419,5,1,2,"10b4792",56,1
"5825",0,1,280,4,1,2,"10b4792",57,1
"5925",1,1,122,6,6,2,"10b4792",58,1
"6025",0,1,159,1,5,2,"10b4792",59,1
"6129",1,1,843,4,4,2,"10b4792",60,1
"6227",1,1,31,1,1,2,"10b4792",61,1
"6325",0,1,128,1,6,2,"10b4792",62,1
"6425",1,1,361,5,5,2,"10b4792",63,1
"6525",1,1,360,6,6,2,"10b4792",64,1
"6625",0,1,89,1,6,2,"10b4792",65,1
"6725",0,1,228,1,4,2,"10b4792",66,1
"6825",0,1,256,5,1,2,"10b4792",67,1
"6925",1,1,347,1,1,2,"10b4792",68,1
"7025",1,1,224,4,4,2,"10b4792",69,1
"7125",1,1,378,5,5,2,"10b4792",70,1
"2130",1,0,228,5,1,2,"7092299",1,1
"3130",1,0,285,4,1,2,"7092299",2,1
"4130",1,0,266,6,1,2,"7092299",3,1
"5130",1,1,254,4,4,2,"7092299",4,1
"6130",1,1,378,5,5,2,"7092299",5,1
"736",1,1,383,6,6,2,"7092299",6,1
"826",1,1,466,1,1,2,"7092299",7,1
"926",1,1,360,6,6,2,"7092299",8,1
"1026",1,1,168,5,5,2,"7092299",9,1
"1126",1,0,133,6,1,2,"7092299",10,1
"1226",1,1,447,1,1,2,"7092299",11,1
"1326",1,1,232,4,4,2,"7092299",12,1
"1426",0,1,244,4,1,2,"7092299",13,1
"1526",0,1,380,1,5,2,"7092299",14,1
"1626",0,1,176,1,4,2,"7092299",15,1
"1726",1,1,403,1,1,2,"7092299",16,1
"1826",0,1,415,6,1,2,"7092299",17,1
"1926",1,1,119,6,6,2,"7092299",18,1
"2026",0,1,530,5,1,2,"7092299",19,1
"2131",1,1,290,4,4,2,"7092299",20,1
"2228",1,1,474,5,5,2,"7092299",21,1
"2326",0,1,164,4,1,2,"7092299",22,1
"2426",0,1,206,6,1,2,"7092299",23,1
"2526",0,0,289,4,4,2,"7092299",24,1
"2626",1,1,476,5,5,2,"7092299",25,1
"2726",1,1,568,6,6,2,"7092299",26,1
"2826",0,1,436,1,5,2,"7092299",27,1
"2926",1,1,464,1,1,2,"7092299",28,1
"3026",1,1,578,6,6,2,"7092299",29,1
"3131",0,1,338,5,1,2,"7092299",30,1
"3228",0,1,1023,1,6,2,"7092299",31,1
"3326",0,0,220,4,4,2,"7092299",32,1
"3426",1,1,477,1,1,2,"7092299",33,1
"3526",0,1,715,1,4,2,"7092299",34,1
"3626",0,0,592,5,5,2,"7092299",35,1
"3726",0,1,418,1,4,2,"7092299",36,1
"3826",1,1,1250,5,5,2,"7092299",37,1
"3926",-1,-1,0,6,1,2,"7092299",38,1
"4026",1,1,1023,1,1,2,"7092299",39,1
"4131",1,1,1136,4,4,2,"7092299",40,1
"4228",0,1,1321,5,1,2,"7092299",41,1
"4326",1,1,434,6,6,2,"7092299",42,1
"4426",1,1,360,1,1,2,"7092299",43,1
"4526",1,1,364,6,6,2,"7092299",44,1
"4626",0,1,683,1,5,2,"7092299",45,1
"4726",0,1,371,1,4,2,"7092299",46,1
"4826",0,1,786,1,6,2,"7092299",47,1
"4926",1,1,1600,4,4,2,"7092299",48,1
"5026",1,1,1059,5,5,2,"7092299",49,1
"5131",1,1,442,1,1,2,"7092299",50,1
"5228",1,1,1760,6,6,2,"7092299",51,1
"5326",1,1,676,4,4,2,"7092299",52,1
"5426",1,1,488,5,5,2,"7092299",53,1
"5526",0,1,1987,1,5,2,"7092299",54,1
"5626",0,1,1880,4,1,2,"7092299",55,1
"5726",1,0,578,6,1,2,"7092299",56,1
"5826",1,0,1368,1,5,2,"7092299",57,1
"5926",1,1,388,6,6,2,"7092299",58,1
"6026",1,1,2000,5,5,2,"7092299",59,1
"6131",1,1,726,1,1,2,"7092299",60,1
"6228",0,1,1276,1,6,2,"7092299",61,1
"6326",0,0,1485,4,4,2,"7092299",62,1
"6426",0,1,780,4,1,2,"7092299",63,1
"6526",1,1,847,4,4,2,"7092299",64,1
"6626",0,1,747,1,6,2,"7092299",65,1
"6726",1,1,589,5,5,2,"7092299",66,1
"6826",0,1,1517,4,1,2,"7092299",67,1
"6926",1,1,1164,6,6,2,"7092299",68,1
"7026",0,1,486,5,1,2,"7092299",69,1
"7126",1,1,1998,1,1,2,"7092299",70,1
"2132",1,0,868,1,4,3,"102b3b9",1,1
"3132",-1,0,771,4,4,3,"102b3b9",2,1
"4132",-1,0,1277,5,5,3,"102b3b9",3,1
"5132",-1,0,762,1,5,3,"102b3b9",4,1
"6132",-1,0,666,6,6,3,"102b3b9",5,1
"737",-1,0,487,6,1,3,"102b3b9",6,1
"827",-1,0,1113,1,1,3,"102b3b9",7,1
"927",-1,0,544,4,4,3,"102b3b9",8,1
"1027",-1,0,450,1,1,3,"102b3b9",9,1
"1127",-1,0,351,1,6,3,"102b3b9",10,1
"1227",-1,0,518,5,5,3,"102b3b9",11,1
"1327",-1,0,1264,4,1,3,"102b3b9",12,1
"1427",-1,0,832,6,6,3,"102b3b9",13,1
"1527",-1,0,702,1,5,3,"102b3b9",14,1
"1627",-1,0,708,6,6,3,"102b3b9",15,1
"1727",-1,0,393,5,5,3,"102b3b9",16,1
"1827",-1,0,352,1,1,3,"102b3b9",17,1
"1927",-1,0,525,1,4,3,"102b3b9",18,1
"2027",1,0,471,6,1,3,"102b3b9",19,1
"2133",1,0,565,5,1,3,"102b3b9",20,1
"2229",0,0,1407,4,4,3,"102b3b9",21,1
"2327",1,0,470,5,1,3,"102b3b9",22,1
"2427",0,1,498,6,1,3,"102b3b9",23,1
"2527",1,1,221,5,5,3,"102b3b9",24,1
"2627",0,0,1415,6,6,3,"102b3b9",25,1
"2727",1,1,932,4,4,3,"102b3b9",26,1
"2827",-1,-1,0,1,1,3,"102b3b9",27,1
"2927",1,0,506,4,1,3,"102b3b9",28,1
"3027",1,1,837,5,5,3,"102b3b9",29,1
"3133",1,0,790,4,1,3,"102b3b9",30,1
"3229",0,0,416,4,4,3,"102b3b9",31,1
"3327",1,1,359,6,6,3,"102b3b9",32,1
"3427",0,0,393,1,1,3,"102b3b9",33,1
"3527",1,0,379,1,6,3,"102b3b9",34,1
"3627",0,1,486,5,1,3,"102b3b9",35,1
"3727",1,0,1651,1,5,3,"102b3b9",36,1
"3827",0,0,453,1,1,3,"102b3b9",37,1
"3927",0,0,1017,4,4,3,"102b3b9",38,1
"4027",1,0,1393,1,4,3,"102b3b9",39,1
"4133",0,0,455,6,6,3,"102b3b9",40,1
"4229",0,1,651,6,1,3,"102b3b9",41,1
"4327",1,1,330,5,5,3,"102b3b9",42,1
"4427",0,1,836,6,1,3,"102b3b9",43,1
"4527",1,1,887,6,6,3,"102b3b9",44,1
"4627",0,0,491,4,4,3,"102b3b9",45,1
"4727",1,0,410,1,4,3,"102b3b9",46,1
"4827",0,0,422,1,1,3,"102b3b9",47,1
"4927",1,1,456,5,5,3,"102b3b9",48,1
"5027",0,1,574,5,1,3,"102b3b9",49,1
"5133",0,0,372,1,1,3,"102b3b9",50,1
"5229",1,0,804,1,5,3,"102b3b9",51,1
"5327",1,0,832,1,4,3,"102b3b9",52,1
"5427",0,0,614,6,6,3,"102b3b9",53,1
"5527",0,0,476,4,4,3,"102b3b9",54,1
"5627",1,1,327,5,5,3,"102b3b9",55,1
"5727",1,0,702,1,6,3,"102b3b9",56,1
"5827",0,1,419,1,6,3,"102b3b9",57,1
"5927",1,1,600,1,1,3,"102b3b9",58,1
"6027",0,0,815,6,6,3,"102b3b9",59,1
"6133",1,1,460,5,5,3,"102b3b9",60,1
"6229",0,1,366,1,4,3,"102b3b9",61,1
"6327",0,0,560,4,4,3,"102b3b9",62,1
"6427",1,0,864,5,1,3,"102b3b9",63,1
"6527",0,0,793,1,1,3,"102b3b9",64,1
"6627",-1,-1,0,1,4,3,"102b3b9",65,1
"6727",1,1,980,5,5,3,"102b3b9",66,1
"6827",0,0,638,6,6,3,"102b3b9",67,1
"6927",1,0,482,1,6,3,"102b3b9",68,1
"7027",0,1,1892,5,1,3,"102b3b9",69,1
"7127",-1,-1,0,4,4,3,"102b3b9",70,1
"2134",1,0,435,1,5,2,"28f22d4",1,1
"3134",1,1,294,6,6,2,"28f22d4",2,1
"4134",1,0,166,6,1,2,"28f22d4",3,1
"5134",1,1,272,5,5,2,"28f22d4",4,1
"6134",1,1,279,4,4,2,"28f22d4",5,1
"738",1,1,298,1,1,2,"28f22d4",6,1
"828",0,1,66,4,1,2,"28f22d4",7,1
"928",1,1,258,5,5,2,"28f22d4",8,1
"1028",0,1,322,1,6,2,"28f22d4",9,1
"1128",1,1,437,4,4,2,"28f22d4",10,1
"1228",1,1,456,6,6,2,"28f22d4",11,1
"1328",0,1,267,4,1,2,"28f22d4",12,1
"1428",1,1,388,1,1,2,"28f22d4",13,1
"1528",0,1,183,1,5,2,"28f22d4",14,1
"1628",1,1,298,6,6,2,"28f22d4",15,1
"1728",0,1,370,1,4,2,"28f22d4",16,1
"1828",1,1,123,5,5,2,"28f22d4",17,1
"1928",1,1,422,4,4,2,"28f22d4",18,1
"2028",0,1,460,5,1,2,"28f22d4",19,1
"2135",0,1,458,1,6,2,"28f22d4",20,1
"2230",1,1,265,1,1,2,"28f22d4",21,1
"2328",0,1,462,6,1,2,"28f22d4",22,1
"2428",1,1,259,4,4,2,"28f22d4",23,1
"2528",0,1,307,1,5,2,"28f22d4",24,1
"2628",1,1,488,1,1,2,"28f22d4",25,1
"2728",0,1,297,4,1,2,"28f22d4",26,1
"2828",1,1,92,5,5,2,"28f22d4",27,1
"2928",1,1,271,6,6,2,"28f22d4",28,1
"3028",0,1,596,1,5,2,"28f22d4",29,1
"3135",1,1,477,5,5,2,"28f22d4",30,1
"3230",0,1,516,6,1,2,"28f22d4",31,1
"3328",1,1,485,6,6,2,"28f22d4",32,1
"3428",1,1,304,4,4,2,"28f22d4",33,1
"3528",0,1,21,4,1,2,"28f22d4",34,1
"3628",1,1,307,1,1,2,"28f22d4",35,1
"3728",0,1,137,1,4,2,"28f22d4",36,1
"3828",1,1,436,4,4,2,"28f22d4",37,1
"3928",1,1,339,6,6,2,"28f22d4",38,1
"4028",0,0,35,1,1,2,"28f22d4",39,1
"4135",1,1,258,5,5,2,"28f22d4",40,1
"4230",0,1,271,5,1,2,"28f22d4",41,1
"4328",0,1,229,6,1,2,"28f22d4",42,1
"4428",1,1,257,4,4,2,"28f22d4",43,1
"4528",1,1,594,1,1,2,"28f22d4",44,1
"4628",0,1,279,5,1,2,"28f22d4",45,1
"4728",1,1,288,5,5,2,"28f22d4",46,1
"4828",0,1,89,1,6,2,"28f22d4",47,1
"4928",0,1,579,1,4,2,"28f22d4",48,1
"5028",1,1,440,6,6,2,"28f22d4",49,1
"5135",0,1,405,1,5,2,"28f22d4",50,1
"5230",0,1,764,1,6,2,"28f22d4",51,1
"5328",0,1,332,4,1,2,"28f22d4",52,1
"5428",1,1,305,5,5,2,"28f22d4",53,1
"5528",1,1,285,4,4,2,"28f22d4",54,1
"5628",1,1,521,1,1,2,"28f22d4",55,1
"5728",1,1,267,6,6,2,"28f22d4",56,1
"5828",0,1,350,6,1,2,"28f22d4",57,1
"5928",1,1,466,6,6,2,"28f22d4",58,1
"6028",1,1,297,1,1,2,"28f22d4",59,1
"6135",0,1,408,1,5,2,"28f22d4",60,1
"6230",1,1,441,5,5,2,"28f22d4",61,1
"6328",1,1,380,4,4,2,"28f22d4",62,1
"6428",0,1,241,4,1,2,"28f22d4",63,1
"6528",1,1,262,6,6,2,"28f22d4",64,1
"6628",1,1,293,4,4,2,"28f22d4",65,1
"6728",0,1,359,5,1,2,"28f22d4",66,1
"6828",1,1,330,1,1,2,"28f22d4",67,1
"6928",0,1,1061,4,1,2,"28f22d4",68,1
"7028",0,1,275,1,6,2,"28f22d4",69,1
"7128",1,1,640,5,5,2,"28f22d4",70,1
"2136",1,1,805,1,1,2,"1ab5f8b",1,1
"3136",1,1,549,5,5,2,"1ab5f8b",2,1
"4136",1,1,369,6,6,2,"1ab5f8b",3,1
"5136",1,1,372,4,4,2,"1ab5f8b",4,1
"6136",1,0,401,1,6,2,"1ab5f8b",5,1
"739",1,0,394,4,1,2,"1ab5f8b",6,1
"829",0,1,406,1,5,2,"1ab5f8b",7,1
"929",0,1,314,6,1,2,"1ab5f8b",8,1
"1029",0,0,437,6,6,2,"1ab5f8b",9,1
"1129",0,1,380,4,1,2,"1ab5f8b",10,1
"1229",0,0,329,5,5,2,"1ab5f8b",11,1
"1329",0,0,262,4,4,2,"1ab5f8b",12,1
"1429",0,0,311,1,1,2,"1ab5f8b",13,1
"1529",1,0,322,1,5,2,"1ab5f8b",14,1
"1629",0,1,309,1,4,2,"1ab5f8b",15,1
"1729",1,0,349,5,1,2,"1ab5f8b",16,1
"1829",1,1,316,4,4,2,"1ab5f8b",17,1
"1929",1,1,50,5,5,2,"1ab5f8b",18,1
"2029",0,0,654,1,1,2,"1ab5f8b",19,1
"2137",1,0,1977,1,6,2,"1ab5f8b",20,1
"2231",1,1,362,6,6,2,"1ab5f8b",21,1
"2329",0,1,449,4,1,2,"1ab5f8b",22,1
"2429",-1,-1,0,5,5,2,"1ab5f8b",23,1
"2529",0,0,213,1,1,2,"1ab5f8b",24,1
"2629",1,1,389,6,6,2,"1ab5f8b",25,1
"2729",1,0,179,5,1,2,"1ab5f8b",26,1
"2829",0,0,431,4,4,2,"1ab5f8b",27,1
"2929",0,1,400,6,1,2,"1ab5f8b",28,1
"3029",0,1,379,4,1,2,"1ab5f8b",29,1
"3137",0,1,369,5,1,2,"1ab5f8b",30,1
"3231",1,1,320,6,6,2,"1ab5f8b",31,1
"3329",0,1,345,1,6,2,"1ab5f8b",32,1
"3429",1,1,336,4,4,2,"1ab5f8b",33,1
"3529",1,1,357,1,1,2,"1ab5f8b",34,1
"3629",1,1,394,5,5,2,"1ab5f8b",35,1
"3729",0,1,375,1,5,2,"1ab5f8b",36,1
"3829",0,1,530,4,1,2,"1ab5f8b",37,1
"3929",1,1,316,1,1,2,"1ab5f8b",38,1
"4029",1,1,454,6,6,2,"1ab5f8b",39,1
"4137",1,1,837,5,5,2,"1ab5f8b",40,1
"4231",0,1,455,6,1,2,"1ab5f8b",41,1
"4329",1,1,374,4,4,2,"1ab5f8b",42,1
"4429",0,1,271,5,1,2,"1ab5f8b",43,1
"4529",1,1,373,5,5,2,"1ab5f8b",44,1
"4629",0,1,361,1,4,2,"1ab5f8b",45,1
"4729",1,1,583,6,6,2,"1ab5f8b",46,1
"4829",1,1,725,1,1,2,"1ab5f8b",47,1
"4929",0,1,436,6,1,2,"1ab5f8b",48,1
"5029",1,1,560,4,4,2,"1ab5f8b",49,1
"5137",0,1,472,4,1,2,"1ab5f8b",50,1
"5231",0,1,548,1,6,2,"1ab5f8b",51,1
"5329",1,1,564,6,6,2,"1ab5f8b",52,1
"5429",1,0,422,5,1,2,"1ab5f8b",53,1
"5529",1,1,507,5,5,2,"1ab5f8b",54,1
"5629",1,1,403,4,4,2,"1ab5f8b",55,1
"5729",1,1,520,1,1,2,"1ab5f8b",56,1
"5829",1,1,362,1,1,2,"1ab5f8b",57,1
"5929",1,1,537,6,6,2,"1ab5f8b",58,1
"6029",1,1,326,4,4,2,"1ab5f8b",59,1
"6137",0,1,539,5,1,2,"1ab5f8b",60,1
"6231",0,1,422,6,1,2,"1ab5f8b",61,1
"6329",0,1,271,4,1,2,"1ab5f8b",62,1
"6429",1,1,560,5,5,2,"1ab5f8b",63,1
"6529",0,1,573,1,6,2,"1ab5f8b",64,1
"6629",1,1,850,5,5,2,"1ab5f8b",65,1
"6729",1,1,394,4,4,2,"1ab5f8b",66,1
"6829",1,1,499,1,1,2,"1ab5f8b",67,1
"6929",0,1,702,5,1,2,"1ab5f8b",68,1
"7029",0,1,824,4,1,2,"1ab5f8b",69,1
"7129",1,1,506,6,6,2,"1ab5f8b",70,1
"2138",1,1,838,6,6,3,"19299c4",1,1
"3138",1,0,408,1,5,3,"19299c4",2,1
"4138",1,1,338,5,5,3,"19299c4",3,1
"5138",0,1,330,6,1,3,"19299c4",4,1
"6138",1,0,287,1,4,3,"19299c4",5,1
"740",0,0,320,1,1,3,"19299c4",6,1
"830",0,0,318,4,4,3,"19299c4",7,1
"930",0,0,193,1,1,3,"19299c4",8,1
"1030",1,1,293,5,5,3,"19299c4",9,1
"1130",0,1,531,1,5,3,"19299c4",10,1
"1230",1,1,317,6,6,3,"19299c4",11,1
"1330",1,0,432,6,1,3,"19299c4",12,1
"1430",0,0,591,4,4,3,"19299c4",13,1
"1530",1,0,703,4,1,3,"19299c4",14,1
"1630",1,0,1347,1,4,3,"19299c4",15,1
"1730",0,1,431,5,1,3,"19299c4",16,1
"1830",1,0,323,1,6,3,"19299c4",17,1
"1930",1,1,358,4,4,3,"19299c4",18,1
"2030",0,0,397,5,5,3,"19299c4",19,1
"2139",0,0,395,1,1,3,"19299c4",20,1
"2232",1,1,348,6,6,3,"19299c4",21,1
"2330",1,1,508,4,4,3,"19299c4",22,1
"2430",1,0,328,1,6,3,"19299c4",23,1
"2530",1,1,1058,6,6,3,"19299c4",24,1
"2630",1,0,656,1,5,3,"19299c4",25,1
"2730",0,0,399,5,5,3,"19299c4",26,1
"2830",0,1,1343,4,1,3,"19299c4",27,1
"2930",1,1,646,1,1,3,"19299c4",28,1
"3030",0,1,421,1,4,3,"19299c4",29,1
"3139",0,0,665,4,4,3,"19299c4",30,1
"3232",0,0,403,1,1,3,"19299c4",31,1
"3330",1,0,442,1,6,3,"19299c4",32,1
"3430",0,1,1137,5,1,3,"19299c4",33,1
"3530",1,1,390,5,5,3,"19299c4",34,1
"3630",0,0,413,6,6,3,"19299c4",35,1
"3730",1,1,467,5,5,3,"19299c4",36,1
"3830",1,1,442,4,4,3,"19299c4",37,1
"3930",-1,-1,0,1,5,3,"19299c4",38,1
"4030",1,1,338,1,1,3,"19299c4",39,1
"4139",0,0,349,6,6,3,"19299c4",40,1
"4232",0,1,362,6,1,3,"19299c4",41,1
"4330",0,1,373,1,4,3,"19299c4",42,1
"4430",1,1,1152,5,5,3,"19299c4",43,1
"4530",0,1,344,5,1,3,"19299c4",44,1
"4630",0,1,443,4,1,3,"19299c4",45,1
"4730",0,1,464,1,6,3,"19299c4",46,1
"4830",0,0,407,6,6,3,"19299c4",47,1
"4930",1,1,339,1,1,3,"19299c4",48,1
"5030",1,1,336,4,4,3,"19299c4",49,1
"5139",1,1,422,4,4,3,"19299c4",50,1
"5232",1,1,384,1,1,3,"19299c4",51,1
"5330",1,1,362,5,5,3,"19299c4",52,1
"5430",0,1,352,4,1,3,"19299c4",53,1
"5530",0,1,427,6,1,3,"19299c4",54,1
"5630",1,1,333,6,6,3,"19299c4",55,1
"5730",0,1,455,1,5,3,"19299c4",56,1
"5830",0,1,348,1,5,3,"19299c4",57,1
"5930",1,1,340,6,6,3,"19299c4",58,1
"6030",1,1,373,1,1,3,"19299c4",59,1
"6139",1,1,340,5,5,3,"19299c4",60,1
"6232",1,1,878,4,4,3,"19299c4",61,1
"6330",0,1,400,1,4,3,"19299c4",62,1
"6430",0,1,308,1,6,3,"19299c4",63,1
"6530",0,1,94,5,1,3,"19299c4",64,1
"6630",0,1,379,1,6,3,"19299c4",65,1
"6730",1,1,358,6,6,3,"19299c4",66,1
"6830",0,1,418,1,4,3,"19299c4",67,1
"6930",1,1,347,5,5,3,"19299c4",68,1
"7030",1,1,443,4,4,3,"19299c4",69,1
"7130",1,1,459,1,1,3,"19299c4",70,1
"2140",1,1,530,5,5,1,"f482b7d",1,1
"3140",0,1,328,1,5,1,"f482b7d",2,1
"4140",1,1,397,6,6,1,"f482b7d",3,1
"5140",0,1,327,1,4,1,"f482b7d",4,1
"6140",1,1,355,1,1,1,"f482b7d",5,1
"741",0,1,523,1,6,1,"f482b7d",6,1
"831",1,1,584,4,4,1,"f482b7d",7,1
"931",0,1,559,5,1,1,"f482b7d",8,1
"1031",0,1,393,4,1,1,"f482b7d",9,1
"1131",1,1,365,5,5,1,"f482b7d",10,1
"1231",1,1,325,6,6,1,"f482b7d",11,1
"1331",1,1,397,4,4,1,"f482b7d",12,1
"1431",0,1,947,1,6,1,"f482b7d",13,1
"1531",0,0,820,1,1,1,"f482b7d",14,1
"1631",-1,-1,0,1,6,1,"f482b7d",15,1
"1731",1,1,374,4,4,1,"f482b7d",16,1
"1831",1,1,397,6,6,1,"f482b7d",17,1
"1931",1,1,516,1,1,1,"f482b7d",18,1
"2031",0,1,420,1,4,1,"f482b7d",19,1
"2141",1,1,442,5,5,1,"f482b7d",20,1
"2233",0,1,552,1,5,1,"f482b7d",21,1
"2331",0,1,347,6,1,1,"f482b7d",22,1
"2431",1,1,442,6,6,1,"f482b7d",23,1
"2531",0,0,541,4,4,1,"f482b7d",24,1
"2631",1,0,969,5,1,1,"f482b7d",25,1
"2731",1,1,771,5,5,1,"f482b7d",26,1
"2831",0,1,505,1,4,1,"f482b7d",27,1
"2931",1,1,339,1,1,1,"f482b7d",28,1
"3031",0,1,644,5,1,1,"f482b7d",29,1
"3141",-1,-1,0,6,1,1,"f482b7d",30,1
"3233",1,1,367,5,5,1,"f482b7d",31,1
"3331",1,1,349,6,6,1,"f482b7d",32,1
"3431",0,1,851,4,1,1,"f482b7d",33,1
"3531",1,1,625,1,1,1,"f482b7d",34,1
"3631",1,1,795,4,4,1,"f482b7d",35,1
"3731",0,1,387,1,6,1,"f482b7d",36,1
"3831",1,1,756,4,4,1,"f482b7d",37,1
"3931",0,1,561,4,1,1,"f482b7d",38,1
"4031",1,1,577,6,6,1,"f482b7d",39,1
"4141",1,1,440,1,1,1,"f482b7d",40,1
"4233",0,1,335,1,5,1,"f482b7d",41,1
"4331",1,1,359,5,5,1,"f482b7d",42,1
"4431",1,1,516,6,6,1,"f482b7d",43,1
"4531",1,0,1093,1,5,1,"f482b7d",44,1
"4631",0,1,365,6,1,1,"f482b7d",45,1
"4731",1,1,589,5,5,1,"f482b7d",46,1
"4831",-1,-1,0,4,4,1,"f482b7d",47,1
"4931",0,1,558,1,4,1,"f482b7d",48,1
"5031",1,1,490,1,1,1,"f482b7d",49,1
"5141",1,0,664,5,1,1,"f482b7d",50,1
"5233",0,0,467,6,6,1,"f482b7d",51,1
"5331",1,1,1573,5,5,1,"f482b7d",52,1
"5431",-1,-1,0,4,4,1,"f482b7d",53,1
"5531",0,1,498,1,4,1,"f482b7d",54,1
"5631",1,1,613,1,1,1,"f482b7d",55,1
"5731",0,1,356,6,1,1,"f482b7d",56,1
"5831",1,1,676,6,6,1,"f482b7d",57,1
"5931",0,1,1191,5,1,1,"f482b7d",58,1
"6031",1,1,470,1,1,1,"f482b7d",59,1
"6141",0,1,416,1,4,1,"f482b7d",60,1
"6233",1,1,656,4,4,1,"f482b7d",61,1
"6331",1,1,365,5,5,1,"f482b7d",62,1
"6431",0,1,481,1,6,1,"f482b7d",63,1
"6531",1,1,1350,6,6,1,"f482b7d",64,1
"6631",1,1,425,4,4,1,"f482b7d",65,1
"6731",0,1,318,4,1,1,"f482b7d",66,1
"6831",1,1,538,5,5,1,"f482b7d",67,1
"6931",0,1,649,5,1,1,"f482b7d",68,1
"7031",0,1,496,6,1,1,"f482b7d",69,1
"7131",1,1,571,1,1,1,"f482b7d",70,1
"2142",1,1,280,5,5,3,"1ea37ce",1,1
"3142",1,0,469,4,1,3,"1ea37ce",2,1
"4142",1,0,921,6,1,3,"1ea37ce",3,1
"5142",1,0,633,5,1,3,"1ea37ce",4,1
"6142",1,1,484,1,1,3,"1ea37ce",5,1
"742",1,1,295,6,6,3,"1ea37ce",6,1
"832",1,1,299,4,4,3,"1ea37ce",7,1
"932",1,1,306,5,5,3,"1ea37ce",8,1
"1032",1,1,282,6,6,3,"1ea37ce",9,1
"1132",1,1,417,4,4,3,"1ea37ce",10,1
"1232",1,0,521,1,4,3,"1ea37ce",11,1
"1332",1,0,605,1,5,3,"1ea37ce",12,1
"1432",1,0,322,1,6,3,"1ea37ce",13,1
"1532",1,1,485,1,1,3,"1ea37ce",14,1
"1632",1,1,561,1,1,3,"1ea37ce",15,1
"1732",1,0,358,1,4,3,"1ea37ce",16,1
"1832",1,1,431,4,4,3,"1ea37ce",17,1
"1932",1,0,212,5,1,3,"1ea37ce",18,1
"2032",1,1,417,5,5,3,"1ea37ce",19,1
"2143",1,1,251,6,6,3,"1ea37ce",20,1
"2234",1,0,724,6,1,3,"1ea37ce",21,1
"2332",1,1,242,4,4,3,"1ea37ce",22,1
"2432",1,0,716,1,6,3,"1ea37ce",23,1
"2532",1,0,932,1,4,3,"1ea37ce",24,1
"2632",1,1,410,6,6,3,"1ea37ce",25,1
"2732",1,1,514,1,1,3,"1ea37ce",26,1
"2832",1,0,273,5,1,3,"1ea37ce",27,1
"2932",1,1,278,5,5,3,"1ea37ce",28,1
"3032",1,0,464,1,5,3,"1ea37ce",29,1
"3143",1,0,232,6,1,3,"1ea37ce",30,1
"3234",1,1,326,1,1,3,"1ea37ce",31,1
"3332",1,0,1179,1,4,3,"1ea37ce",32,1
"3432",1,1,786,4,4,3,"1ea37ce",33,1
"3532",1,1,1891,6,6,3,"1ea37ce",34,1
"3632",1,1,678,5,5,3,"1ea37ce",35,1
"3732",1,1,426,6,6,3,"1ea37ce",36,1
"3832",1,0,643,5,1,3,"1ea37ce",37,1
"3932",1,1,673,4,4,3,"1ea37ce",38,1
"4032",1,0,612,4,1,3,"1ea37ce",39,1
"4143",1,0,675,6,1,3,"1ea37ce",40,1
"4234",1,1,286,5,5,3,"1ea37ce",41,1
"4332",1,1,541,1,1,3,"1ea37ce",42,1
"4432",1,0,1299,1,6,3,"1ea37ce",43,1
"4532",-1,-1,0,5,1,3,"1ea37ce",44,1
"4632",1,1,539,5,5,3,"1ea37ce",45,1
"4732",1,1,538,6,6,3,"1ea37ce",46,1
"4832",1,1,474,1,1,3,"1ea37ce",47,1
"4932",1,0,289,4,1,3,"1ea37ce",48,1
"5032",1,1,905,4,4,3,"1ea37ce",49,1
"5143",1,0,494,1,6,3,"1ea37ce",50,1
"5234",1,1,420,1,1,3,"1ea37ce",51,1
"5332",1,1,518,4,4,3,"1ea37ce",52,1
"5432",1,0,1337,1,5,3,"1ea37ce",53,1
"5532",1,1,745,5,5,3,"1ea37ce",54,1
"5632",1,1,1685,6,6,3,"1ea37ce",55,1
"5732",1,0,797,4,1,3,"1ea37ce",56,1
"5832",1,1,1683,6,6,3,"1ea37ce",57,1
"5932",1,0,751,1,5,3,"1ea37ce",58,1
"6032",1,1,367,4,4,3,"1ea37ce",59,1
"6143",1,1,2013,5,5,3,"1ea37ce",60,1
"6234",1,0,268,1,6,3,"1ea37ce",61,1
"6332",1,0,641,4,1,3,"1ea37ce",62,1
"6432",1,1,405,1,1,3,"1ea37ce",63,1
"6532",1,0,447,6,1,3,"1ea37ce",64,1
"6632",1,1,432,5,5,3,"1ea37ce",65,1
"6732",1,1,1282,1,1,3,"1ea37ce",66,1
"6832",1,1,826,4,4,3,"1ea37ce",67,1
"6932",1,0,311,1,4,3,"1ea37ce",68,1
"7032",1,0,464,1,5,3,"1ea37ce",69,1
"7132",1,1,616,6,6,3,"1ea37ce",70,1
"2144",0,1,659,1,6,2,"1c7ee79",1,1
"3144",0,1,479,5,1,2,"1c7ee79",2,1
"4144",1,1,302,6,6,2,"1c7ee79",3,1
"5144",1,1,390,4,4,2,"1c7ee79",4,1
"6144",0,1,178,1,4,2,"1c7ee79",5,1
"743",1,1,432,1,1,2,"1c7ee79",6,1
"833",1,1,345,5,5,2,"1c7ee79",7,1
"933",1,1,296,4,4,2,"1c7ee79",8,1
"1033",0,1,269,5,1,2,"1c7ee79",9,1
"1133",0,1,299,1,4,2,"1c7ee79",10,1
"1233",1,1,453,1,1,2,"1c7ee79",11,1
"1333",0,1,311,1,6,2,"1c7ee79",12,1
"1433",1,1,345,5,5,2,"1c7ee79",13,1
"1533",1,1,384,6,6,2,"1c7ee79",14,1
"1633",1,1,331,1,1,2,"1c7ee79",15,1
"1733",0,1,67,1,6,2,"1c7ee79",16,1
"1833",1,1,116,5,5,2,"1c7ee79",17,1
"1933",0,1,315,5,1,2,"1c7ee79",18,1
"2033",1,1,399,4,4,2,"1c7ee79",19,1
"2145",1,1,334,6,6,2,"1c7ee79",20,1
"2235",0,1,504,4,1,2,"1c7ee79",21,1
"2333",1,1,337,4,4,2,"1c7ee79",22,1
"2433",1,1,361,6,6,2,"1c7ee79",23,1
"2533",0,1,381,6,1,2,"1c7ee79",24,1
"2633",1,1,293,5,5,2,"1c7ee79",25,1
"2733",0,1,428,1,4,2,"1c7ee79",26,1
"2833",1,1,297,1,1,2,"1c7ee79",27,1
"2933",0,1,459,5,1,2,"1c7ee79",28,1
"3033",0,1,462,6,1,2,"1c7ee79",29,1
"3145",0,1,764,5,1,2,"1c7ee79",30,1
"3235",0,1,463,4,1,2,"1c7ee79",31,1
"3333",1,1,412,5,5,2,"1c7ee79",32,1
"3433",1,1,295,6,6,2,"1c7ee79",33,1
"3533",1,1,553,1,1,2,"1c7ee79",34,1
"3633",1,1,404,4,4,2,"1c7ee79",35,1
"3733",1,1,494,6,6,2,"1c7ee79",36,1
"3833",1,1,322,1,1,2,"1c7ee79",37,1
"3933",0,1,459,1,6,2,"1c7ee79",38,1
"4033",1,1,404,5,5,2,"1c7ee79",39,1
"4145",0,1,365,4,1,2,"1c7ee79",40,1
"4235",1,1,445,4,4,2,"1c7ee79",41,1
"4333",0,1,358,1,5,2,"1c7ee79",42,1
"4433",0,1,186,4,1,2,"1c7ee79",43,1
"4533",1,1,458,4,4,2,"1c7ee79",44,1
"4633",1,1,389,5,5,2,"1c7ee79",45,1
"4733",1,1,572,1,1,2,"1c7ee79",46,1
"4833",1,1,488,6,6,2,"1c7ee79",47,1
"4933",0,1,318,1,5,2,"1c7ee79",48,1
"5033",0,1,360,6,1,2,"1c7ee79",49,1
"5145",0,1,345,5,1,2,"1c7ee79",50,1
"5235",1,1,276,1,1,2,"1c7ee79",51,1
"5333",1,1,298,6,6,2,"1c7ee79",52,1
"5433",1,1,788,4,4,2,"1c7ee79",53,1
"5533",1,1,460,5,5,2,"1c7ee79",54,1
"5633",0,1,422,1,4,2,"1c7ee79",55,1
"5733",0,1,579,6,1,2,"1c7ee79",56,1
"5833",1,1,356,6,6,2,"1c7ee79",57,1
"5933",1,1,660,5,5,2,"1c7ee79",58,1
"6033",0,1,378,4,1,2,"1c7ee79",59,1
"6145",0,1,382,6,1,2,"1c7ee79",60,1
"6235",1,1,212,4,4,2,"1c7ee79",61,1
"6333",0,1,366,5,1,2,"1c7ee79",62,1
"6433",1,1,315,1,1,2,"1c7ee79",63,1
"6533",1,1,319,1,1,2,"1c7ee79",64,1
"6633",1,1,457,5,5,2,"1c7ee79",65,1
"6733",0,1,295,1,5,2,"1c7ee79",66,1
"6833",0,1,390,1,6,2,"1c7ee79",67,1
"6933",1,1,383,4,4,2,"1c7ee79",68,1
"7033",1,1,491,6,6,2,"1c7ee79",69,1
"7133",0,1,335,4,1,2,"1c7ee79",70,1
"2146",-1,-1,0,1,6,1,"1327f4e",1,1
"3146",-1,-1,0,1,4,1,"1327f4e",2,1
"4146",1,1,1192,5,5,1,"1327f4e",3,1
"5146",1,1,1244,6,6,1,"1327f4e",4,1
"6146",1,1,1354,4,4,1,"1327f4e",5,1
"744",0,1,457,5,1,1,"1327f4e",6,1
"834",1,1,486,1,1,1,"1327f4e",7,1
"934",0,1,483,1,6,1,"1327f4e",8,1
"1034",1,1,600,5,5,1,"1327f4e",9,1
"1134",1,1,534,4,4,1,"1327f4e",10,1
"1234",0,1,648,1,4,1,"1327f4e",11,1
"1334",1,1,546,1,1,1,"1327f4e",12,1
"1434",1,1,486,6,6,1,"1327f4e",13,1
"1534",0,1,453,1,5,1,"1327f4e",14,1
"1634",0,1,329,1,4,1,"1327f4e",15,1
"1734",1,1,741,6,6,1,"1327f4e",16,1
"1834",0,0,684,1,1,1,"1327f4e",17,1
"1934",1,1,706,4,4,1,"1327f4e",18,1
"2034",1,1,645,5,5,1,"1327f4e",19,1
"2147",0,1,852,1,6,1,"1327f4e",20,1
"2236",0,1,2003,5,1,1,"1327f4e",21,1
"2334",1,1,286,6,6,1,"1327f4e",22,1
"2434",1,1,407,1,1,1,"1327f4e",23,1
"2534",1,1,560,5,5,1,"1327f4e",24,1
"2634",0,0,1501,4,4,1,"1327f4e",25,1
"2734",1,0,515,4,1,1,"1327f4e",26,1
"2834",0,1,543,6,1,1,"1327f4e",27,1
"2934",0,1,678,1,5,1,"1327f4e",28,1
"3034",0,1,684,5,1,1,"1327f4e",29,1
"3147",0,1,699,4,1,1,"1327f4e",30,1
"3236",1,1,453,4,4,1,"1327f4e",31,1
"3334",0,1,554,6,1,1,"1327f4e",32,1
"3434",1,1,1214,6,6,1,"1327f4e",33,1
"3534",1,1,572,5,5,1,"1327f4e",34,1
"3634",1,1,714,1,1,1,"1327f4e",35,1
"3734",0,1,415,1,4,1,"1327f4e",36,1
"3834",1,1,635,4,4,1,"1327f4e",37,1
"3934",0,1,729,5,1,1,"1327f4e",38,1
"4034",1,1,652,6,6,1,"1327f4e",39,1
"4147",0,1,320,6,1,1,"1327f4e",40,1
"4236",1,1,337,5,5,1,"1327f4e",41,1
"4334",1,1,562,1,1,1,"1327f4e",42,1
"4434",0,1,639,1,4,1,"1327f4e",43,1
"4534",0,1,1012,5,1,1,"1327f4e",44,1
"4634",0,1,410,1,6,1,"1327f4e",45,1
"4734",1,1,509,1,1,1,"1327f4e",46,1
"4834",1,1,470,5,5,1,"1327f4e",47,1
"4934",1,1,425,4,4,1,"1327f4e",48,1
"5034",1,1,545,6,6,1,"1327f4e",49,1
"5147",0,1,343,1,4,1,"1327f4e",50,1
"5236",0,1,451,6,1,1,"1327f4e",51,1
"5334",1,1,388,1,1,1,"1327f4e",52,1
"5434",0,1,396,1,5,1,"1327f4e",53,1
"5534",1,1,498,4,4,1,"1327f4e",54,1
"5634",1,1,599,6,6,1,"1327f4e",55,1
"5734",1,1,765,5,5,1,"1327f4e",56,1
"5834",1,1,310,6,6,1,"1327f4e",57,1
"5934",0,0,1350,5,5,1,"1327f4e",58,1
"6034",1,0,931,4,1,1,"1327f4e",59,1
"6147",1,1,385,1,1,1,"1327f4e",60,1
"6236",0,1,726,1,5,1,"1327f4e",61,1
"6334",0,1,504,1,6,1,"1327f4e",62,1
"6434",1,1,601,4,4,1,"1327f4e",63,1
"6534",1,1,448,1,1,1,"1327f4e",64,1
"6634",1,1,611,4,4,1,"1327f4e",65,1
"6734",0,1,544,5,1,1,"1327f4e",66,1
"6834",0,1,463,1,6,1,"1327f4e",67,1
"6934",1,1,481,6,6,1,"1327f4e",68,1
"7034",0,1,358,1,4,1,"1327f4e",69,1
"7134",1,1,437,5,5,1,"1327f4e",70,1
"2148",1,0,653,6,1,2,"1d27748",1,1
"3148",1,1,495,5,5,2,"1d27748",2,1
"4148",1,1,299,1,1,2,"1d27748",3,1
"5148",1,1,266,4,4,2,"1d27748",4,1
"6148",1,0,383,5,1,2,"1d27748",5,1
"745",1,0,270,4,1,2,"1d27748",6,1
"835",1,1,274,6,6,2,"1d27748",7,1
"935",1,0,300,1,4,2,"1d27748",8,1
"1035",1,1,269,5,5,2,"1d27748",9,1
"1135",1,0,280,1,5,2,"1d27748",10,1
"1235",1,1,238,6,6,2,"1d27748",11,1
"1335",1,1,261,4,4,2,"1d27748",12,1
"1435",1,1,319,1,1,2,"1d27748",13,1
"1535",1,0,884,1,6,2,"1d27748",14,1
"1635",1,0,216,1,4,2,"1d27748",15,1
"1735",1,1,349,4,4,2,"1d27748",16,1
"1835",1,1,311,5,5,2,"1d27748",17,1
"1935",0,1,277,5,1,2,"1d27748",18,1
"2035",0,1,156,6,1,2,"1d27748",19,1
"2149",1,1,296,6,6,2,"1d27748",20,1
"2237",1,1,235,1,1,2,"1d27748",21,1
"2335",0,1,305,6,1,2,"1d27748",22,1
"2435",1,1,259,6,6,2,"1d27748",23,1
"2535",1,1,525,5,5,2,"1d27748",24,1
"2635",1,1,547,1,1,2,"1d27748",25,1
"2735",0,1,455,5,1,2,"1d27748",26,1
"2835",0,1,284,1,4,2,"1d27748",27,1
"2935",1,1,335,4,4,2,"1d27748",28,1
"3035",1,1,333,4,4,2,"1d27748",29,1
"3149",0,1,337,1,6,2,"1d27748",30,1
"3237",0,1,292,1,4,2,"1d27748",31,1
"3335",1,1,300,1,1,2,"1d27748",32,1
"3435",1,1,276,5,5,2,"1d27748",33,1
"3535",1,1,267,6,6,2,"1d27748",34,1
"3635",0,1,338,1,5,2,"1d27748",35,1
"3735",0,1,583,5,1,2,"1d27748",36,1
"3835",1,1,324,5,5,2,"1d27748",37,1
"3935",1,1,522,6,6,2,"1d27748",38,1
"4035",1,1,294,1,1,2,"1d27748",39,1
"4149",0,1,316,1,4,2,"1d27748",40,1
"4237",0,1,363,1,6,2,"1d27748",41,1
"4335",1,1,657,4,4,2,"1d27748",42,1
"4435",0,1,370,5,1,2,"1d27748",43,1
"4535",0,1,592,4,1,2,"1d27748",44,1
"4635",1,1,335,4,4,2,"1d27748",45,1
"4735",1,1,369,1,1,2,"1d27748",46,1
"4835",0,1,278,1,6,2,"1d27748",47,1
"4935",1,1,299,6,6,2,"1d27748",48,1
"5035",1,1,293,5,5,2,"1d27748",49,1
"5149",1,1,281,6,6,2,"1d27748",50,1
"5237",0,1,253,1,6,2,"1d27748",51,1
"5335",1,1,351,4,4,2,"1d27748",52,1
"5435",1,1,270,1,1,2,"1d27748",53,1
"5535",0,1,420,1,5,2,"1d27748",54,1
"5635",1,1,354,5,5,2,"1d27748",55,1
"5735",0,1,286,1,4,2,"1d27748",56,1
"5835",0,1,320,5,1,2,"1d27748",57,1
"5935",1,1,239,5,5,2,"1d27748",58,1
"6035",1,1,368,4,4,2,"1d27748",59,1
"6149",1,1,286,6,6,2,"1d27748",60,1
"6237",0,1,318,4,1,2,"1d27748",61,1
"6335",1,1,305,1,1,2,"1d27748",62,1
"6435",0,1,12,6,1,2,"1d27748",63,1
"6535",0,1,283,1,5,2,"1d27748",64,1
"6635",0,1,107,6,1,2,"1d27748",65,1
"6735",1,1,345,5,5,2,"1d27748",66,1
"6835",0,1,277,1,4,2,"1d27748",67,1
"6935",1,1,110,6,6,2,"1d27748",68,1
"7035",1,1,360,1,1,2,"1d27748",69,1
"7135",1,1,130,4,4,2,"1d27748",70,1
"2150",1,1,1536,1,1,3,"104869a",1,1
"3150",1,1,94,6,6,3,"104869a",2,1
"4150",-1,-1,0,1,5,3,"104869a",3,1
"5150",1,1,398,5,5,3,"104869a",4,1
"6150",0,1,646,6,1,3,"104869a",5,1
"746",1,0,1047,4,1,3,"104869a",6,1
"836",0,0,236,4,4,3,"104869a",7,1
"936",1,1,1055,5,5,3,"104869a",8,1
"1036",1,0,369,4,1,3,"104869a",9,1
"1136",-1,-1,0,4,4,3,"104869a",10,1
"1236",0,1,753,5,1,3,"104869a",11,1
"1336",1,0,610,1,6,3,"104869a",12,1
"1436",1,1,126,1,1,3,"104869a",13,1
"1536",0,0,233,6,6,3,"104869a",14,1
"1636",0,1,541,1,4,3,"104869a",15,1
"1736",1,1,265,6,6,3,"104869a",16,1
"1836",1,1,51,1,1,3,"104869a",17,1
"1936",0,1,1408,1,5,3,"104869a",18,1
"2036",-1,-1,0,4,4,3,"104869a",19,1
"2151",1,0,617,1,6,3,"104869a",20,1
"2238",1,1,329,5,5,3,"104869a",21,1
"2336",-1,-1,0,5,5,3,"104869a",22,1
"2436",0,1,615,6,1,3,"104869a",23,1
"2536",1,0,547,5,1,3,"104869a",24,1
"2636",1,1,204,1,1,3,"104869a",25,1
"2736",1,0,1583,1,4,3,"104869a",26,1
"2836",1,1,511,6,6,3,"104869a",27,1
"2936",1,1,794,4,4,3,"104869a",28,1
"3036",1,0,1443,1,5,3,"104869a",29,1
"3151",1,1,341,6,6,3,"104869a",30,1
"3238",1,0,1729,6,1,3,"104869a",31,1
"3336",1,1,521,4,4,3,"104869a",32,1
"3436",1,1,1529,5,5,3,"104869a",33,1
"3536",1,1,252,1,1,3,"104869a",34,1
"3636",0,1,73,1,4,3,"104869a",35,1
"3736",-1,-1,0,1,6,3,"104869a",36,1
"3836",-1,-1,0,5,5,3,"104869a",37,1
"3936",1,1,695,6,6,3,"104869a",38,1
"4036",-1,-1,0,4,4,3,"104869a",39,1
"4151",1,0,321,1,5,3,"104869a",40,1
"4238",1,0,599,1,4,3,"104869a",41,1
"4336",1,1,576,1,1,3,"104869a",42,1
"4436",0,1,956,6,1,3,"104869a",43,1
"4536",1,0,662,1,5,3,"104869a",44,1
"4636",-1,-1,0,5,5,3,"104869a",45,1
"4736",1,1,1300,1,1,3,"104869a",46,1
"4836",1,0,595,1,4,3,"104869a",47,1
"4936",-1,-1,0,6,6,3,"104869a",48,1
"5036",1,1,483,4,4,3,"104869a",49,1
"5151",1,1,1780,5,5,3,"104869a",50,1
"5238",1,1,462,6,6,3,"104869a",51,1
"5336",1,1,271,4,4,3,"104869a",52,1
"5436",0,1,246,1,6,3,"104869a",53,1
"5536",0,1,525,5,1,3,"104869a",54,1
"5636",1,1,1756,1,1,3,"104869a",55,1
"5736",1,0,850,4,1,3,"104869a",56,1
"5836",0,0,770,5,5,3,"104869a",57,1
"5936",1,1,1981,6,6,3,"104869a",58,1
"6036",1,1,655,4,4,3,"104869a",59,1
"6151",0,1,977,1,4,3,"104869a",60,1
"6238",0,1,506,6,1,3,"104869a",61,1
"6336",1,1,1858,1,1,3,"104869a",62,1
"6436",0,1,1188,5,1,3,"104869a",63,1
"6536",0,0,693,5,5,3,"104869a",64,1
"6636",1,1,463,1,1,3,"104869a",65,1
"6736",0,1,2001,6,1,3,"104869a",66,1
"6836",0,0,433,4,4,3,"104869a",67,1
"6936",0,1,513,5,1,3,"104869a",68,1
"7036",1,0,476,1,4,3,"104869a",69,1
"7136",1,1,293,6,6,3,"104869a",70,1
"2152",1,1,710,5,5,3,"1a36cb9",1,1
"3152",1,1,630,4,4,3,"1a36cb9",2,1
"4152",1,0,408,1,6,3,"1a36cb9",3,1
"5152",1,1,261,1,1,3,"1a36cb9",4,1
"6152",1,0,373,5,1,3,"1a36cb9",5,1
"747",1,1,501,6,6,3,"1a36cb9",6,1
"837",1,0,252,1,4,3,"1a36cb9",7,1
"937",0,1,332,1,6,3,"1a36cb9",8,1
"1037",1,1,263,4,4,3,"1a36cb9",9,1
"1137",1,1,307,6,6,3,"1a36cb9",10,1
"1237",1,1,189,5,5,3,"1a36cb9",11,1
"1337",0,1,431,1,4,3,"1a36cb9",12,1
"1437",1,0,287,1,5,3,"1a36cb9",13,1
"1537",1,1,227,1,1,3,"1a36cb9",14,1
"1637",1,0,198,1,6,3,"1a36cb9",15,1
"1737",1,0,102,1,4,3,"1a36cb9",16,1
"1837",1,0,276,1,5,3,"1a36cb9",17,1
"1937",1,1,193,6,6,3,"1a36cb9",18,1
"2037",0,0,393,5,5,3,"1a36cb9",19,1
"2153",0,0,227,1,1,3,"1a36cb9",20,1
"2239",1,1,248,4,4,3,"1a36cb9",21,1
"2337",1,1,586,6,6,3,"1a36cb9",22,1
"2437",0,1,294,5,1,3,"1a36cb9",23,1
"2537",1,1,173,5,5,3,"1a36cb9",24,1
"2637",1,1,273,1,1,3,"1a36cb9",25,1
"2737",1,0,278,1,6,3,"1a36cb9",26,1
"2837",1,1,260,4,4,3,"1a36cb9",27,1
"2937",0,1,205,1,4,3,"1a36cb9",28,1
"3037",1,0,804,4,1,3,"1a36cb9",29,1
"3153",1,0,154,1,5,3,"1a36cb9",30,1
"3239",1,0,595,1,6,3,"1a36cb9",31,1
"3337",1,1,623,4,4,3,"1a36cb9",32,1
"3437",0,0,215,1,1,3,"1a36cb9",33,1
"3537",1,1,577,5,5,3,"1a36cb9",34,1
"3637",0,0,283,6,6,3,"1a36cb9",35,1
"3737",1,1,264,5,5,3,"1a36cb9",36,1
"3837",1,1,33,4,4,3,"1a36cb9",37,1
"3937",1,0,215,6,1,3,"1a36cb9",38,1
"4037",1,0,584,1,5,3,"1a36cb9",39,1
"4153",0,1,156,1,4,3,"1a36cb9",40,1
"4239",0,0,363,1,1,3,"1a36cb9",41,1
"4337",1,1,218,6,6,3,"1a36cb9",42,1
"4437",0,1,225,6,1,3,"1a36cb9",43,1
"4537",1,1,198,5,5,3,"1a36cb9",44,1
"4637",1,1,536,4,4,3,"1a36cb9",45,1
"4737",1,1,171,6,6,3,"1a36cb9",46,1
"4837",0,1,486,5,1,3,"1a36cb9",47,1
"4937",0,1,292,1,4,3,"1a36cb9",48,1
"5037",1,1,95,1,1,3,"1a36cb9",49,1
"5153",1,1,327,1,1,3,"1a36cb9",50,1
"5239",1,0,238,6,1,3,"1a36cb9",51,1
"5337",0,1,268,5,1,3,"1a36cb9",52,1
"5437",1,1,524,5,5,3,"1a36cb9",53,1
"5537",1,1,288,4,4,3,"1a36cb9",54,1
"5637",1,1,542,6,6,3,"1a36cb9",55,1
"5737",1,0,258,4,1,3,"1a36cb9",56,1
"5837",1,1,20,4,4,3,"1a36cb9",57,1
"5937",0,1,227,5,1,3,"1a36cb9",58,1
"6037",0,1,480,1,6,3,"1a36cb9",59,1
"6153",1,1,294,6,6,3,"1a36cb9",60,1
"6239",0,0,337,1,1,3,"1a36cb9",61,1
"6337",1,1,382,5,5,3,"1a36cb9",62,1
"6437",1,0,259,4,1,3,"1a36cb9",63,1
"6537",1,1,241,6,6,3,"1a36cb9",64,1
"6637",0,0,180,4,4,3,"1a36cb9",65,1
"6737",1,0,330,4,1,3,"1a36cb9",66,1
"6837",1,1,261,1,1,3,"1a36cb9",67,1
"6937",1,0,206,1,5,3,"1a36cb9",68,1
"7037",1,0,69,1,6,3,"1a36cb9",69,1
"7137",1,1,385,5,5,3,"1a36cb9",70,1
"2154",1,1,552,5,5,1,"11d1ccc",1,1
"3154",1,1,558,1,1,1,"11d1ccc",2,1
"4154",1,1,375,6,6,1,"11d1ccc",3,1
"5154",0,0,385,4,4,1,"11d1ccc",4,1
"6154",0,1,316,1,4,1,"11d1ccc",5,1
"748",0,1,253,1,5,1,"11d1ccc",6,1
"838",0,1,349,6,1,1,"11d1ccc",7,1
"938",1,1,392,1,1,1,"11d1ccc",8,1
"1038",1,1,411,6,6,1,"11d1ccc",9,1
"1138",0,1,842,1,4,1,"11d1ccc",10,1
"1238",0,1,339,6,1,1,"11d1ccc",11,1
"1338",1,1,270,4,4,1,"11d1ccc",12,1
"1438",0,1,317,5,1,1,"11d1ccc",13,1
"1538",0,0,1466,5,5,1,"11d1ccc",14,1
"1638",0,1,678,1,4,1,"11d1ccc",15,1
"1738",1,1,344,1,1,1,"11d1ccc",16,1
"1838",1,1,351,4,4,1,"11d1ccc",17,1
"1938",0,1,333,5,1,1,"11d1ccc",18,1
"2038",1,1,625,6,6,1,"11d1ccc",19,1
"2155",0,1,243,1,6,1,"11d1ccc",20,1
"2240",1,1,279,5,5,1,"11d1ccc",21,1
"2338",1,1,429,4,4,1,"11d1ccc",22,1
"2438",0,1,270,1,5,1,"11d1ccc",23,1
"2538",1,1,469,1,1,1,"11d1ccc",24,1
"2638",0,1,281,6,1,1,"11d1ccc",25,1
"2738",1,1,310,5,5,1,"11d1ccc",26,1
"2838",0,1,323,1,4,1,"11d1ccc",27,1
"2938",1,1,864,6,6,1,"11d1ccc",28,1
"3038",0,1,282,1,5,1,"11d1ccc",29,1
"3155",1,1,254,1,1,1,"11d1ccc",30,1
"3240",1,1,431,6,6,1,"11d1ccc",31,1
"3338",1,1,273,5,5,1,"11d1ccc",32,1
"3438",1,1,413,4,4,1,"11d1ccc",33,1
"3538",0,1,303,1,4,1,"11d1ccc",34,1
"3638",0,1,1711,6,1,1,"11d1ccc",35,1
"3738",0,1,359,6,1,1,"11d1ccc",36,1
"3838",1,1,211,6,6,1,"11d1ccc",37,1
"3938",1,1,154,5,5,1,"11d1ccc",38,1
"4038",0,1,283,1,4,1,"11d1ccc",39,1
"4155",1,1,208,1,1,1,"11d1ccc",40,1
"4240",0,1,139,1,5,1,"11d1ccc",41,1
"4338",1,1,236,4,4,1,"11d1ccc",42,1
"4438",1,1,1362,1,1,1,"11d1ccc",43,1
"4538",1,1,253,5,5,1,"11d1ccc",44,1
"4638",1,1,247,6,6,1,"11d1ccc",45,1
"4738",0,1,266,1,5,1,"11d1ccc",46,1
"4838",1,1,302,4,4,1,"11d1ccc",47,1
"4938",0,1,474,1,4,1,"11d1ccc",48,1
"5038",0,1,246,1,6,1,"11d1ccc",49,1
"5155",0,0,307,1,1,1,"11d1ccc",50,1
"5240",1,0,345,1,4,1,"11d1ccc",51,1
"5338",1,1,508,6,6,1,"11d1ccc",52,1
"5438",0,1,130,6,1,1,"11d1ccc",53,1
"5538",1,1,951,5,5,1,"11d1ccc",54,1
"5638",0,1,200,1,5,1,"11d1ccc",55,1
"5738",1,1,219,4,4,1,"11d1ccc",56,1
"5838",1,1,246,1,1,1,"11d1ccc",57,1
"5938",0,1,346,1,6,1,"11d1ccc",58,1
"6038",1,1,55,4,4,1,"11d1ccc",59,1
"6155",0,1,304,1,4,1,"11d1ccc",60,1
"6240",1,1,320,6,6,1,"11d1ccc",61,1
"6338",1,1,203,5,5,1,"11d1ccc",62,1
"6438",0,1,277,1,5,1,"11d1ccc",63,1
"6538",0,1,190,1,5,1,"11d1ccc",64,1
"6638",1,1,175,6,6,1,"11d1ccc",65,1
"6738",1,1,242,1,1,1,"11d1ccc",66,1
"6838",0,1,361,6,1,1,"11d1ccc",67,1
"6938",1,1,1019,5,5,1,"11d1ccc",68,1
"7038",1,1,372,4,4,1,"11d1ccc",69,1
"7138",0,1,394,1,4,1,"11d1ccc",70,1
"2156",1,0,973,6,1,1,"11d8b6b",1,1
"3156",1,0,475,1,4,1,"11d8b6b",2,1
"4156",0,0,406,6,6,1,"11d8b6b",3,1
"5156",1,0,381,5,1,1,"11d8b6b",4,1
"6156",1,1,498,1,1,1,"11d8b6b",5,1
"749",1,1,421,4,4,1,"11d8b6b",6,1
"839",1,1,742,5,5,1,"11d8b6b",7,1
"939",0,1,340,4,1,1,"11d8b6b",8,1
"1039",1,1,547,1,1,1,"11d8b6b",9,1
"1139",1,1,352,6,6,1,"11d8b6b",10,1
"1239",1,0,652,5,1,1,"11d8b6b",11,1
"1339",0,0,342,4,4,1,"11d8b6b",12,1
"1439",1,0,615,1,6,1,"11d8b6b",13,1
"1539",0,0,395,5,5,1,"11d8b6b",14,1
"1639",1,1,433,5,5,1,"11d8b6b",15,1
"1739",0,0,592,1,1,1,"11d8b6b",16,1
"1839",1,1,541,6,6,1,"11d8b6b",17,1
"1939",0,1,542,6,1,1,"11d8b6b",18,1
"2039",0,1,311,5,1,1,"11d8b6b",19,1
"2157",1,1,335,4,4,1,"11d8b6b",20,1
"2241",0,1,313,1,4,1,"11d8b6b",21,1
"2339",1,1,364,5,5,1,"11d8b6b",22,1
"2439",1,1,424,1,1,1,"11d8b6b",23,1
"2539",0,1,463,1,4,1,"11d8b6b",24,1
"2639",0,1,305,6,1,1,"11d8b6b",25,1
"2739",1,1,445,6,6,1,"11d8b6b",26,1
"2839",0,1,379,1,5,1,"11d8b6b",27,1
"2939",1,1,432,4,4,1,"11d8b6b",28,1
"3039",0,1,411,1,6,1,"11d8b6b",29,1
"3157",0,0,533,1,1,1,"11d8b6b",30,1
"3241",1,1,459,6,6,1,"11d8b6b",31,1
"3339",0,1,360,4,1,1,"11d8b6b",32,1
"3439",1,1,471,5,5,1,"11d8b6b",33,1
"3539",1,1,377,4,4,1,"11d8b6b",34,1
"3639",0,1,410,5,1,1,"11d8b6b",35,1
"3739",1,1,372,1,1,1,"11d8b6b",36,1
"3839",1,1,318,4,4,1,"11d8b6b",37,1
"3939",0,1,421,5,1,1,"11d8b6b",38,1
"4039",0,1,711,4,1,1,"11d8b6b",39,1
"4157",1,1,419,5,5,1,"11d8b6b",40,1
"4241",0,1,330,6,1,1,"11d8b6b",41,1
"4339",1,1,473,6,6,1,"11d8b6b",42,1
"4439",0,0,465,1,1,1,"11d8b6b",43,1
"4539",1,1,299,4,4,1,"11d8b6b",44,1
"4639",0,1,322,1,6,1,"11d8b6b",45,1
"4739",0,1,426,4,1,1,"11d8b6b",46,1
"4839",0,1,308,5,1,1,"11d8b6b",47,1
"4939",1,1,344,6,6,1,"11d8b6b",48,1
"5039",1,1,425,5,5,1,"11d8b6b",49,1
"5157",1,1,339,4,4,1,"11d8b6b",50,1
"5241",1,1,411,6,6,1,"11d8b6b",51,1
"5339",1,1,558,1,1,1,"11d8b6b",52,1
"5439",0,1,1133,4,1,1,"11d8b6b",53,1
"5539",0,1,463,1,6,1,"11d8b6b",54,1
"5639",1,1,369,5,5,1,"11d8b6b",55,1
"5739",0,1,324,1,5,1,"11d8b6b",56,1
"5839",1,1,296,1,1,1,"11d8b6b",57,1
"5939",0,1,466,6,1,1,"11d8b6b",58,1
"6039",0,1,340,1,4,1,"11d8b6b",59,1
"6157",1,1,287,4,4,1,"11d8b6b",60,1
"6241",0,1,214,5,1,1,"11d8b6b",61,1
"6339",1,1,244,5,5,1,"11d8b6b",62,1
"6439",1,1,397,6,6,1,"11d8b6b",63,1
"6539",1,1,436,4,4,1,"11d8b6b",64,1
"6639",0,1,541,5,1,1,"11d8b6b",65,1
"6739",1,1,674,6,6,1,"11d8b6b",66,1
"6839",1,1,468,1,1,1,"11d8b6b",67,1
"6939",0,1,276,4,1,1,"11d8b6b",68,1
"7039",1,1,706,5,5,1,"11d8b6b",69,1
"7139",0,1,280,6,1,1,"11d8b6b",70,1
"2158",1,1,319,1,1,3,"10a57b8",1,2
"3158",1,1,241,2,2,3,"10a57b8",2,2
"4158",1,1,346,3,3,3,"10a57b8",3,2
"5158",0,1,310,3,1,3,"10a57b8",4,2
"6158",1,1,228,4,4,3,"10a57b8",5,2
"750",0,1,380,1,4,3,"10a57b8",6,2
"840",1,0,124,2,1,3,"10a57b8",7,2
"940",1,1,221,2,2,3,"10a57b8",8,2
"1040",1,0,263,2,1,3,"10a57b8",9,2
"1140",1,1,151,1,1,3,"10a57b8",10,2
"1240",0,1,268,4,1,3,"10a57b8",11,2
"1340",1,1,185,4,4,3,"10a57b8",12,2
"1440",0,1,331,1,3,3,"10a57b8",13,2
"1540",1,1,219,3,3,3,"10a57b8",14,2
"1640",1,1,282,1,1,3,"10a57b8",15,2
"1740",1,1,466,4,4,3,"10a57b8",16,2
"1840",0,1,219,1,3,3,"10a57b8",17,2
"1940",0,1,323,2,1,3,"10a57b8",18,2
"2040",1,1,737,2,2,3,"10a57b8",19,2
"2159",0,1,139,4,1,3,"10a57b8",20,2
"2242",1,1,94,3,3,3,"10a57b8",21,2
