"","keys","accuracy","rt","Fimg","Simg","subID","trialNum","run"
"2",1,0,1781,19,7,"sub01",1,1
"3",0,1,971,13,21,"sub01",2,1
"4",1,0,758,20,17,"sub01",3,1
"5",1,0,573,18,10,"sub01",4,1
"6",0,1,418,17,6,"sub01",5,1
"7",1,0,389,1,17,"sub01",6,1
"8",0,1,389,1,6,"sub01",7,1
"9",0,1,460,20,5,"sub01",8,1
"10",1,0,539,17,14,"sub01",9,1
"11",1,0,432,14,12,"sub01",10,1
"12",0,1,486,17,12,"sub01",11,1
"13",0,1,421,6,8,"sub01",12,1
"14",0,1,382,19,14,"sub01",13,1
"15",0,1,435,4,10,"sub01",14,1
"16",1,0,588,15,19,"sub01",15,1
"17",0,1,432,1,14,"sub01",16,1
"18",0,1,541,20,11,"sub01",17,1
"19",0,1,400,13,11,"sub01",18,1
"20",0,1,457,20,2,"sub01",19,1
"21",0,1,362,3,5,"sub01",20,1
"22",0,1,382,13,12,"sub01",21,1
"23",0,1,389,9,7,"sub01",22,1
"24",0,1,378,3,17,"sub01",23,1
"25",0,1,391,5,11,"sub01",24,1
"26",0,1,281,10,16,"sub01",25,1
"27",0,1,322,17,5,"sub01",26,1
"28",0,1,307,15,21,"sub01",27,1
"29",0,1,379,6,21,"sub01",28,1
"30",0,1,415,11,12,"sub01",29,1
"31",0,1,314,9,18,"sub01",30,1
"32",0,1,338,6,4,"sub01",31,1
"33",0,1,467,3,7,"sub01",32,1
"34",0,0,505,12,12,"sub01",33,1
"35",1,1,392,1,1,"sub01",34,1
"36",0,1,358,7,18,"sub01",35,1
"37",0,1,398,9,4,"sub01",36,1
"38",0,1,446,7,21,"sub01",37,1
"39",0,1,561,7,17,"sub01",38,1
"40",0,1,393,3,16,"sub01",39,1
"41",1,1,342,3,3,"sub01",40,1
"42",0,1,397,3,9,"sub01",41,1
"43",1,0,282,10,14,"sub01",42,1
"44",1,0,404,20,16,"sub01",43,1
"45",1,0,273,1,16,"sub01",44,1
"46",0,1,267,11,8,"sub01",45,1
"47",0,1,366,1,19,"sub01",46,1
"48",0,1,291,2,7,"sub01",47,1
"49",0,1,300,2,4,"sub01",48,1
"50",0,1,390,3,11,"sub01",49,1
"51",0,1,351,12,9,"sub01",50,1
"52",0,1,327,4,7,"sub01",51,1
"53",0,1,494,6,18,"sub01",52,1
"54",0,1,461,19,13,"sub01",53,1
"55",0,1,330,6,9,"sub01",54,1
"56",0,1,318,3,12,"sub01",55,1
"57",0,1,906,1,12,"sub01",56,1
"58",0,1,304,11,15,"sub01",57,1
"59",0,1,482,17,13,"sub01",58,1
"60",0,1,342,5,10,"sub01",59,1
"61",0,1,282,18,20,"sub01",60,1
"62",1,0,334,2,17,"sub01",61,1
"63",0,1,334,18,2,"sub01",62,1
"64",0,1,245,3,13,"sub01",63,1
"65",0,1,1038,20,7,"sub01",64,1
"66",1,1,2480,9,9,"sub01",65,1
"67",1,0,1003,5,2,"sub01",66,1
"68",0,1,290,11,1,"sub01",67,1
"69",0,1,453,14,21,"sub01",68,1
"70",1,0,369,9,1,"sub01",69,1
"71",0,1,382,15,14,"sub01",70,1
"72",0,1,548,12,10,"sub01",71,1
"73",0,1,314,5,19,"sub01",72,1
"74",0,1,299,8,15,"sub01",73,1
"75",1,1,289,11,11,"sub01",74,1
"76",0,1,445,19,8,"sub01",75,1
"77",0,1,372,16,6,"sub01",76,1
"78",0,1,385,13,18,"sub01",77,1
"210",1,0,869,17,4,"sub04",1,1
"310",0,1,424,10,21,"sub04",2,1
"410",0,1,469,15,2,"sub04",3,1
"510",1,0,285,18,19,"sub04",4,1
"610",1,0,500,9,12,"sub04",5,1
"79",0,1,397,19,4,"sub04",6,1
"81",0,1,621,16,21,"sub04",7,1
"91",1,0,298,2,18,"sub04",8,1
"101",1,0,408,18,12,"sub04",9,1
"111",1,0,344,10,14,"sub04",10,1
"121",0,1,285,14,4,"sub04",11,1
"131",1,1,324,2,2,"sub04",12,1
"141",1,0,319,10,15,"sub04",13,1
"151",1,0,309,1,3,"sub04",14,1
"161",0,1,397,20,14,"sub04",15,1
"171",1,0,260,15,1,"sub04",16,1
"181",1,0,339,18,10,"sub04",17,1
"191",1,0,503,18,16,"sub04",18,1
"201",1,0,315,15,18,"sub04",19,1
"211",1,0,391,2,10,"sub04",20,1
"221",0,1,323,6,21,"sub04",21,1
"231",0,1,535,7,21,"sub04",22,1
"241",1,0,339,20,3,"sub04",23,1
"251",0,1,252,12,4,"sub04",24,1
"261",0,1,396,20,11,"sub04",25,1
"271",1,0,280,10,13,"sub04",26,1
"281",0,1,402,18,11,"sub04",27,1
"291",1,0,256,19,16,"sub04",28,1
"301",0,1,269,19,17,"sub04",29,1
"311",0,1,378,13,16,"sub04",30,1
"321",0,1,360,20,6,"sub04",31,1
"331",0,1,244,21,17,"sub04",32,1
"341",0,1,275,21,14,"sub04",33,1
"351",1,0,274,12,8,"sub04",34,1
"361",1,0,359,8,10,"sub04",35,1
"371",1,0,461,14,1,"sub04",36,1
"381",0,1,268,10,12,"sub04",37,1
"391",0,1,278,9,10,"sub04",38,1
"401",1,0,211,17,6,"sub04",39,1
"411",0,1,272,6,15,"sub04",40,1
"421",1,1,297,15,15,"sub04",41,1
"431",0,1,284,21,8,"sub04",42,1
"441",1,1,321,19,19,"sub04",43,1
"451",0,1,370,1,4,"sub04",44,1
"461",0,1,327,16,11,"sub04",45,1
"471",0,1,367,5,17,"sub04",46,1
"481",0,1,252,15,17,"sub04",47,1
"491",0,1,350,4,8,"sub04",48,1
"501",1,1,206,10,10,"sub04",49,1
"511",0,0,259,6,6,"sub04",50,1
"521",0,1,318,19,3,"sub04",51,1
"531",0,1,334,6,1,"sub04",52,1
"541",0,1,356,3,11,"sub04",53,1
"551",1,0,429,17,8,"sub04",54,1
"561",0,1,287,3,10,"sub04",55,1
"571",1,0,263,11,9,"sub04",56,1
"581",0,1,268,21,15,"sub04",57,1
"591",0,1,301,8,15,"sub04",58,1
"601",0,1,331,11,5,"sub04",59,1
"611",0,1,1022,15,13,"sub04",60,1
"621",0,1,307,12,21,"sub04",61,1
"631",0,1,307,17,7,"sub04",62,1
"641",0,1,323,11,17,"sub04",63,1
"651",1,0,305,18,8,"sub04",64,1
"661",1,0,83,9,4,"sub04",65,1
"671",1,0,289,8,9,"sub04",66,1
"681",0,1,263,5,15,"sub04",67,1
"691",1,1,279,18,18,"sub04",68,1
"701",1,1,227,4,4,"sub04",69,1
"711",1,0,325,8,16,"sub04",70,1
"721",1,1,290,14,14,"sub04",71,1
"731",0,1,273,7,11,"sub04",72,1
"741",0,1,346,1,9,"sub04",73,1
"751",1,0,444,14,6,"sub04",74,1
"761",0,1,727,20,7,"sub04",75,1
"771",0,1,401,12,3,"sub04",76,1
"781",0,1,375,19,7,"sub04",77,1
"212",0,1,1127,19,7,"sub03",1,1
"312",1,0,482,2,6,"sub03",2,1
"412",0,1,250,2,5,"sub03",3,1
"512",0,1,356,4,16,"sub03",4,1
"612",1,0,356,4,3,"sub03",5,1
"710",0,1,630,12,2,"sub03",6,1
"82",0,1,284,3,5,"sub03",7,1
"92",0,1,304,14,15,"sub03",8,1
"102",0,0,256,7,7,"sub03",9,1
"112",0,1,96,15,1,"sub03",10,1
"122",1,0,227,16,9,"sub03",11,1
"132",1,0,108,1,2,"sub03",12,1
"142",0,1,48,17,18,"sub03",13,1
"152",0,1,282,21,4,"sub03",14,1
"162",0,1,330,3,18,"sub03",15,1
"172",0,1,274,21,6,"sub03",16,1
"182",0,1,232,18,5,"sub03",17,1
"192",0,1,295,11,4,"sub03",18,1
"202",0,1,233,17,6,"sub03",19,1
"213",0,1,177,19,12,"sub03",20,1
"222",0,1,249,4,7,"sub03",21,1
"232",0,1,175,15,13,"sub03",22,1
"242",0,1,214,15,20,"sub03",23,1
"252",0,1,249,9,1,"sub03",24,1
"262",0,1,97,4,9,"sub03",25,1
"272",0,1,248,9,18,"sub03",26,1
"282",0,1,214,17,19,"sub03",27,1
"292",0,1,242,18,15,"sub03",28,1
"302",0,1,194,15,2,"sub03",29,1
"313",0,1,215,8,14,"sub03",30,1
"322",0,0,147,10,10,"sub03",31,1
"332",0,1,222,10,3,"sub03",32,1
"342",0,1,142,8,12,"sub03",33,1
"352",0,0,260,15,15,"sub03",34,1
"362",0,1,259,6,1,"sub03",35,1
"372",0,1,178,8,1,"sub03",36,1
"382",0,1,261,15,12,"sub03",37,1
"392",0,1,234,9,14,"sub03",38,1
"402",0,1,291,9,12,"sub03",39,1
"413",0,1,189,11,1,"sub03",40,1
"422",0,1,244,17,5,"sub03",41,1
"432",0,1,443,1,7,"sub03",42,1
"442",0,1,311,17,11,"sub03",43,1
"452",0,0,155,1,1,"sub03",44,1
"462",0,1,132,16,5,"sub03",45,1
"472",0,1,193,16,12,"sub03",46,1
"482",0,1,274,21,3,"sub03",47,1
"492",1,0,32,21,19,"sub03",48,1
"502",0,1,180,1,17,"sub03",49,1
"513",0,1,605,10,15,"sub03",50,1
"522",0,1,230,4,2,"sub03",51,1
"532",0,1,248,6,15,"sub03",52,1
"542",0,1,250,20,2,"sub03",53,1
"552",0,1,111,5,13,"sub03",54,1
"562",0,1,191,5,1,"sub03",55,1
"572",0,1,126,16,21,"sub03",56,1
"582",0,1,256,1,12,"sub03",57,1
"592",0,1,262,20,8,"sub03",58,1
"602",0,1,215,10,13,"sub03",59,1
"613",0,1,439,20,7,"sub03",60,1
"622",1,0,36,16,1,"sub03",61,1
"632",0,1,156,16,10,"sub03",62,1
"642",0,1,48,5,6,"sub03",63,1
"652",0,1,203,21,8,"sub03",64,1
"662",0,1,113,18,13,"sub03",65,1
"672",0,1,0,5,15,"sub03",66,1
"682",0,1,279,6,3,"sub03",67,1
"692",0,1,55,16,15,"sub03",68,1
"702",0,1,105,3,19,"sub03",69,1
"712",0,1,92,1,20,"sub03",70,1
"722",0,1,261,5,21,"sub03",71,1
"732",1,1,180,13,13,"sub03",72,1
"742",0,1,222,16,8,"sub03",73,1
"752",0,1,378,2,14,"sub03",74,1
"762",0,0,73,21,21,"sub03",75,1
"772",0,1,215,11,19,"sub03",76,1
"782",0,0,42,17,17,"sub03",77,1
"214",1,0,983,2,21,"sub02",1,1
"314",1,0,1161,14,10,"sub02",2,1
"414",1,0,950,14,1,"sub02",3,1
"514",0,1,1046,7,11,"sub02",4,1
"614",1,0,2068,18,20,"sub02",5,1
"713",0,1,459,15,21,"sub02",6,1
"83",0,1,373,11,20,"sub02",7,1
"93",0,1,353,15,11,"sub02",8,1
"103",0,1,426,12,20,"sub02",9,1
"113",1,0,378,3,12,"sub02",10,1
"123",0,1,352,1,4,"sub02",11,1
"133",0,1,298,2,12,"sub02",12,1
"143",0,1,410,17,4,"sub02",13,1
"153",0,1,1677,19,20,"sub02",14,1
"163",0,1,831,3,14,"sub02",15,1
"173",0,0,451,18,18,"sub02",16,1
"183",0,1,387,13,17,"sub02",17,1
"193",0,1,599,19,13,"sub02",18,1
"203",0,1,591,11,19,"sub02",19,1
"215",0,1,504,21,5,"sub02",20,1
"223",0,1,433,17,7,"sub02",21,1
"233",0,1,583,21,16,"sub02",22,1
"243",0,0,602,20,20,"sub02",23,1
"253",0,1,735,14,13,"sub02",24,1
"263",0,1,144,17,2,"sub02",25,1
"273",0,1,475,21,4,"sub02",26,1
"283",0,1,533,16,17,"sub02",27,1
"293",0,1,374,11,10,"sub02",28,1
"303",0,1,316,10,7,"sub02",29,1
"315",0,0,288,11,11,"sub02",30,1
"323",0,0,604,14,14,"sub02",31,1
"333",1,0,760,20,7,"sub02",32,1
"343",0,1,692,2,20,"sub02",33,1
"353",0,1,2328,1,19,"sub02",34,1
"363",0,1,698,4,2,"sub02",35,1
"373",0,1,603,4,14,"sub02",36,1
"383",1,0,500,12,13,"sub02",37,1
"393",0,1,436,13,20,"sub02",38,1
"403",0,1,684,2,8,"sub02",39,1
"415",0,1,591,7,6,"sub02",40,1
"423",0,1,659,17,10,"sub02",41,1
"433",1,0,559,19,2,"sub02",42,1
"443",-1,-1,0,9,8,"sub02",43,1
"453",0,1,376,15,3,"sub02",44,1
"463",0,1,668,6,10,"sub02",45,1
"473",0,1,685,17,5,"sub02",46,1
"483",0,1,1377,10,15,"sub02",47,1
"493",0,1,445,8,19,"sub02",48,1
"503",1,1,1364,4,4,"sub02",49,1
"515",1,0,575,14,18,"sub02",50,1
"523",0,1,574,12,5,"sub02",51,1
"533",1,0,345,1,16,"sub02",52,1
"543",0,1,674,21,9,"sub02",53,1
"553",0,1,362,15,18,"sub02",54,1
"563",0,1,753,19,7,"sub02",55,1
"573",0,1,406,10,12,"sub02",56,1
"583",0,1,807,9,13,"sub02",57,1
"593",0,1,839,18,12,"sub02",58,1
"603",0,1,342,15,4,"sub02",59,1
"615",0,1,385,17,15,"sub02",60,1
"623",0,1,389,1,8,"sub02",61,1
"633",0,1,734,4,3,"sub02",62,1
"643",0,1,734,1,15,"sub02",63,1
"653",0,1,507,6,19,"sub02",64,1
"663",0,1,530,9,17,"sub02",65,1
"673",0,1,362,21,8,"sub02",66,1
"683",0,1,315,16,4,"sub02",67,1
"693",0,1,636,15,16,"sub02",68,1
"703",0,1,370,7,12,"sub02",69,1
"714",0,0,554,8,8,"sub02",70,1
"723",1,0,496,6,16,"sub02",71,1
"733",0,1,560,8,18,"sub02",72,1
"743",0,1,121,20,3,"sub02",73,1
"753",0,1,275,1,21,"sub02",74,1
"763",1,0,118,9,1,"sub02",75,1
"773",0,1,19,19,16,"sub02",76,1
"783",0,1,551,18,13,"sub02",77,1
"216",0,0,515,2,2,"sub01",1,2
"316",0,1,403,16,9,"sub01",2,2
"416",1,1,576,8,8,"sub01",3,2
"516",0,1,344,4,21,"sub01",4,2
"616",0,1,470,13,1,"sub01",5,2
"715",0,1,314,17,21,"sub01",6,2
"84",0,1,562,20,15,"sub01",7,2
"94",0,1,354,10,11,"sub01",8,2
"104",0,1,629,14,6,"sub01",9,2
"114",1,0,314,10,9,"sub01",10,2
"124",0,1,674,6,5,"sub01",11,2
"134",1,1,312,18,18,"sub01",12,2
"144",0,1,363,18,4,"sub01",13,2
"154",0,0,519,7,7,"sub01",14,2
"164",0,1,496,4,20,"sub01",15,2
"174",0,1,387,14,3,"sub01",16,2
"184",0,1,451,6,2,"sub01",17,2
"194",0,0,299,5,5,"sub01",18,2
"204",1,1,355,17,17,"sub01",19,2
"217",0,1,320,15,5,"sub01",20,2
"224",0,1,304,15,10,"sub01",21,2
"234",1,1,733,15,15,"sub01",22,2
"244",0,1,316,20,9,"sub01",23,2
"254",0,1,772,12,5,"sub01",24,2
"264",1,0,342,16,19,"sub01",25,2
"274",1,0,352,5,18,"sub01",26,2
"284",0,1,293,17,15,"sub01",27,2
"294",0,1,386,7,14,"sub01",28,2
"304",0,1,377,20,10,"sub01",29,2
"317",1,0,317,16,17,"sub01",30,2
"324",0,1,906,19,6,"sub01",31,2
"334",0,1,428,7,16,"sub01",32,2
"344",1,0,307,19,20,"sub01",33,2
"354",0,1,509,5,7,"sub01",34,2
"364",0,1,392,12,16,"sub01",35,2
"374",1,1,284,20,20,"sub01",36,2
"384",0,1,856,19,21,"sub01",37,2
"394",0,1,314,21,3,"sub01",38,2
"404",0,1,300,20,12,"sub01",39,2
"417",0,1,328,12,21,"sub01",40,2
"424",0,1,1677,21,18,"sub01",41,2
"434",0,1,2094,18,14,"sub01",42,2
"444",0,1,2125,6,7,"sub01",43,2
"454",0,1,1907,8,1,"sub01",44,2
"464",0,1,2479,5,9,"sub01",45,2
"474",1,1,2492,21,21,"sub01",46,2
"484",0,1,2483,2,13,"sub01",47,2
"494",0,1,476,14,16,"sub01",48,2
"504",0,1,465,20,3,"sub01",49,2
"517",0,1,359,9,19,"sub01",50,2
"524",1,1,902,14,14,"sub01",51,2
"534",-1,-1,0,15,9,"sub01",52,2
"544",0,1,318,13,20,"sub01",53,2
"554",0,1,467,11,6,"sub01",54,2
"564",0,1,583,10,2,"sub01",55,2
"574",0,1,379,18,19,"sub01",56,2
"584",0,1,444,12,4,"sub01",57,2
"594",1,1,298,4,4,"sub01",58,2
"604",0,1,339,17,4,"sub01",59,2
"617",1,1,914,16,16,"sub01",60,2
"624",1,1,240,10,10,"sub01",61,2
"634",0,1,497,14,20,"sub01",62,2
"644",0,1,243,1,4,"sub01",63,2
"654",0,1,464,15,12,"sub01",64,2
"664",0,1,206,11,19,"sub01",65,2
"674",0,1,333,16,11,"sub01",66,2
"684",0,1,514,12,2,"sub01",67,2
"694",0,1,353,14,11,"sub01",68,2
"704",0,1,2486,16,2,"sub01",69,2
"716",0,1,2496,21,2,"sub01",70,2
"724",0,1,516,12,7,"sub01",71,2
"734",0,1,2293,4,8,"sub01",72,2
"744",0,1,417,8,12,"sub01",73,2
"754",0,1,392,16,4,"sub01",74,2
"764",0,1,508,8,10,"sub01",75,2
"774",1,1,293,6,6,"sub01",76,2
"784",0,1,751,8,5,"sub01",77,2
"218",1,1,298,12,12,"sub04",1,2
"318",0,1,505,19,12,"sub04",2,2
"418",0,1,274,9,3,"sub04",3,2
"518",0,1,297,7,16,"sub04",4,2
"618",0,1,259,18,21,"sub04",5,2
"717",0,1,280,7,3,"sub04",6,2
"85",1,1,262,5,5,"sub04",7,2
"95",0,1,235,11,2,"sub04",8,2
"105",0,1,283,16,4,"sub04",9,2
"115",0,1,278,14,13,"sub04",10,2
"125",0,1,419,5,6,"sub04",11,2
"135",0,1,271,14,16,"sub04",12,2
"145",0,0,261,1,1,"sub04",13,2
"155",0,1,404,3,21,"sub04",14,2
"165",0,1,341,16,6,"sub04",15,2
"175",1,0,345,13,20,"sub04",16,2
"185",0,1,536,10,16,"sub04",17,2
"195",0,1,431,8,6,"sub04",18,2
"205",0,1,279,19,15,"sub04",19,2
"219",0,1,354,21,5,"sub04",20,2
"225",0,1,443,20,8,"sub04",21,2
"235",0,1,305,10,5,"sub04",22,2
"245",0,1,341,13,1,"sub04",23,2
"255",0,1,413,11,19,"sub04",24,2
"265",0,1,315,20,9,"sub04",25,2
"275",0,1,409,7,8,"sub04",26,2
"285",1,1,422,9,9,"sub04",27,2
"295",0,1,327,18,7,"sub04",28,2
"305",0,1,493,19,14,"sub04",29,2
"319",0,1,610,4,11,"sub04",30,2
"325",1,0,266,4,7,"sub04",31,2
"335",0,1,342,2,6,"sub04",32,2
"345",0,1,323,9,7,"sub04",33,2
"355",0,1,323,19,1,"sub04",34,2
"365",0,1,642,2,9,"sub04",35,2
"375",0,1,389,6,3,"sub04",36,2
"385",0,1,374,14,2,"sub04",37,2
"395",0,1,419,9,6,"sub04",38,2
"405",0,1,292,18,3,"sub04",39,2
"419",1,0,590,11,12,"sub04",40,2
"425",0,1,363,2,20,"sub04",41,2
"435",1,0,348,4,5,"sub04",42,2
"445",0,1,297,8,1,"sub04",43,2
"455",0,1,232,20,12,"sub04",44,2
"465",1,0,276,13,12,"sub04",45,2
"475",0,1,293,6,12,"sub04",46,2
"485",0,1,309,9,17,"sub04",47,2
"495",1,0,438,15,16,"sub04",48,2
"505",0,1,345,19,9,"sub04",49,2
"519",1,0,279,7,6,"sub04",50,2
"525",0,1,272,8,2,"sub04",51,2
"535",1,1,244,16,16,"sub04",52,2
"545",0,1,399,15,14,"sub04",53,2
"555",1,0,374,17,18,"sub04",54,2
"565",1,0,308,1,2,"sub04",55,2
"575",0,1,297,5,1,"sub04",56,2
"585",0,1,376,17,3,"sub04",57,2
"595",1,0,240,16,1,"sub04",58,2
"605",0,1,289,16,5,"sub04",59,2
"619",0,1,531,8,5,"sub04",60,2
"625",0,1,354,12,5,"sub04",61,2
"635",1,0,352,9,16,"sub04",62,2
"645",0,1,339,12,7,"sub04",63,2
"655",0,1,453,21,2,"sub04",64,2
"665",0,1,476,15,4,"sub04",65,2
"675",0,1,1078,18,20,"sub04",66,2
"685",0,1,273,14,8,"sub04",67,2
"695",0,0,300,21,21,"sub04",68,2
"705",0,1,330,1,11,"sub04",69,2
"718",0,1,289,2,19,"sub04",70,2
"725",0,1,367,8,13,"sub04",71,2
"735",0,1,550,13,18,"sub04",72,2
"745",0,1,256,9,18,"sub04",73,2
"755",1,0,249,16,17,"sub04",74,2
"765",0,1,323,8,3,"sub04",75,2
"775",0,1,265,10,7,"sub04",76,2
"785",0,1,409,6,18,"sub04",77,2
"220",0,1,258,10,17,"sub03",1,2
"320",0,1,206,10,14,"sub03",2,2
"420",0,1,201,4,6,"sub03",3,2
"520",0,1,229,5,10,"sub03",4,2
"620",0,1,77,2,16,"sub03",5,2
"719",0,1,228,19,8,"sub03",6,2
"86",0,1,83,4,20,"sub03",7,2
"96",0,1,179,20,12,"sub03",8,2
"106",0,1,195,7,10,"sub03",9,2
"116",1,0,40,15,19,"sub03",10,2
"126",0,1,166,15,9,"sub03",11,2
"136",0,1,29,1,13,"sub03",12,2
"146",0,1,373,4,10,"sub03",13,2
"156",0,1,76,2,9,"sub03",14,2
"166",0,1,148,21,12,"sub03",15,2
"176",1,1,0,8,8,"sub03",16,2
"186",0,1,202,7,14,"sub03",17,2
"196",0,1,73,16,6,"sub03",18,2
"206",0,1,323,3,9,"sub03",19,2
"2110",0,1,220,20,13,"sub03",20,2
"226",0,1,213,14,17,"sub03",21,2
"236",0,1,68,2,18,"sub03",22,2
"246",0,1,140,12,3,"sub03",23,2
"256",0,1,158,14,16,"sub03",24,2
"266",0,1,228,21,2,"sub03",25,2
"276",0,1,109,17,12,"sub03",26,2
"286",0,1,119,13,7,"sub03",27,2
"296",0,1,411,2,7,"sub03",28,2
"306",0,1,115,10,8,"sub03",29,2
"3110",0,1,179,21,14,"sub03",30,2
"326",1,1,20,19,19,"sub03",31,2
"336",0,1,261,18,20,"sub03",32,2
"346",0,1,26,10,9,"sub03",33,2
"356",0,1,121,20,5,"sub03",34,2
"366",0,0,345,3,3,"sub03",35,2
"376",0,1,11,1,14,"sub03",36,2
"386",0,1,140,5,12,"sub03",37,2
"396",0,1,35,14,5,"sub03",38,2
"406",0,1,74,17,13,"sub03",39,2
"4110",0,1,22,3,11,"sub03",40,2
"426",0,1,159,12,4,"sub03",41,2
"436",0,1,321,19,16,"sub03",42,2
"446",0,1,44,1,10,"sub03",43,2
"456",0,1,228,2,19,"sub03",44,2
"466",0,1,188,20,6,"sub03",45,2
"476",0,1,184,2,10,"sub03",46,2
"486",0,1,140,5,11,"sub03",47,2
"496",0,1,217,7,21,"sub03",48,2
"506",0,1,205,7,9,"sub03",49,2
"5110",0,1,206,17,2,"sub03",50,2
"526",0,1,240,4,17,"sub03",51,2
"536",0,1,201,6,9,"sub03",52,2
"546",0,1,58,7,17,"sub03",53,2
"556",0,1,140,4,13,"sub03",54,2
"566",0,1,84,15,8,"sub03",55,2
"576",0,1,27,4,1,"sub03",56,2
"586",0,1,58,18,16,"sub03",57,2
"596",0,1,113,10,20,"sub03",58,2
"606",0,1,41,13,12,"sub03",59,2
"6110",0,1,95,18,10,"sub03",60,2
"626",0,1,149,21,17,"sub03",61,2
"636",0,1,29,3,14,"sub03",62,2
"646",0,1,202,11,20,"sub03",63,2
"656",1,1,30,14,14,"sub03",64,2
"666",0,1,286,14,18,"sub03",65,2
"676",1,0,61,13,14,"sub03",66,2
"686",0,1,425,3,13,"sub03",67,2
"696",0,1,109,3,1,"sub03",68,2
"706",0,1,109,8,7,"sub03",69,2
"7110",0,1,116,4,18,"sub03",70,2
"726",0,1,81,15,21,"sub03",71,2
"736",0,0,52,6,6,"sub03",72,2
"746",0,1,76,17,16,"sub03",73,2
"756",0,1,152,11,16,"sub03",74,2
"766",0,1,13,3,8,"sub03",75,2
"776",0,1,105,10,6,"sub03",76,2
"786",0,1,35,14,19,"sub03",77,2
"227",0,1,432,12,19,"sub02",1,2
"327",0,1,513,20,15,"sub02",2,2
"427",0,1,597,11,1,"sub02",3,2
"527",0,1,600,16,5,"sub02",4,2
"627",0,1,413,15,2,"sub02",5,2
"720",0,1,558,17,19,"sub02",6,2
"87",0,1,1792,21,17,"sub02",7,2
"97",0,1,616,7,3,"sub02",8,2
"107",0,1,441,5,18,"sub02",9,2
"117",0,1,762,15,6,"sub02",10,2
"127",0,1,416,2,14,"sub02",11,2
"137",0,1,342,7,4,"sub02",12,2
"147",0,0,1547,16,16,"sub02",13,2
"157",-1,-1,0,13,7,"sub02",14,2
"167",0,1,538,8,3,"sub02",15,2
"177",0,1,370,16,7,"sub02",16,2
"187",0,1,336,13,11,"sub02",17,2
"197",-1,-1,0,10,8,"sub02",18,2
"207",1,0,343,3,1,"sub02",19,2
"2111",0,1,430,17,11,"sub02",20,2
"228",0,1,366,3,13,"sub02",21,2
"237",0,1,982,4,9,"sub02",22,2
"247",0,1,428,17,3,"sub02",23,2
"257",0,1,665,18,7,"sub02",24,2
"267",0,1,420,5,3,"sub02",25,2
"277",0,1,516,21,20,"sub02",26,2
"287",0,1,383,11,4,"sub02",27,2
"297",0,1,636,21,14,"sub02",28,2
"307",0,1,1692,9,19,"sub02",29,2
"3111",0,1,438,19,21,"sub02",30,2
"328",0,1,395,14,17,"sub02",31,2
"337",0,1,670,20,1,"sub02",32,2
"347",-1,-1,0,18,21,"sub02",33,2
"357",-1,0,2036,2,10,"sub02",34,2
"367",0,1,693,10,19,"sub02",35,2
"377",0,1,761,10,5,"sub02",36,2
"387",0,1,428,4,5,"sub02",37,2
"397",0,1,566,21,13,"sub02",38,2
"407",-1,-1,0,1,10,"sub02",39,2
"4111",0,1,391,20,9,"sub02",40,2
"428",0,1,577,14,15,"sub02",41,2
"437",0,1,598,12,15,"sub02",42,2
"447",0,1,598,17,6,"sub02",43,2
"457",0,0,937,7,7,"sub02",44,2
"467",0,1,1160,14,9,"sub02",45,2
"477",0,1,910,12,17,"sub02",46,2
"487",0,1,681,8,4,"sub02",47,2
"497",0,1,409,8,5,"sub02",48,2
"507",0,0,2032,2,2,"sub02",49,2
"5111",0,1,679,8,11,"sub02",50,2
"528",0,1,361,5,15,"sub02",51,2
"537",0,1,671,14,12,"sub02",52,2
"547",0,1,392,9,2,"sub02",53,2
"557",0,1,935,1,18,"sub02",54,2
"567",0,0,475,1,1,"sub02",55,2
"577",0,1,587,11,14,"sub02",56,2
"587",0,1,964,14,7,"sub02",57,2
"597",0,1,426,16,8,"sub02",58,2
"607",0,1,1978,20,10,"sub02",59,2
"6111",0,1,658,18,6,"sub02",60,2
"628",0,1,641,8,13,"sub02",61,2
"637",0,1,664,12,6,"sub02",62,2
"647",0,1,726,2,7,"sub02",63,2
"657",0,0,947,9,9,"sub02",64,2
"667",0,1,339,21,10,"sub02",65,2
"677",0,0,643,10,10,"sub02",66,2
"687",0,1,756,10,13,"sub02",67,2
"697",0,1,418,7,5,"sub02",68,2
"707",0,1,1061,1,12,"sub02",69,2
"7111",0,1,1144,16,18,"sub02",70,2
"727",0,1,338,17,1,"sub02",71,2
"737",0,1,389,1,6,"sub02",72,2
"747",0,1,1324,14,16,"sub02",73,2
"757",0,0,637,17,17,"sub02",74,2
"767",0,1,539,8,7,"sub02",75,2
"777",0,1,2135,9,6,"sub02",76,2
"787",0,1,1219,18,2,"sub02",77,2
"229",0,1,464,4,19,"sub01",1,3
"329",0,1,623,5,21,"sub01",2,3
"429",0,1,354,13,9,"sub01",3,3
"529",0,1,260,6,15,"sub01",4,3
"629",0,1,777,5,1,"sub01",5,3
"728",0,1,52,16,18,"sub01",6,3
"88",1,1,232,19,19,"sub01",7,3
"98",0,1,437,11,7,"sub01",8,3
"108",0,1,554,11,17,"sub01",9,3
"118",0,1,500,11,21,"sub01",10,3
"128",0,1,466,13,16,"sub01",11,3
"138",0,1,559,11,18,"sub01",12,3
"148",1,0,412,3,6,"sub01",13,3
"158",0,1,286,9,8,"sub01",14,3
"168",0,1,1457,9,17,"sub01",15,3
"178",0,1,390,18,3,"sub01",16,3
"188",0,1,565,2,15,"sub01",17,3
"198",0,1,438,14,5,"sub01",18,3
"208",0,1,857,13,7,"sub01",19,3
"2112",0,1,1761,21,16,"sub01",20,3
"2210",0,1,643,4,13,"sub01",21,3
"238",0,1,331,9,2,"sub01",22,3
"248",0,1,1153,10,17,"sub01",23,3
"258",0,1,401,21,10,"sub01",24,3
"268",0,1,985,19,2,"sub01",25,3
"278",1,1,327,13,13,"sub01",26,3
"288",0,1,491,17,19,"sub01",27,3
"298",0,1,594,2,3,"sub01",28,3
"308",0,1,1767,15,4,"sub01",29,3
"3112",0,1,754,19,12,"sub01",30,3
"3210",0,1,798,21,1,"sub01",31,3
"338",0,1,567,10,19,"sub01",32,3
"348",0,1,891,9,21,"sub01",33,3
"358",1,0,1019,21,8,"sub01",34,3
"368",0,1,705,14,13,"sub01",35,3
"378",0,1,679,7,1,"sub01",36,3
"388",0,1,527,5,13,"sub01",37,3
"398",0,1,457,2,8,"sub01",38,3
"408",0,1,629,20,6,"sub01",39,3
"4112",0,1,455,3,8,"sub01",40,3
"4210",0,1,1376,15,16,"sub01",41,3
"438",0,1,1027,9,14,"sub01",42,3
"448",0,1,504,19,3,"sub01",43,3
"458",0,1,773,11,4,"sub01",44,3
"468",0,1,462,8,20,"sub01",45,3
"478",0,1,251,7,8,"sub01",46,3
"488",0,1,744,14,8,"sub01",47,3
"498",0,1,2471,5,16,"sub01",48,3
"508",0,1,2166,17,18,"sub01",49,3
"5112",0,1,392,2,1,"sub01",50,3
"5210",0,1,320,21,20,"sub01",51,3
"538",0,1,2027,8,18,"sub01",52,3
"548",0,1,431,1,3,"sub01",53,3
"558",0,1,286,18,15,"sub01",54,3
"568",0,1,362,4,3,"sub01",55,3
"578",0,1,298,5,4,"sub01",56,3
"588",0,1,2491,11,9,"sub01",57,3
"598",0,1,294,8,17,"sub01",58,3
"608",0,1,334,6,10,"sub01",59,3
"6112",0,1,468,13,15,"sub01",60,3
"6210",0,1,509,18,12,"sub01",61,3
"638",0,1,508,4,14,"sub01",62,3
"648",0,1,269,16,8,"sub01",63,3
"658",0,1,2475,15,7,"sub01",64,3
"668",0,1,312,6,13,"sub01",65,3
"678",0,1,2479,10,3,"sub01",66,3
"688",0,1,2481,11,2,"sub01",67,3
"698",0,1,2500,15,1,"sub01",68,3
"708",0,1,1531,2,14,"sub01",69,3
"7112",0,1,2496,3,15,"sub01",70,3
"729",0,1,2489,10,7,"sub01",71,3
"738",0,1,717,20,1,"sub01",72,3
"748",0,1,963,13,10,"sub01",73,3
"758",0,1,290,10,1,"sub01",74,3
"768",0,1,2479,18,1,"sub01",75,3
"778",0,1,1187,6,12,"sub01",76,3
"788",0,1,1502,13,8,"sub01",77,3
"230",0,1,246,8,19,"sub04",1,3
"330",0,1,283,13,2,"sub04",2,3
"430",0,1,337,14,18,"sub04",3,3
"530",1,0,286,20,16,"sub04",4,3
"630",1,0,258,5,3,"sub04",5,3
"730",1,0,304,1,18,"sub04",6,3
"89",0,1,243,20,1,"sub04",7,3
"99",0,1,192,12,15,"sub04",8,3
"109",0,1,335,9,13,"sub04",9,3
"119",0,1,210,4,20,"sub04",10,3
"129",0,1,592,17,20,"sub04",11,3
"139",1,1,470,3,3,"sub04",12,3
"149",0,1,583,19,10,"sub04",13,3
"159",1,0,272,11,13,"sub04",14,3
"169",0,0,268,17,17,"sub04",15,3
"179",0,1,247,9,15,"sub04",16,3
"189",0,1,333,17,12,"sub04",17,3
"199",0,1,382,16,12,"sub04",18,3
"209",1,0,380,12,14,"sub04",19,3
"2113",0,1,271,4,18,"sub04",20,3
"2211",1,0,281,2,3,"sub04",21,3
"239",0,1,660,21,9,"sub04",22,3
"249",0,1,556,19,13,"sub04",23,3
"259",1,1,304,11,11,"sub04",24,3
"269",0,1,306,11,6,"sub04",25,3
"279",0,1,412,21,13,"sub04",26,3
"289",0,1,417,9,14,"sub04",27,3
"299",0,1,288,11,15,"sub04",28,3
"309",0,1,289,11,21,"sub04",29,3
"3113",0,1,333,17,13,"sub04",30,3
"3211",0,1,259,4,2,"sub04",31,3
"339",0,1,676,4,13,"sub04",32,3
"349",1,1,270,8,8,"sub04",33,3
"359",0,1,213,7,13,"sub04",34,3
"369",0,1,401,10,20,"sub04",35,3
"379",0,1,300,5,14,"sub04",36,3
"389",1,0,343,8,11,"sub04",37,3
"399",1,1,418,13,13,"sub04",38,3
"409",1,0,528,2,17,"sub04",39,3
"4113",0,1,244,6,4,"sub04",40,3
"4211",0,1,315,14,3,"sub04",41,3
"439",0,1,393,14,17,"sub04",42,3
"449",0,1,234,7,14,"sub04",43,3
"459",0,1,297,2,7,"sub04",44,3
"469",1,0,275,20,21,"sub04",45,3
"479",0,1,250,18,5,"sub04",46,3
"489",0,1,313,17,10,"sub04",47,3
"499",0,1,310,12,2,"sub04",48,3
"509",0,1,345,6,10,"sub04",49,3
"5113",1,0,267,11,14,"sub04",50,3
"5211",1,0,267,1,17,"sub04",51,3
"539",0,1,239,3,13,"sub04",52,3
"549",0,1,282,3,16,"sub04",53,3
"559",0,1,258,15,3,"sub04",54,3
"569",1,0,268,20,19,"sub04",55,3
"579",0,1,250,5,2,"sub04",56,3
"589",0,1,242,13,5,"sub04",57,3
"599",0,1,256,13,6,"sub04",58,3
"609",0,1,224,10,1,"sub04",59,3
"6113",0,1,313,16,2,"sub04",60,3
"6211",0,1,568,20,5,"sub04",61,3
"639",1,1,292,7,7,"sub04",62,3
"649",0,1,399,9,5,"sub04",63,3
"659",0,1,263,20,15,"sub04",64,3
"669",0,1,275,21,19,"sub04",65,3
"679",0,1,277,10,4,"sub04",66,3
"689",0,1,429,7,1,"sub04",67,3
"699",0,1,272,3,4,"sub04",68,3
"709",0,1,246,4,21,"sub04",69,3
"7113",0,1,384,1,12,"sub04",70,3
"7210",1,0,274,11,10,"sub04",71,3
"739",0,1,253,6,19,"sub04",72,3
"749",0,1,259,7,5,"sub04",73,3
"759",0,1,292,5,19,"sub04",74,3
"769",0,1,367,1,21,"sub04",75,3
"779",0,1,266,15,7,"sub04",76,3
"789",1,1,257,20,20,"sub04",77,3
"240",0,1,344,1,18,"sub03",1,3
"340",0,0,181,11,11,"sub03",2,3
"440",0,0,1,12,12,"sub03",3,3
"540",0,1,58,11,18,"sub03",4,3
"640",0,1,18,2,8,"sub03",5,3
"740",0,1,353,7,5,"sub03",6,3
"810",0,1,45,10,21,"sub03",7,3
"910",0,1,364,20,19,"sub03",8,3
"1010",0,0,128,4,4,"sub03",9,3
"1110",0,1,126,11,14,"sub03",10,3
"1210",0,1,147,8,6,"sub03",11,3
"1310",0,1,65,15,17,"sub03",12,3
"1410",0,1,174,11,6,"sub03",13,3
"1510",0,1,25,9,17,"sub03",14,3
"1610",0,1,30,13,2,"sub03",15,3
"1710",0,1,72,16,7,"sub03",16,3
"1810",0,1,42,14,4,"sub03",17,3
"1910",0,1,92,11,21,"sub03",18,3
"2010",0,1,10,7,15,"sub03",19,3
"2114",0,1,107,20,17,"sub03",20,3
"2212",0,1,324,17,3,"sub03",21,3
"2310",0,1,153,15,4,"sub03",22,3
"2410",1,0,175,9,11,"sub03",23,3
"2510",1,1,69,18,18,"sub03",24,3
"2610",0,1,115,9,13,"sub03",25,3
"2710",0,1,266,6,19,"sub03",26,3
"2810",0,1,45,15,3,"sub03",27,3
"2910",0,1,80,13,16,"sub03",28,3
"3010",0,1,78,21,13,"sub03",29,3
"3114",0,0,94,16,16,"sub03",30,3
"3212",0,1,74,6,12,"sub03",31,3
"3310",0,1,216,4,8,"sub03",32,3
"3410",0,1,72,7,11,"sub03",33,3
"3510",0,1,81,11,13,"sub03",34,3
"3610",0,1,119,10,19,"sub03",35,3
"3710",0,1,205,5,9,"sub03",36,3
"3810",0,1,58,21,9,"sub03",37,3
"3910",0,1,116,11,12,"sub03",38,3
"4010",0,1,13,10,11,"sub03",39,3
"4114",1,0,278,9,19,"sub03",40,3
"4212",0,1,57,17,8,"sub03",41,3
"4310",0,1,274,7,18,"sub03",42,3
"4410",0,1,68,20,21,"sub03",43,3
"4510",0,1,121,6,18,"sub03",44,3
"4610",0,0,259,20,20,"sub03",45,3
"4710",0,1,153,2,11,"sub03",46,3
"4810",0,1,87,18,19,"sub03",47,3
"4910",0,1,147,14,12,"sub03",48,3
"5010",0,1,337,20,3,"sub03",49,3
"5114",0,1,74,12,10,"sub03",50,3
"5212",0,1,63,6,14,"sub03",51,3
"5310",0,1,215,19,1,"sub03",52,3
"5410",0,1,68,13,8,"sub03",53,3
"5510",0,1,265,9,20,"sub03",54,3
"5610",0,1,143,20,14,"sub03",55,3
"5710",0,1,210,16,3,"sub03",56,3
"5810",0,1,251,21,1,"sub03",57,3
"5910",0,1,142,5,4,"sub03",58,3
"6010",0,0,72,5,5,"sub03",59,3
"6114",0,1,190,5,8,"sub03",60,3
"6212",1,1,74,2,2,"sub03",61,3
"6310",0,1,88,11,8,"sub03",62,3
"6410",0,1,101,7,12,"sub03",63,3
"6510",1,1,111,9,9,"sub03",64,3
"6610",0,1,21,6,13,"sub03",65,3
"6710",0,1,0,7,3,"sub03",66,3
"6810",0,1,171,5,19,"sub03",67,3
"6910",0,1,37,18,12,"sub03",68,3
"7010",0,1,179,7,6,"sub03",69,3
"7114",0,1,12,19,13,"sub03",70,3
"7211",0,1,70,20,16,"sub03",71,3
"7310",0,1,85,8,9,"sub03",72,3
"7410",0,1,170,11,15,"sub03",73,3
"7510",0,1,0,21,18,"sub03",74,3
"7610",0,1,258,3,2,"sub03",75,3
"7710",0,1,21,19,4,"sub03",76,3
"7810",0,1,33,8,18,"sub03",77,3
"250",0,1,108,5,1,"sub02",1,3
"350",0,1,353,12,16,"sub02",2,3
"450",0,0,2118,19,19,"sub02",3,3
"550",0,1,569,8,15,"sub02",4,3
"650",0,1,497,2,16,"sub02",5,3
"750",0,1,319,3,10,"sub02",6,3
"811",0,1,405,15,7,"sub02",7,3
"911",0,1,141,19,3,"sub02",8,3
"1011",0,1,375,20,14,"sub02",9,3
"1111",0,1,1993,12,8,"sub02",10,3
"1211",0,0,1318,6,6,"sub02",11,3
"1311",0,1,202,9,5,"sub02",12,3
"1411",0,1,526,6,20,"sub02",13,3
"1511",0,1,985,8,17,"sub02",14,3
"1611",0,1,879,6,13,"sub02",15,3
"1711",0,1,538,18,3,"sub02",16,3
"1811",0,1,2316,12,9,"sub02",17,3
"1911",0,1,2222,15,9,"sub02",18,3
"2011",0,1,2498,16,11,"sub02",19,3
"2115",-1,-1,0,21,21,"sub02",20,3
"2213",0,1,941,6,21,"sub02",21,3
"2311",0,1,1536,6,4,"sub02",22,3
"2411",0,0,731,15,15,"sub02",23,3
"2511",1,0,377,11,18,"sub02",24,3
"2611",0,1,674,6,5,"sub02",25,3
"2711",0,1,802,4,20,"sub02",26,3
"2811",0,1,1480,3,21,"sub02",27,3
"2911",-1,-1,0,18,19,"sub02",28,3
"3011",0,1,785,5,19,"sub02",29,3
"3115",0,1,371,10,4,"sub02",30,3
"3213",-1,-1,0,13,15,"sub02",31,3
"3311",0,1,1298,16,3,"sub02",32,3
"3411",0,1,395,16,20,"sub02",33,3
"3511",0,1,394,9,10,"sub02",34,3
"3611",0,0,301,3,3,"sub02",35,3
"3711",0,1,461,10,16,"sub02",36,3
"3811",0,1,378,3,2,"sub02",37,3
"3911",0,1,506,8,6,"sub02",38,3
"4011",0,1,369,4,13,"sub02",39,3
"4115",0,1,647,7,21,"sub02",40,3
"4213",0,1,1913,3,11,"sub02",41,3
"4311",0,1,318,20,8,"sub02",42,3
"4411",0,1,1622,4,19,"sub02",43,3
"4511",0,0,1450,13,13,"sub02",44,3
"4611",0,1,427,11,6,"sub02",45,3
"4711",0,1,729,6,14,"sub02",46,3
"4811",0,1,789,7,1,"sub02",47,3
"4911",0,1,690,13,16,"sub02",48,3
"5011",0,1,429,2,5,"sub02",49,3
"5115",-1,-1,0,14,8,"sub02",50,3
"5213",0,1,634,13,1,"sub02",51,3
"5311",0,1,1084,2,6,"sub02",52,3
"5411",0,1,95,11,21,"sub02",53,3
"5511",-1,-1,0,11,9,"sub02",54,3
"5611",0,1,873,10,18,"sub02",55,3
"5711",0,1,45,9,18,"sub02",56,3
"5811",0,1,838,9,7,"sub02",57,3
"5911",0,1,811,1,2,"sub02",58,3
"6011",0,1,322,13,2,"sub02",59,3
"6115",0,1,2391,12,4,"sub02",60,3
"6213",0,1,207,4,18,"sub02",61,3
"6311",0,1,520,12,21,"sub02",62,3
"6411",0,1,2238,9,3,"sub02",63,3
"6511",0,0,1427,12,12,"sub02",64,3
"6611",0,0,832,5,5,"sub02",65,3
"6711",0,1,765,12,11,"sub02",66,3
"6811",0,1,620,19,14,"sub02",67,3
"6911",0,1,888,16,9,"sub02",68,3
"7011",0,1,589,11,5,"sub02",69,3
"7115",0,1,704,14,5,"sub02",70,3
"7212",-1,-1,0,19,15,"sub02",71,3
"7311",0,1,114,17,20,"sub02",72,3
"7411",-1,-1,0,5,20,"sub02",73,3
"7511",0,1,955,3,6,"sub02",74,3
"7611",0,1,1116,11,2,"sub02",75,3
"7711",0,1,1152,5,13,"sub02",76,3
"7811",0,1,386,17,18,"sub02",77,3
"260",0,1,340,5,11,"sub01",1,4
"360",0,1,294,9,20,"sub01",2,4
"460",0,1,2075,15,12,"sub01",3,4
"560",0,1,917,14,20,"sub01",4,4
"660",0,1,340,18,16,"sub01",5,4
"760",0,1,2486,18,8,"sub01",6,4
"812",0,1,357,21,11,"sub01",7,4
"912",0,1,2475,13,15,"sub01",8,4
"1012",0,1,625,17,20,"sub01",9,4
"1112",0,1,1953,11,8,"sub01",10,4
"1212",0,1,474,14,11,"sub01",11,4
"1312",1,1,254,18,18,"sub01",12,4
"1412",0,1,311,5,15,"sub01",13,4
"1512",0,1,296,13,8,"sub01",14,4
"1612",0,1,445,18,12,"sub01",15,4
"1712",0,1,435,2,13,"sub01",16,4
"1812",1,0,2427,6,7,"sub01",17,4
"1912",0,1,2107,5,2,"sub01",18,4
"2012",0,1,2491,18,21,"sub01",19,4
"2116",0,1,2482,18,3,"sub01",20,4
"2214",1,1,2478,10,10,"sub01",21,4
"2312",1,1,2494,14,14,"sub01",22,4
"2412",0,1,2471,20,13,"sub01",23,4
"2512",0,1,1067,11,17,"sub01",24,4
"2612",-1,-1,0,14,9,"sub01",25,4
"2712",0,1,1498,11,19,"sub01",26,4
"2812",0,1,636,2,8,"sub01",27,4
"2912",0,1,1519,20,4,"sub01",28,4
"3012",0,1,945,6,2,"sub01",29,4
"3116",0,1,403,19,3,"sub01",30,4
"3214",0,1,2242,18,5,"sub01",31,4
"3312",0,1,770,6,16,"sub01",32,4
"3412",0,1,663,11,4,"sub01",33,4
"3512",0,1,395,19,18,"sub01",34,4
"3612",0,1,412,19,7,"sub01",35,4
"3712",0,1,691,19,10,"sub01",36,4
"3812",0,1,939,12,13,"sub01",37,4
"3912",0,1,607,18,13,"sub01",38,4
"4012",-1,-1,0,14,21,"sub01",39,4
"4116",0,1,360,20,18,"sub01",40,4
"4214",0,1,547,17,21,"sub01",41,4
"4312",0,1,494,20,11,"sub01",42,4
"4412",0,1,427,3,1,"sub01",43,4
"4512",0,1,370,2,4,"sub01",44,4
"4612",0,1,568,21,8,"sub01",45,4
"4712",-1,-1,0,13,11,"sub01",46,4
"4812",0,1,766,6,17,"sub01",47,4
"4912",0,0,1570,20,20,"sub01",48,4
"5012",0,1,378,10,3,"sub01",49,4
"5116",-1,-1,0,21,20,"sub01",50,4
"5214",0,1,269,3,5,"sub01",51,4
"5312",0,1,1483,12,21,"sub01",52,4
"5412",0,1,2072,17,1,"sub01",53,4
"5512",0,1,2239,8,4,"sub01",54,4
"5612",0,1,935,12,20,"sub01",55,4
"5712",0,1,1482,19,16,"sub01",56,4
"5812",1,1,492,9,9,"sub01",57,4
"5912",0,1,1286,2,16,"sub01",58,4
"6012",1,1,635,16,16,"sub01",59,4
"6116",0,1,1726,7,11,"sub01",60,4
"6214",0,1,877,9,4,"sub01",61,4
"6312",-1,-1,0,14,7,"sub01",62,4
"6412",0,1,277,12,5,"sub01",63,4
"6512",0,1,274,14,6,"sub01",64,4
"6612",0,1,714,19,20,"sub01",65,4
"6712",0,1,386,4,16,"sub01",66,4
"6812",0,1,701,15,9,"sub01",67,4
"6912",0,1,1022,15,21,"sub01",68,4
"7012",0,1,1590,20,3,"sub01",69,4
"7116",0,1,1231,19,14,"sub01",70,4
"7213",1,1,424,7,7,"sub01",71,4
"7312",0,1,1237,5,13,"sub01",72,4
"7412",0,1,669,1,8,"sub01",73,4
"7512",0,1,694,15,17,"sub01",74,4
"7612",0,1,1004,1,13,"sub01",75,4
"7712",0,1,734,3,4,"sub01",76,4
"7812",1,1,664,3,3,"sub01",77,4
"270",0,1,368,6,13,"sub04",1,4
"370",0,1,244,19,21,"sub04",2,4
"470",0,1,380,2,15,"sub04",3,4
"570",0,1,485,19,15,"sub04",4,4
"670",0,1,309,8,3,"sub04",5,4
"770",0,1,333,5,21,"sub04",6,4
"813",0,1,284,17,13,"sub04",7,4
"913",0,1,347,9,15,"sub04",8,4
"1013",0,1,255,12,14,"sub04",9,4
"1113",0,1,302,12,16,"sub04",10,4
"1213",0,1,376,17,10,"sub04",11,4
"1313",1,1,275,14,14,"sub04",12,4
"1413",0,1,284,21,2,"sub04",13,4
"1513",1,1,329,9,9,"sub04",14,4
"1613",0,1,260,11,3,"sub04",15,4
"1713",0,1,448,8,5,"sub04",16,4
"1813",0,1,339,13,5,"sub04",17,4
"1913",0,1,595,7,9,"sub04",18,4
"2013",1,0,255,3,5,"sub04",19,4
"2117",0,1,321,11,6,"sub04",20,4
"2215",1,1,298,7,7,"sub04",21,4
"2313",0,1,367,2,4,"sub04",22,4
"2413",0,1,288,1,5,"sub04",23,4
"2513",0,1,268,9,19,"sub04",24,4
"2613",0,1,274,7,11,"sub04",25,4
"2713",0,1,295,6,3,"sub04",26,4
"2813",0,1,327,11,5,"sub04",27,4
"2913",0,1,268,3,10,"sub04",28,4
"3013",0,1,377,7,5,"sub04",29,4
"3117",0,1,408,2,20,"sub04",30,4
"3215",0,1,309,2,17,"sub04",31,4
"3313",1,1,290,13,13,"sub04",32,4
"3413",0,1,288,2,9,"sub04",33,4
"3513",1,1,271,11,11,"sub04",34,4
"3613",0,1,301,13,19,"sub04",35,4
"3713",0,1,259,1,2,"sub04",36,4
"3813",0,1,466,16,2,"sub04",37,4
"3913",1,1,551,1,1,"sub04",38,4
"4013",0,1,336,13,18,"sub04",39,4
"4117",0,1,332,20,14,"sub04",40,4
"4215",1,0,1252,21,8,"sub04",41,4
"4313",0,1,282,8,10,"sub04",42,4
"4413",0,1,450,7,12,"sub04",43,4
"4513",1,1,241,21,21,"sub04",44,4
"4613",0,1,285,6,4,"sub04",45,4
"4713",0,1,271,18,2,"sub04",46,4
"4813",1,0,379,13,12,"sub04",47,4
"4913",0,1,185,11,17,"sub04",48,4
"5013",0,1,258,19,4,"sub04",49,4
"5117",0,1,317,9,6,"sub04",50,4
"5215",0,1,288,15,21,"sub04",51,4
"5313",0,1,1361,5,9,"sub04",52,4
"5413",0,1,842,1,18,"sub04",53,4
"5513",0,1,416,4,20,"sub04",54,4
"5613",1,1,230,17,17,"sub04",55,4
"5713",1,0,256,1,15,"sub04",56,4
"5813",1,1,121,8,8,"sub04",57,4
"5913",0,1,253,19,3,"sub04",58,4
"6013",1,0,268,17,8,"sub04",59,4
"6117",0,1,323,11,9,"sub04",60,4
"6215",0,1,412,2,3,"sub04",61,4
"6313",0,1,241,11,4,"sub04",62,4
"6413",0,1,860,3,4,"sub04",63,4
"6513",1,0,261,14,13,"sub04",64,4
"6613",1,1,178,19,19,"sub04",65,4
"6713",0,1,642,9,4,"sub04",66,4
"6813",0,1,223,13,2,"sub04",67,4
"6913",0,1,230,17,9,"sub04",68,4
"7013",0,1,314,10,21,"sub04",69,4
"7117",0,1,329,17,21,"sub04",70,4
"7214",0,1,256,17,19,"sub04",71,4
"7313",0,1,248,13,8,"sub04",72,4
"7413",0,1,424,21,7,"sub04",73,4
"7513",1,1,198,12,12,"sub04",74,4
"7613",0,1,459,21,3,"sub04",75,4
"7713",0,1,206,19,1,"sub04",76,4
"7813",0,1,173,11,19,"sub04",77,4
"280",0,1,25,18,14,"sub03",1,4
"380",1,0,1,10,11,"sub03",2,4
"480",0,1,132,11,17,"sub03",3,4
"580",0,1,393,9,6,"sub03",4,4
"680",0,1,0,2,18,"sub03",5,4
"780",0,1,101,5,14,"sub03",6,4
"814",1,1,80,2,2,"sub03",7,4
"914",0,1,93,13,15,"sub03",8,4
"1014",0,1,112,19,18,"sub03",9,4
"1114",0,1,42,18,9,"sub03",10,4
"1214",0,1,467,20,1,"sub03",11,4
"1314",0,1,5,17,2,"sub03",12,4
"1414",1,0,30,16,15,"sub03",13,4
"1514",0,1,99,3,21,"sub03",14,4
"1614",0,1,301,16,12,"sub03",15,4
"1714",0,1,35,2,10,"sub03",16,4
"1814",0,0,0,10,10,"sub03",17,4
"1914",0,1,136,1,5,"sub03",18,4
"2014",0,1,52,4,6,"sub03",19,4
"2118",0,1,468,16,3,"sub03",20,4
"2216",0,1,151,21,14,"sub03",21,4
"2314",0,1,17,12,18,"sub03",22,4
"2414",0,1,0,17,20,"sub03",23,4
"2514",0,1,122,7,6,"sub03",24,4
"2614",0,1,64,2,19,"sub03",25,4
"2714",0,0,449,19,19,"sub03",26,4
"2814",0,1,310,16,21,"sub03",27,4
"2914",0,1,289,1,16,"sub03",28,4
"3014",0,1,347,14,8,"sub03",29,4
"3118",0,1,230,17,14,"sub03",30,4
"3216",0,1,85,6,1,"sub03",31,4
"3314",0,1,34,17,15,"sub03",32,4
"3414",0,1,177,9,5,"sub03",33,4
"3514",0,1,47,19,10,"sub03",34,4
"3614",1,1,76,12,12,"sub03",35,4
"3714",0,1,393,18,16,"sub03",36,4
"3814",0,1,2,13,9,"sub03",37,4
"3914",0,1,87,7,8,"sub03",38,4
"4014",0,1,261,5,11,"sub03",39,4
"4118",0,1,423,4,15,"sub03",40,4
"4216",0,0,39,20,20,"sub03",41,4
"4314",0,1,142,9,2,"sub03",42,4
"4414",0,1,341,15,21,"sub03",43,4
"4514",0,1,33,21,9,"sub03",44,4
"4614",0,1,166,20,2,"sub03",45,4
"4714",0,1,209,8,3,"sub03",46,4
"4814",0,1,53,19,15,"sub03",47,4
"4914",0,1,41,12,7,"sub03",48,4
"5014",0,1,57,1,13,"sub03",49,4
"5118",0,1,370,10,7,"sub03",50,4
"5216",0,1,1,7,16,"sub03",51,4
"5314",0,1,159,14,3,"sub03",52,4
"5414",0,1,80,8,17,"sub03",53,4
"5514",0,1,31,1,9,"sub03",54,4
"5614",0,1,58,20,10,"sub03",55,4
"5714",0,1,23,11,3,"sub03",56,4
"5814",0,1,209,7,3,"sub03",57,4
"5914",0,1,446,13,8,"sub03",58,4
"6014",0,1,363,16,14,"sub03",59,4
"6118",1,0,238,9,8,"sub03",60,4
"6216",0,1,95,20,9,"sub03",61,4
"6314",0,1,64,1,3,"sub03",62,4
"6414",0,1,241,6,13,"sub03",63,4
"6514",0,1,94,2,21,"sub03",64,4
"6614",0,1,118,5,7,"sub03",65,4
"6714",0,1,28,8,21,"sub03",66,4
"6814",0,0,74,15,15,"sub03",67,4
"6914",0,1,51,4,18,"sub03",68,4
"7014",0,1,124,4,19,"sub03",69,4
"7118",0,1,0,8,16,"sub03",70,4
"7215",0,1,235,7,14,"sub03",71,4
"7314",0,1,185,13,19,"sub03",72,4
"7414",1,1,84,17,17,"sub03",73,4
"7514",0,1,365,18,13,"sub03",74,4
"7614",0,1,84,13,5,"sub03",75,4
"7714",0,1,240,17,10,"sub03",76,4
"7814",0,1,33,13,16,"sub03",77,4
"290",0,1,1093,16,12,"sub02",1,4
"390",0,1,332,17,6,"sub02",2,4
"490",0,1,1440,4,12,"sub02",3,4
"590",0,1,792,5,15,"sub02",4,4
"690",0,0,1129,18,18,"sub02",5,4
"790",0,1,431,13,17,"sub02",6,4
"815",0,1,586,15,10,"sub02",7,4
"915",0,1,1906,13,15,"sub02",8,4
"1015",0,0,1841,16,16,"sub02",9,4
"1115",0,0,561,19,19,"sub02",10,4
"1215",0,1,2133,15,6,"sub02",11,4
"1315",0,1,503,21,6,"sub02",12,4
"1415",0,1,520,12,20,"sub02",13,4
"1515",0,1,525,5,17,"sub02",14,4
"1615",0,1,2,11,8,"sub02",15,4
"1715",0,1,1159,14,21,"sub02",16,4
"1815",0,1,484,10,18,"sub02",17,4
"1915",0,1,592,3,1,"sub02",18,4
"2015",0,1,751,4,2,"sub02",19,4
"2119",0,1,1368,11,10,"sub02",20,4
"2217",-1,-1,0,13,12,"sub02",21,4
"2315",0,1,604,15,21,"sub02",22,4
"2415",0,1,372,15,8,"sub02",23,4
"2515",0,1,328,21,1,"sub02",24,4
"2615",0,1,1762,1,20,"sub02",25,4
"2715",0,1,787,21,19,"sub02",26,4
"2815",0,1,966,9,18,"sub02",27,4
"2915",-1,-1,0,9,17,"sub02",28,4
"3015",0,1,2254,6,12,"sub02",29,4
"3119",0,1,579,3,21,"sub02",30,4
"3217",0,1,626,20,15,"sub02",31,4
"3315",0,1,2168,8,20,"sub02",32,4
"3415",0,1,1223,19,2,"sub02",33,4
"3515",-1,-1,0,7,20,"sub02",34,4
"3615",0,1,295,15,9,"sub02",35,4
"3715",0,1,997,5,12,"sub02",36,4
"3815",0,1,444,13,21,"sub02",37,4
"3915",0,1,571,17,2,"sub02",38,4
"4015",-1,-1,0,13,4,"sub02",39,4
"4119",0,1,557,3,18,"sub02",40,4
"4217",0,1,462,10,20,"sub02",41,4
"4315",-1,-1,0,15,12,"sub02",42,4
"4415",0,1,470,18,14,"sub02",43,4
"4515",0,1,468,4,11,"sub02",44,4
"4615",0,1,457,8,10,"sub02",45,4
"4715",0,1,678,8,1,"sub02",46,4
"4815",0,1,2432,20,5,"sub02",47,4
"4915",0,1,2029,13,18,"sub02",48,4
"5015",-1,-1,0,9,3,"sub02",49,4
"5119",0,1,820,10,1,"sub02",50,4
"5217",0,1,348,9,20,"sub02",51,4
"5315",0,1,1890,1,2,"sub02",52,4
"5415",0,1,827,2,16,"sub02",53,4
"5515",0,1,2182,13,20,"sub02",54,4
"5615",0,1,667,21,8,"sub02",55,4
"5715",0,1,2194,3,17,"sub02",56,4
"5815",0,1,587,5,10,"sub02",57,4
"5915",0,1,209,10,14,"sub02",58,4
"6015",0,1,843,17,11,"sub02",59,4
"6119",0,0,631,15,15,"sub02",60,4
"6217",0,0,383,7,7,"sub02",61,4
"6315",0,1,484,1,19,"sub02",62,4
"6415",0,1,385,5,2,"sub02",63,4
"6515",0,1,1822,5,16,"sub02",64,4
"6615",0,1,869,6,19,"sub02",65,4
"6715",-1,-1,0,17,15,"sub02",66,4
"6815",0,1,998,4,14,"sub02",67,4
"6915",-1,-1,0,18,4,"sub02",68,4
"7015",0,1,221,16,1,"sub02",69,4
"7119",0,1,367,2,8,"sub02",70,4
"7216",-1,-1,0,13,6,"sub02",71,4
"7315",-1,-1,0,2,11,"sub02",72,4
"7415",-1,-1,0,6,6,"sub02",73,4
"7515",0,1,1666,7,2,"sub02",74,4
"7615",0,1,757,6,2,"sub02",75,4
"7715",0,1,2174,6,4,"sub02",76,4
"7815",0,1,745,3,6,"sub02",77,4
"2100",0,0,321,15,15,"sub01",1,5
"3100",1,1,245,2,2,"sub01",2,5
"4100",0,1,299,7,16,"sub01",3,5
"5100",0,1,435,13,7,"sub01",4,5
"6100",0,1,110,1,11,"sub01",5,5
"791",0,1,306,6,12,"sub01",6,5
"816",0,1,333,21,10,"sub01",7,5
"916",0,1,538,21,5,"sub01",8,5
"1016",0,1,476,17,13,"sub01",9,5
"1116",0,1,478,6,8,"sub01",10,5
"1216",0,1,322,21,7,"sub01",11,5
"1316",0,1,265,17,5,"sub01",12,5
"1416",0,1,110,13,16,"sub01",13,5
"1516",0,1,657,1,14,"sub01",14,5
"1616",0,1,1506,6,5,"sub01",15,5
"1716",0,1,508,4,19,"sub01",16,5
"1816",0,1,794,11,2,"sub01",17,5
"1916",0,1,1098,16,1,"sub01",18,5
"2016",0,1,1235,8,7,"sub01",19,5
"2120",0,1,70,15,6,"sub01",20,5
"2218",0,1,536,12,17,"sub01",21,5
"2316",0,1,815,18,15,"sub01",22,5
"2416",0,1,151,5,7,"sub01",23,5
"2516",0,1,316,14,10,"sub01",24,5
"2616",1,1,169,6,6,"sub01",25,5
"2716",0,1,685,7,20,"sub01",26,5
"2816",0,1,558,10,1,"sub01",27,5
"2916",0,1,278,18,4,"sub01",28,5
"3016",0,1,119,21,13,"sub01",29,5
"3120",0,1,497,8,12,"sub01",30,5
"3218",1,0,262,13,14,"sub01",31,5
"3316",1,1,1016,17,17,"sub01",32,5
"3416",1,1,834,4,4,"sub01",33,5
"3516",0,1,571,10,6,"sub01",34,5
"3616",0,1,733,6,1,"sub01",35,5
"3716",0,1,912,15,19,"sub01",36,5
"3816",0,0,304,21,21,"sub01",37,5
"3916",0,1,81,10,7,"sub01",38,5
"4016",0,1,267,5,20,"sub01",39,5
"4120",0,1,208,9,10,"sub01",40,5
"4218",0,1,285,13,19,"sub01",41,5
"4316",0,1,346,9,6,"sub01",42,5
"4416",0,1,362,1,7,"sub01",43,5
"4516",0,1,1152,5,19,"sub01",44,5
"4616",0,1,408,17,8,"sub01",45,5
"4716",0,1,313,2,15,"sub01",46,5
"4816",1,1,233,8,8,"sub01",47,5
"4916",0,1,2478,16,20,"sub01",48,5
"5016",0,1,325,1,21,"sub01",49,5
"5120",0,1,309,5,9,"sub01",50,5
"5218",0,1,501,15,8,"sub01",51,5
"5316",0,1,308,5,16,"sub01",52,5
"5416",0,1,319,6,11,"sub01",53,5
"5516",0,1,305,3,13,"sub01",54,5
"5616",0,1,341,6,20,"sub01",55,5
"5716",0,1,2492,21,6,"sub01",56,5
"5816",0,1,8,15,7,"sub01",57,5
"5916",0,1,808,20,8,"sub01",58,5
"6016",0,1,735,9,11,"sub01",59,5
"6120",0,0,327,5,5,"sub01",60,5
"6218",0,1,1012,16,8,"sub01",61,5
"6316",0,1,994,14,4,"sub01",62,5
"6416",0,1,345,18,2,"sub01",63,5
"6516",-1,0,1455,18,1,"sub01",64,5
"6616",0,1,2220,7,9,"sub01",65,5
"6716",-1,0,265,20,10,"sub01",66,5
"6816",0,1,261,19,1,"sub01",67,5
"6916",0,1,139,2,3,"sub01",68,5
"7016",0,1,584,17,9,"sub01",69,5
"7120",0,1,1473,2,14,"sub01",70,5
"7217",0,1,2051,3,12,"sub01",71,5
"7316",0,1,1708,18,14,"sub01",72,5
"7416",0,1,794,20,1,"sub01",73,5
"7516",0,1,1060,8,19,"sub01",74,5
"7616",0,1,928,17,18,"sub01",75,5
"7716",1,1,227,1,1,"sub01",76,5
"7816",0,1,715,4,17,"sub01",77,5
"2101",1,0,1137,12,11,"sub04",1,5
"3101",0,1,346,5,15,"sub04",2,5
"4101",0,1,283,14,11,"sub04",3,5
"5101",0,1,244,17,3,"sub04",4,5
"6101",0,1,244,18,12,"sub04",5,5
"792",0,1,262,8,18,"sub04",6,5
"817",1,1,339,2,2,"sub04",7,5
"917",0,1,240,3,16,"sub04",8,5
"1017",0,1,282,10,20,"sub04",9,5
"1117",0,1,294,12,6,"sub04",10,5
"1217",0,1,267,14,4,"sub04",11,5
"1317",0,1,254,5,12,"sub04",12,5
"1417",1,0,378,19,18,"sub04",13,5
"1517",0,1,269,18,5,"sub04",14,5
"1617",0,1,285,19,5,"sub04",15,5
"1717",0,1,416,1,9,"sub04",16,5
"1817",0,1,249,7,18,"sub04",17,5
"1917",0,1,253,8,12,"sub04",18,5
"2017",0,1,233,4,7,"sub04",19,5
"2121",0,1,415,7,19,"sub04",20,5
"2219",0,1,335,20,8,"sub04",21,5
"2317",0,1,231,9,10,"sub04",22,5
"2417",0,1,231,14,2,"sub04",23,5
"2517",0,1,333,9,20,"sub04",24,5
"2617",1,0,413,4,8,"sub04",25,5
"2717",0,1,314,15,12,"sub04",26,5
"2817",0,1,148,5,2,"sub04",27,5
"2917",0,1,281,12,4,"sub04",28,5
"3017",0,1,334,3,20,"sub04",29,5
"3121",0,1,133,16,21,"sub04",30,5
"3219",0,1,270,20,19,"sub04",31,5
"3317",0,1,247,2,8,"sub04",32,5
"3417",0,1,241,2,6,"sub04",33,5
"3517",0,1,343,13,7,"sub04",34,5
"3617",0,1,226,15,6,"sub04",35,5
"3717",0,1,219,15,4,"sub04",36,5
"3817",0,1,257,10,16,"sub04",37,5
"3917",0,1,251,14,3,"sub04",38,5
"4017",0,1,337,18,9,"sub04",39,5
"4121",0,1,246,2,19,"sub04",40,5
"4219",0,1,316,11,15,"sub04",41,5
"4317",0,1,399,14,17,"sub04",42,5
"4417",0,0,326,16,16,"sub04",43,5
"4517",0,1,250,12,3,"sub04",44,5
"4617",1,1,118,18,18,"sub04",45,5
"4717",0,1,276,6,19,"sub04",46,5
"4817",0,1,360,19,10,"sub04",47,5
"4917",1,0,224,17,20,"sub04",48,5
"5017",0,1,266,10,15,"sub04",49,5
"5121",1,0,287,6,5,"sub04",50,5
"5219",0,1,274,16,20,"sub04",51,5
"5317",1,0,306,16,1,"sub04",52,5
"5417",0,1,265,1,12,"sub04",53,5
"5517",1,0,285,20,21,"sub04",54,5
"5617",0,1,409,4,16,"sub04",55,5
"5717",0,1,211,11,16,"sub04",56,5
"5817",0,1,83,4,17,"sub04",57,5
"5917",0,1,233,5,17,"sub04",58,5
"6017",1,0,618,21,12,"sub04",59,5
"6121",0,1,271,4,1,"sub04",60,5
"6219",0,1,241,19,8,"sub04",61,5
"6317",0,1,287,14,15,"sub04",62,5
"6417",1,0,218,8,1,"sub04",63,5
"6517",0,1,261,16,6,"sub04",64,5
"6617",0,1,296,3,9,"sub04",65,5
"6717",1,0,273,8,15,"sub04",66,5
"6817",0,1,256,13,21,"sub04",67,5
"6917",0,1,322,18,20,"sub04",68,5
"7017",0,1,396,8,7,"sub04",69,5
"7121",0,1,428,7,14,"sub04",70,5
"7218",0,1,312,7,20,"sub04",71,5
"7317",0,1,285,7,16,"sub04",72,5
"7417",1,0,573,13,9,"sub04",73,5
"7517",0,1,390,10,2,"sub04",74,5
"7617",0,1,288,4,10,"sub04",75,5
"7717",0,0,307,4,4,"sub04",76,5
"7817",0,1,317,18,6,"sub04",77,5
"2102",0,1,21,17,5,"sub03",1,5
"3102",0,1,52,12,2,"sub03",2,5
"4102",0,1,75,7,11,"sub03",3,5
"5102",0,1,58,13,7,"sub03",4,5
"6102",0,1,147,11,21,"sub03",5,5
"793",0,1,93,3,10,"sub03",6,5
"818",0,1,294,8,2,"sub03",7,5
"918",0,1,11,8,18,"sub03",8,5
"1018",0,1,12,19,16,"sub03",9,5
"1118",0,1,68,16,10,"sub03",10,5
"1218",0,1,3,17,12,"sub03",11,5
"1318",0,0,317,1,1,"sub03",12,5
"1418",0,1,177,11,8,"sub03",13,5
"1518",0,1,69,11,13,"sub03",14,5
"1618",0,1,112,15,11,"sub03",15,5
"1718",0,1,107,2,16,"sub03",16,5
"1818",0,1,56,14,1,"sub03",17,5
"1918",0,1,148,3,12,"sub03",18,5
"2018",0,1,153,10,4,"sub03",19,5
"2122",0,1,63,4,13,"sub03",20,5
"2220",0,1,197,21,5,"sub03",21,5
"2318",1,1,351,5,5,"sub03",22,5
"2418",1,1,252,21,21,"sub03",23,5
"2518",0,1,77,8,15,"sub03",24,5
"2618",0,1,114,4,11,"sub03",25,5
"2718",0,1,111,17,21,"sub03",26,5
"2818",0,1,442,4,14,"sub03",27,5
"2918",0,1,108,15,18,"sub03",28,5
"3018",0,1,193,20,6,"sub03",29,5
"3122",0,1,375,7,15,"sub03",30,5
"3220",0,1,208,6,8,"sub03",31,5
"3318",0,1,80,4,1,"sub03",32,5
"3418",0,1,8,18,7,"sub03",33,5
"3518",0,1,55,4,9,"sub03",34,5
"3618",0,1,343,8,19,"sub03",35,5
"3718",0,1,46,21,1,"sub03",36,5
"3818",0,1,38,3,2,"sub03",37,5
"3918",0,1,108,3,20,"sub03",38,5
"4018",0,1,126,21,18,"sub03",39,5
"4122",0,1,208,20,16,"sub03",40,5
"4220",0,1,443,13,17,"sub03",41,5
"4318",0,1,149,15,10,"sub03",42,5
"4418",0,1,129,18,20,"sub03",43,5
"4518",0,1,130,21,19,"sub03",44,5
"4618",0,1,82,14,12,"sub03",45,5
"4718",0,1,103,7,1,"sub03",46,5
"4818",0,1,42,21,13,"sub03",47,5
"4918",0,1,116,4,16,"sub03",48,5
"5018",0,1,123,2,7,"sub03",49,5
"5122",0,1,131,3,9,"sub03",50,5
"5220",0,1,189,12,21,"sub03",51,5
"5318",0,1,37,7,9,"sub03",52,5
"5418",0,1,18,19,12,"sub03",53,5
"5518",0,1,43,13,2,"sub03",54,5
"5618",0,1,119,18,17,"sub03",55,5
"5718",0,1,73,3,17,"sub03",56,5
"5818",0,1,346,20,7,"sub03",57,5
"5918",0,1,89,6,12,"sub03",58,5
"6018",0,1,79,11,6,"sub03",59,5
"6122",1,1,117,14,14,"sub03",60,5
"6220",0,1,482,6,17,"sub03",61,5
"6318",0,1,18,19,6,"sub03",62,5
"6418",1,1,329,4,4,"sub03",63,5
"6518",0,1,39,4,21,"sub03",64,5
"6618",0,1,89,5,10,"sub03",65,5
"6718",0,1,48,14,2,"sub03",66,5
"6818",0,1,50,16,9,"sub03",67,5
"6918",0,1,60,1,18,"sub03",68,5
"7018",0,1,66,2,11,"sub03",69,5
"7122",0,0,155,11,11,"sub03",70,5
"7219",0,1,58,11,18,"sub03",71,5
"7318",0,1,253,2,4,"sub03",72,5
"7418",0,1,40,16,5,"sub03",73,5
"7518",0,1,71,1,8,"sub03",74,5
"7618",0,0,86,16,16,"sub03",75,5
"7718",0,1,57,21,6,"sub03",76,5
"7818",0,1,173,4,12,"sub03",77,5
"2103",0,1,1147,21,12,"sub02",1,5
"3103",0,0,1413,1,1,"sub02",2,5
"4103",0,1,1496,12,14,"sub02",3,5
"5103",0,0,2114,8,8,"sub02",4,5
"6103",0,1,530,2,21,"sub02",5,5
"794",0,1,485,13,2,"sub02",6,5
"819",0,1,1301,19,9,"sub02",7,5
"919",0,1,1184,6,9,"sub02",8,5
"1019",0,1,1028,6,18,"sub02",9,5
"1119",0,1,1543,1,17,"sub02",10,5
"1219",0,1,1377,19,11,"sub02",11,5
"1319",0,1,1649,7,10,"sub02",12,5
"1419",0,1,1646,7,8,"sub02",13,5
"1519",0,1,2292,10,13,"sub02",14,5
"1619",0,1,622,1,11,"sub02",15,5
"1719",0,1,1970,6,7,"sub02",16,5
"1819",0,1,2033,6,1,"sub02",17,5
"1919",0,1,1840,2,20,"sub02",18,5
"2019",0,1,1012,15,1,"sub02",19,5
"2123",0,1,294,7,1,"sub02",20,5
"2221",0,0,2097,20,20,"sub02",21,5
"2319",0,1,1088,8,13,"sub02",22,5
"2419",0,1,2480,19,15,"sub02",23,5
"2519",0,0,1331,10,10,"sub02",24,5
"2619",0,1,483,19,16,"sub02",25,5
"2719",0,1,1542,2,18,"sub02",26,5
"2819",0,1,2159,15,11,"sub02",27,5
"2919",0,0,679,21,21,"sub02",28,5
"3019",0,1,885,14,8,"sub02",29,5
"3123",0,1,547,8,18,"sub02",30,5
"3221",0,1,1938,19,12,"sub02",31,5
"3319",0,1,848,4,5,"sub02",32,5
"3419",0,1,1709,5,19,"sub02",33,5
"3519",0,0,2247,3,3,"sub02",34,5
"3619",0,1,989,8,5,"sub02",35,5
"3719",0,1,2423,20,6,"sub02",36,5
"3819",0,1,883,18,17,"sub02",37,5
"3919",0,1,305,10,12,"sub02",38,5
"4019",0,1,252,5,11,"sub02",39,5
"4123",0,1,410,5,14,"sub02",40,5
"4221",0,1,1370,11,6,"sub02",41,5
"4319",0,1,1781,17,20,"sub02",42,5
"4419",-1,-1,0,18,7,"sub02",43,5
"4519",-1,-1,0,19,4,"sub02",44,5
"4619",0,1,410,16,3,"sub02",45,5
"4719",1,0,487,16,7,"sub02",46,5
"4819",0,1,523,5,3,"sub02",47,5
"4919",0,1,1461,21,11,"sub02",48,5
"5019",0,1,576,16,15,"sub02",49,5
"5123",0,1,340,14,17,"sub02",50,5
"5221",0,1,464,3,19,"sub02",51,5
"5319",0,1,1642,20,19,"sub02",52,5
"5419",0,0,1307,13,13,"sub02",53,5
"5519",0,1,780,14,15,"sub02",54,5
"5619",0,1,753,20,11,"sub02",55,5
"5719",0,1,1163,4,21,"sub02",56,5
"5819",0,1,2312,13,5,"sub02",57,5
"5919",0,1,1836,4,10,"sub02",58,5
"6019",0,1,2052,14,16,"sub02",59,5
"6123",0,1,2340,19,10,"sub02",60,5
"6221",0,1,800,1,14,"sub02",61,5
"6319",0,1,1089,21,20,"sub02",62,5
"6419",0,1,1168,7,3,"sub02",63,5
"6519",0,1,774,18,20,"sub02",64,5
"6619",0,1,1001,7,9,"sub02",65,5
"6719",0,1,399,9,21,"sub02",66,5
"6819",0,1,59,18,16,"sub02",67,5
"6919",0,1,1133,5,9,"sub02",68,5
"7019",0,1,958,4,15,"sub02",69,5
"7123",0,1,615,8,19,"sub02",70,5
"7220",0,1,2088,16,6,"sub02",71,5
"7319",0,1,1475,11,9,"sub02",72,5
"7419",0,1,545,3,11,"sub02",73,5
"7519",0,0,1042,4,4,"sub02",74,5
"7619",0,1,859,8,6,"sub02",75,5
"7719",0,1,581,17,8,"sub02",76,5
"7819",0,1,348,10,2,"sub02",77,5
"2104",0,1,303,5,1,"sub01",1,6
"3104",0,1,487,12,14,"sub01",2,6
"4104",0,1,251,8,10,"sub01",3,6
"5104",0,1,266,6,13,"sub01",4,6
"6104",0,1,311,17,14,"sub01",5,6
"795",0,1,269,3,6,"sub01",6,6
"820",0,1,195,12,9,"sub01",7,6
"920",0,1,407,14,5,"sub01",8,6
"1020",0,1,549,16,3,"sub01",9,6
"1120",0,1,519,1,4,"sub01",10,6
"1220",0,1,283,8,14,"sub01",11,6
"1320",0,1,376,7,17,"sub01",12,6
"1420",0,1,94,5,4,"sub01",13,6
"1520",0,1,250,21,3,"sub01",14,6
"1620",0,1,207,11,10,"sub01",15,6
"1720",0,1,108,11,12,"sub01",16,6
"1820",0,1,101,9,21,"sub01",17,6
"1920",0,1,321,6,4,"sub01",18,6
"2020",0,1,358,7,18,"sub01",19,6
"2124",0,1,307,2,12,"sub01",20,6
"2222",0,1,94,2,21,"sub01",21,6
"2320",0,1,270,10,2,"sub01",22,6
"2420",1,1,259,11,11,"sub01",23,6
"2520",0,1,183,12,7,"sub01",24,6
"2620",0,1,70,12,4,"sub01",25,6
"2720",0,1,202,3,8,"sub01",26,6
"2820",0,1,178,18,11,"sub01",27,6
"2920",0,1,26,10,4,"sub01",28,6
"3020",0,1,180,4,21,"sub01",29,6
"3124",0,1,267,11,16,"sub01",30,6
"3222",0,1,300,4,13,"sub01",31,6
"3320",0,1,319,10,5,"sub01",32,6
"3420",-1,-1,0,3,17,"sub01",33,6
"3520",0,1,18,11,3,"sub01",34,6
"3620",0,1,46,4,7,"sub01",35,6
"3720",1,1,234,19,19,"sub01",36,6
"3820",0,1,272,8,5,"sub01",37,6
"3920",1,1,162,12,12,"sub01",38,6
"4020",0,1,28,15,1,"sub01",39,6
"4124",0,1,262,20,15,"sub01",40,6
"4222",0,1,306,19,12,"sub01",41,6
"4320",0,1,324,2,1,"sub01",42,6
"4420",0,1,293,19,6,"sub01",43,6
"4520",0,1,916,19,21,"sub01",44,6
"4620",0,1,373,10,15,"sub01",45,6
"4720",0,1,336,16,10,"sub01",46,6
"4820",0,1,624,3,15,"sub01",47,6
"4920",0,1,758,16,15,"sub01",48,6
"5020",0,1,495,6,18,"sub01",49,6
"5124",0,1,172,13,10,"sub01",50,6
"5222",0,1,275,10,12,"sub01",51,6
"5320",0,1,179,20,2,"sub01",52,6
"5420",0,1,934,19,17,"sub01",53,6
"5520",0,1,92,14,3,"sub01",54,6
"5620",0,1,230,9,3,"sub01",55,6
"5720",0,1,826,2,17,"sub01",56,6
"5820",0,1,30,16,9,"sub01",57,6
"5920",0,1,2496,15,14,"sub01",58,6
"6020",0,1,2500,9,2,"sub01",59,6
"6124",0,1,2501,7,3,"sub01",60,6
"6222",0,1,633,17,16,"sub01",61,6
"6320",0,1,865,8,9,"sub01",62,6
"6420",0,1,1399,14,16,"sub01",63,6
"6520",0,1,1577,19,2,"sub01",64,6
"6620",0,1,1000,7,2,"sub01",65,6
"6720",0,1,1030,12,1,"sub01",66,6
"6820",0,1,2462,16,12,"sub01",67,6
"6920",1,1,2503,13,13,"sub01",68,6
"7020",0,1,2482,9,13,"sub01",69,6
"7124",0,1,2483,9,18,"sub01",70,6
"7221",0,1,1651,4,15,"sub01",71,6
"7320",0,1,2497,11,15,"sub01",72,6
"7420",0,1,1496,18,10,"sub01",73,6
"7520",0,1,1447,1,9,"sub01",74,6
"7620",0,1,2141,17,10,"sub01",75,6
"7720",0,1,1263,16,21,"sub01",76,6
"7820",0,1,790,9,19,"sub01",77,6
"2105",1,0,218,11,10,"sub04",1,6
"3105",0,1,267,19,16,"sub04",2,6
"4105",0,1,251,14,18,"sub04",3,6
"5105",0,1,484,19,14,"sub04",4,6
"6105",0,1,291,18,3,"sub04",5,6
"796",0,1,267,10,13,"sub04",6,6
"821",0,1,1173,6,10,"sub04",7,6
"921",1,0,337,5,4,"sub04",8,6
"1021",0,1,261,4,18,"sub04",9,6
"1121",0,1,259,10,18,"sub04",10,6
"1221",0,1,330,13,4,"sub04",11,6
"1321",0,1,534,5,20,"sub04",12,6
"1421",0,1,270,9,21,"sub04",13,6
"1521",1,0,221,15,17,"sub04",14,6
"1621",0,1,149,18,15,"sub04",15,6
"1721",1,0,240,6,7,"sub04",16,6
"1821",0,1,266,12,10,"sub04",17,6
"1921",0,1,255,5,16,"sub04",18,6
"2021",0,1,307,14,1,"sub04",19,6
"2125",1,1,288,10,10,"sub04",20,6
"2223",0,1,272,6,8,"sub04",21,6
"2321",0,1,262,10,5,"sub04",22,6
"2421",0,1,513,17,12,"sub04",23,6
"2521",0,1,298,3,15,"sub04",24,6
"2621",0,1,373,21,4,"sub04",25,6
"2721",0,1,438,7,10,"sub04",26,6
"2821",1,0,304,9,8,"sub04",27,6
"2921",0,1,412,20,13,"sub04",28,6
"3021",0,1,262,6,1,"sub04",29,6
"3125",0,1,766,21,14,"sub04",30,6
"3223",0,1,285,7,3,"sub04",31,6
"3321",0,1,1144,11,21,"sub04",32,6
"3421",0,1,377,16,15,"sub04",33,6
"3521",0,1,255,1,20,"sub04",34,6
"3621",0,1,457,13,16,"sub04",35,6
"3721",0,1,448,15,13,"sub04",36,6
"3821",0,1,197,16,14,"sub04",37,6
"3921",0,1,327,7,15,"sub04",38,6
"4021",1,1,259,5,5,"sub04",39,6
"4125",0,1,220,17,1,"sub04",40,6
"4223",0,1,201,3,1,"sub04",41,6
"4321",0,1,51,7,1,"sub04",42,6
"4421",0,1,231,6,17,"sub04",43,6
"4521",0,1,295,20,6,"sub04",44,6
"4621",0,0,684,6,6,"sub04",45,6
"4721",0,1,258,14,5,"sub04",46,6
"4821",1,0,254,11,13,"sub04",47,6
"4921",1,1,304,3,3,"sub04",48,6
"5021",0,1,267,12,9,"sub04",49,6
"5125",1,0,291,18,17,"sub04",50,6
"5223",0,1,330,21,6,"sub04",51,6
"5321",0,1,756,12,19,"sub04",52,6
"5421",0,1,416,14,6,"sub04",53,6
"5521",0,1,239,11,2,"sub04",54,6
"5621",1,0,287,20,15,"sub04",55,6
"5721",0,1,92,10,14,"sub04",56,6
"5821",1,1,274,20,20,"sub04",57,6
"5921",0,1,689,2,7,"sub04",58,6
"6021",0,1,660,12,2,"sub04",59,6
"6125",0,1,952,20,11,"sub04",60,6
"6223",0,1,383,7,17,"sub04",61,6
"6321",1,1,308,15,15,"sub04",62,6
"6421",1,0,215,18,16,"sub04",63,6
"6521",0,1,270,13,3,"sub04",64,6
"6621",0,1,329,21,18,"sub04",65,6
"6721",1,0,223,11,1,"sub04",66,6
"6821",0,1,283,14,8,"sub04",67,6
"6921",0,1,296,18,11,"sub04",68,6
"7021",0,1,323,12,20,"sub04",69,6
"7125",0,1,257,1,21,"sub04",70,6
"7222",0,1,617,9,14,"sub04",71,6
"7321",1,0,344,16,17,"sub04",72,6
"7421",0,1,37,1,10,"sub04",73,6
"7521",0,1,417,8,16,"sub04",74,6
"7621",0,1,192,11,8,"sub04",75,6
"7721",0,1,269,13,1,"sub04",76,6
"7821",1,0,339,16,9,"sub04",77,6
"2106",0,1,53,10,1,"sub03",1,6
"3106",0,1,122,17,7,"sub03",2,6
"4106",0,1,139,4,7,"sub03",3,6
"5106",0,0,1,13,13,"sub03",4,6
"6106",0,1,219,6,16,"sub03",5,6
"797",0,1,80,16,17,"sub03",6,6
"822",0,1,190,3,19,"sub03",7,6
"922",0,1,49,9,10,"sub03",8,6
"1022",0,1,124,8,10,"sub03",9,6
"1122",1,1,87,9,9,"sub03",10,6
"1222",0,1,0,21,10,"sub03",11,6
"1322",0,1,236,1,12,"sub03",12,6
"1422",0,1,255,14,20,"sub03",13,6
"1522",0,1,72,15,12,"sub03",14,6
"1622",0,1,76,11,19,"sub03",15,6
"1722",0,1,0,15,5,"sub03",16,6
"1822",0,1,36,21,20,"sub03",17,6
"1922",0,1,198,20,13,"sub03",18,6
"2022",0,1,135,1,11,"sub03",19,6
"2126",0,1,157,11,12,"sub03",20,6
"2224",1,0,15,20,19,"sub03",21,6
"2322",0,0,111,18,18,"sub03",22,6
"2422",0,1,42,14,10,"sub03",23,6
"2522",0,1,10,19,14,"sub03",24,6
"2622",0,1,53,17,19,"sub03",25,6
"2722",0,1,303,13,3,"sub03",26,6
"2822",0,1,92,10,18,"sub03",27,6
"2922",0,1,3,2,1,"sub03",28,6
"3022",0,1,317,11,16,"sub03",29,6
"3126",0,1,25,19,1,"sub03",30,6
"3224",0,1,21,7,19,"sub03",31,6
"3322",0,1,3,15,6,"sub03",32,6
"3422",0,1,66,9,14,"sub03",33,6
"3522",0,1,10,9,11,"sub03",34,6
"3622",0,1,387,1,17,"sub03",35,6
"3722",0,1,175,3,6,"sub03",36,6
"3822",0,1,0,12,10,"sub03",37,6
"3922",0,1,29,20,5,"sub03",38,6
"4022",0,0,16,6,6,"sub03",39,6
"4126",0,1,272,11,14,"sub03",40,6
"4224",0,1,157,2,5,"sub03",41,6
"4322",0,1,375,17,4,"sub03",42,6
"4422",0,1,218,8,5,"sub03",43,6
"4522",0,1,91,5,6,"sub03",44,6
"4622",0,1,173,7,21,"sub03",45,6
"4722",0,1,29,4,3,"sub03",46,6
"4822",0,1,119,9,15,"sub03",47,6
"4922",0,1,34,8,20,"sub03",48,6
"5022",0,1,33,6,2,"sub03",49,6
"5126",0,1,124,9,12,"sub03",50,6
"5224",0,1,1,8,4,"sub03",51,6
"5322",0,1,8,13,10,"sub03",52,6
"5422",0,1,16,15,20,"sub03",53,6
"5522",1,1,20,8,8,"sub03",54,6
"5622",0,1,32,3,18,"sub03",55,6
"5722",0,1,34,5,18,"sub03",56,6
"5822",0,1,72,12,13,"sub03",57,6
"5922",1,0,57,1,15,"sub03",58,6
"6022",0,1,292,19,5,"sub03",59,6
"6126",0,1,185,3,15,"sub03",60,6
"6224",0,1,37,13,14,"sub03",61,6
"6322",0,1,115,4,5,"sub03",62,6
"6422",0,1,128,14,15,"sub03",63,6
"6522",0,1,22,8,12,"sub03",64,6
"6622",0,1,12,14,6,"sub03",65,6
"6722",0,1,187,18,6,"sub03",66,6
"6822",0,1,32,5,3,"sub03",67,6
"6922",0,0,123,7,7,"sub03",68,6
"7022",0,0,95,3,3,"sub03",69,6
"7126",0,1,201,9,19,"sub03",70,6
"7223",0,1,143,20,4,"sub03",71,6
"7322",0,1,88,5,12,"sub03",72,6
"7422",0,1,0,20,11,"sub03",73,6
"7522",0,1,6,15,2,"sub03",74,6
"7622",0,1,83,20,12,"sub03",75,6
"7722",0,1,489,6,10,"sub03",76,6
"7822",0,1,50,9,17,"sub03",77,6
"2107",0,1,1948,9,10,"sub02",1,6
"3107",0,1,1837,10,6,"sub02",2,6
"4107",0,1,1805,1,12,"sub02",3,6
"5107",0,1,1702,3,8,"sub02",4,6
"6107",0,1,817,13,14,"sub02",5,6
"798",0,1,1045,9,14,"sub02",6,6
"823",0,0,954,17,17,"sub02",7,6
"923",0,1,1333,16,13,"sub02",8,6
"1023",0,1,1089,21,5,"sub02",9,6
"1123",0,1,1780,16,4,"sub02",10,6
"1223",0,1,494,4,3,"sub02",11,6
"1323",0,1,1274,9,2,"sub02",12,6
"1423",0,1,1743,19,7,"sub02",13,6
"1523",0,1,1409,7,5,"sub02",14,6
"1623",0,1,967,14,19,"sub02",15,6
"1723",0,1,2117,21,16,"sub02",16,6
"1823",0,1,1228,18,21,"sub02",17,6
"1923",0,1,1098,4,17,"sub02",18,6
"2023",0,1,1064,3,2,"sub02",19,6
"2127",0,1,551,10,17,"sub02",20,6
"2225",0,1,1491,1,18,"sub02",21,6
"2323",0,1,907,12,18,"sub02",22,6
"2423",0,1,2019,10,16,"sub02",23,6
"2523",0,1,2398,11,16,"sub02",24,6
"2623",0,1,1193,21,10,"sub02",25,6
"2723",0,1,1323,12,11,"sub02",26,6
"2823",0,1,631,16,20,"sub02",27,6
"2923",0,1,89,15,18,"sub02",28,6
"3023",0,1,2487,14,3,"sub02",29,6
"3127",0,1,532,9,4,"sub02",30,6
"3225",0,0,651,9,9,"sub02",31,6
"3323",0,1,309,12,2,"sub02",32,6
"3423",0,1,345,12,9,"sub02",33,6
"3523",0,1,558,13,7,"sub02",34,6
"3623",0,1,339,3,12,"sub02",35,6
"3723",0,1,126,15,3,"sub02",36,6
"3823",0,1,1689,9,1,"sub02",37,6
"3923",0,1,1508,20,3,"sub02",38,6
"4023",0,0,522,5,5,"sub02",39,6
"4127",0,0,1454,11,11,"sub02",40,6
"4225",0,1,906,6,5,"sub02",41,6
"4323",-1,-1,0,16,17,"sub02",42,6
"4423",0,1,1367,19,17,"sub02",43,6
"4523",0,1,353,4,1,"sub02",44,6
"4623",0,1,1173,10,3,"sub02",45,6
"4723",0,1,1022,3,13,"sub02",46,6
"4823",0,1,774,20,4,"sub02",47,6
"4923",0,0,832,2,2,"sub02",48,6
"5023",1,0,800,9,8,"sub02",49,6
"5127",0,1,521,17,7,"sub02",50,6
"5225",0,1,430,5,1,"sub02",51,6
"5323",0,1,879,14,2,"sub02",52,6
"5423",0,1,351,20,14,"sub02",53,6
"5523",0,1,460,11,18,"sub02",54,6
"5623",0,1,414,7,12,"sub02",55,6
"5723",0,1,931,7,4,"sub02",56,6
"5823",0,1,282,15,2,"sub02",57,6
"5923",0,1,2187,11,7,"sub02",58,6
"6023",0,1,1403,13,1,"sub02",59,6
"6127",0,1,359,8,16,"sub02",60,6
"6225",0,1,974,14,7,"sub02",61,6
"6323",0,1,587,19,13,"sub02",62,6
"6423",0,1,575,8,4,"sub02",63,6
"6523",0,1,911,19,18,"sub02",64,6
"6623",0,0,663,12,12,"sub02",65,6
"6723",0,0,989,14,14,"sub02",66,6
"6823",0,1,1368,14,6,"sub02",67,6
"6923",0,1,991,11,14,"sub02",68,6
"7023",0,1,1370,21,7,"sub02",69,6
"7127",0,1,2212,5,18,"sub02",70,6
"7224",-1,-1,0,17,21,"sub02",71,6
"7323",0,1,890,7,15,"sub02",72,6
"7423",-1,-1,0,13,11,"sub02",73,6
"7523",0,1,1424,12,8,"sub02",74,6
"7623",0,1,2308,16,9,"sub02",75,6
"7723",0,1,986,12,17,"sub02",76,6
"7823",0,1,864,13,9,"sub02",77,6
