"","keys","accuracy","rt","Fimg","Simg","feature_index","subID","trialNum","run"
"2",0,0,1975,0,15,1,"1165ff9",1,1
"3",0,1,307,15,31,1,"1165ff9",2,1
"4",1,0,1193,31,5,1,"1165ff9",3,1
"5",0,1,937,5,29,1,"1165ff9",4,1
"6",1,1,850,29,33,1,"1165ff9",5,1
"7",0,1,874,33,14,1,"1165ff9",6,1
"8",0,0,311,14,16,1,"1165ff9",7,1
"9",1,1,539,16,11,1,"1165ff9",8,1
"10",0,1,1256,11,22,1,"1165ff9",9,1
"11",1,1,1587,22,19,1,"1165ff9",10,1
"12",0,0,2048,19,23,1,"1165ff9",11,1
"13",0,1,1511,23,1,1,"1165ff9",12,1
"14",0,1,503,1,24,1,"1165ff9",13,1
"15",0,1,587,24,13,1,"1165ff9",14,1
"16",0,1,1173,13,20,1,"1165ff9",15,1
"17",1,1,824,20,25,1,"1165ff9",16,1
"18",1,1,475,25,35,1,"1165ff9",17,1
"19",1,1,707,35,26,1,"1165ff9",18,1
"20",-1,-1,0,26,12,1,"1165ff9",19,1
"21",0,1,1504,12,21,1,"1165ff9",20,1
"22",1,1,1465,21,36,1,"1165ff9",21,1
"23",1,1,1353,36,32,1,"1165ff9",22,1
"24",1,1,385,32,34,1,"1165ff9",23,1
"25",1,1,504,34,27,1,"1165ff9",24,1
"26",0,1,468,27,7,1,"1165ff9",25,1
"27",0,0,1985,7,2,1,"1165ff9",26,1
"28",-1,-1,0,2,9,1,"1165ff9",27,1
"29",0,1,7,9,28,1,"1165ff9",28,1
"30",0,1,1377,28,4,1,"1165ff9",29,1
"31",1,1,2009,4,18,1,"1165ff9",30,1
"32",1,1,1158,18,8,1,"1165ff9",31,1
"33",-1,-1,0,8,6,1,"1165ff9",32,1
"34",1,1,1058,6,17,1,"1165ff9",33,1
"35",0,1,627,17,30,1,"1165ff9",34,1
"36",0,1,599,30,10,1,"1165ff9",35,1
"37",0,0,2042,10,3,1,"1165ff9",36,1
"38",1,1,654,3,15,1,"1165ff9",37,1
"39",0,1,810,15,31,1,"1165ff9",38,1
"40",1,0,1039,31,5,1,"1165ff9",39,1
"41",0,1,541,5,29,1,"1165ff9",40,1
"42",1,1,711,29,33,1,"1165ff9",41,1
"43",0,1,768,33,14,1,"1165ff9",42,1
"44",1,1,917,14,16,1,"1165ff9",43,1
"45",-1,-1,0,16,11,1,"1165ff9",44,1
"46",0,1,441,11,22,1,"1165ff9",45,1
"47",1,1,1586,22,19,1,"1165ff9",46,1
"48",1,1,2426,19,23,1,"1165ff9",47,1
"49",1,0,2113,23,1,1,"1165ff9",48,1
"50",0,1,659,1,24,1,"1165ff9",49,1
"51",0,1,1066,24,13,1,"1165ff9",50,1
"52",0,1,357,13,20,1,"1165ff9",51,1
"53",1,1,1294,20,25,1,"1165ff9",52,1
"54",1,1,589,25,35,1,"1165ff9",53,1
"55",-1,-1,0,35,26,1,"1165ff9",54,1
"56",1,0,1756,26,12,1,"1165ff9",55,1
"57",0,1,1375,12,21,1,"1165ff9",56,1
"58",-1,-1,0,21,36,1,"1165ff9",57,1
"59",-1,-1,0,36,32,1,"1165ff9",58,1
"60",1,1,989,32,34,1,"1165ff9",59,1
"61",1,1,182,34,27,1,"1165ff9",60,1
"62",1,0,2262,27,7,1,"1165ff9",61,1
"63",1,1,1147,7,2,1,"1165ff9",62,1
"64",1,1,1678,2,9,1,"1165ff9",63,1
"65",0,1,1118,9,28,1,"1165ff9",64,1
"66",0,1,232,28,4,1,"1165ff9",65,1
"67",1,1,504,4,18,1,"1165ff9",66,1
"68",1,1,705,18,8,1,"1165ff9",67,1
"69",1,1,658,8,6,1,"1165ff9",68,1
"70",1,1,1039,6,17,1,"1165ff9",69,1
"71",0,1,1236,17,30,1,"1165ff9",70,1
"72",0,1,2269,30,10,1,"1165ff9",71,1
"73",1,1,1631,10,3,1,"1165ff9",72,1
"74",0,1,903,3,34,1,"1165ff9",73,1
"75",-1,-1,0,34,14,1,"1165ff9",74,1
"76",1,1,1541,14,4,1,"1165ff9",75,1
"77",0,1,1166,4,22,1,"1165ff9",76,1
"78",0,1,506,22,5,1,"1165ff9",77,1
"79",1,1,1384,5,17,1,"1165ff9",78,1
"80",1,1,1544,17,6,1,"1165ff9",79,1
"81",0,1,1271,6,32,1,"1165ff9",80,1
"82",1,1,1983,32,26,1,"1165ff9",81,1
"83",0,1,818,26,7,1,"1165ff9",82,1
"84",1,1,977,7,12,1,"1165ff9",83,1
"85",0,1,899,12,30,1,"1165ff9",84,1
"86",0,1,684,30,18,1,"1165ff9",85,1
"87",0,1,1521,18,25,1,"1165ff9",86,1
"88",0,1,859,25,16,1,"1165ff9",87,1
"89",1,1,936,16,13,1,"1165ff9",88,1
"90",0,1,761,13,33,1,"1165ff9",89,1
"91",1,1,790,33,20,1,"1165ff9",90,1
"92",1,1,464,20,35,1,"1165ff9",91,1
"93",0,1,1677,35,2,1,"1165ff9",92,1
"94",0,1,386,2,28,1,"1165ff9",93,1
"95",1,1,288,28,27,1,"1165ff9",94,1
"96",1,1,564,27,19,1,"1165ff9",95,1
"97",1,1,646,19,23,1,"1165ff9",96,1
"98",0,1,1857,23,9,1,"1165ff9",97,1
"99",0,1,207,9,21,1,"1165ff9",98,1
"100",-1,-1,0,21,1,1,"1165ff9",99,1
"101",1,1,347,1,8,1,"1165ff9",100,1
"102",0,1,492,8,31,1,"1165ff9",101,1
"103",1,1,43,31,24,1,"1165ff9",102,1
"104",0,1,1942,24,15,1,"1165ff9",103,1
"105",-1,-1,0,15,11,1,"1165ff9",104,1
"106",1,1,184,11,3,1,"1165ff9",105,1
"107",0,1,1330,3,36,1,"1165ff9",106,1
"108",0,1,1421,36,10,1,"1165ff9",107,1
"109",0,1,992,10,29,1,"1165ff9",108,1
"110",1,1,871,29,26,1,"1165ff9",109,1
"111",0,1,673,26,10,1,"1165ff9",110,1
"112",1,1,892,10,17,1,"1165ff9",111,1
"113",0,1,851,17,19,1,"1165ff9",112,1
"114",0,1,369,19,3,1,"1165ff9",113,1
"115",1,1,900,3,13,1,"1165ff9",114,1
"116",0,1,925,13,34,1,"1165ff9",115,1
"117",1,1,1666,34,31,1,"1165ff9",116,1
"118",1,1,736,31,33,1,"1165ff9",117,1
"119",-1,-1,0,33,9,1,"1165ff9",118,1
"120",1,1,398,9,18,1,"1165ff9",119,1
"121",1,1,932,18,4,1,"1165ff9",120,1
"122",1,1,655,4,1,1,"1165ff9",121,1
"123",0,1,357,1,24,1,"1165ff9",122,1
"124",1,1,1129,24,29,1,"1165ff9",123,1
"125",0,1,699,29,16,1,"1165ff9",124,1
"126",1,1,1279,16,12,1,"1165ff9",125,1
"127",1,1,593,12,8,1,"1165ff9",126,1
"128",0,1,806,8,25,1,"1165ff9",127,1
"129",1,1,1356,25,20,1,"1165ff9",128,1
"130",0,1,426,20,7,1,"1165ff9",129,1
"131",0,1,587,7,22,1,"1165ff9",130,1
"132",0,1,862,22,2,1,"1165ff9",131,1
"133",1,1,887,2,5,1,"1165ff9",132,1
"134",0,1,911,5,36,1,"1165ff9",133,1
"135",1,1,934,36,21,1,"1165ff9",134,1
"136",1,1,795,21,35,1,"1165ff9",135,1
"137",0,1,1187,35,15,1,"1165ff9",136,1
"138",0,1,555,15,30,1,"1165ff9",137,1
"139",1,1,1214,30,23,1,"1165ff9",138,1
"140",1,1,621,23,27,1,"1165ff9",139,1
"141",1,1,556,27,32,1,"1165ff9",140,1
"142",0,1,938,32,6,1,"1165ff9",141,1
"143",0,1,502,6,28,1,"1165ff9",142,1
"144",0,1,1220,28,11,1,"1165ff9",143,1
"145",1,1,966,11,14,1,"1165ff9",144,1
"146",1,1,402,14,15,1,"1165ff9",145,1
"147",0,1,1559,15,23,1,"1165ff9",146,1
"148",1,1,935,23,35,1,"1165ff9",147,1
"149",0,1,671,35,3,1,"1165ff9",148,1
"150",1,1,853,3,4,1,"1165ff9",149,1
"151",1,1,538,4,10,1,"1165ff9",150,1
"152",1,1,1509,10,2,1,"1165ff9",151,1
"153",0,1,2451,2,19,1,"1165ff9",152,1
"154",1,1,1890,19,20,1,"1165ff9",153,1
"155",1,1,1828,20,21,1,"1165ff9",154,1
"156",1,1,748,21,22,1,"1165ff9",155,1
"157",0,1,2165,22,6,1,"1165ff9",156,1
"158",1,1,466,6,11,1,"1165ff9",157,1
"159",0,1,967,11,27,1,"1165ff9",158,1
"160",0,0,2496,27,33,1,"1165ff9",159,1
"161",1,1,718,33,25,1,"1165ff9",160,1
"162",1,1,1171,25,26,1,"1165ff9",161,1
"163",1,1,54,26,36,1,"1165ff9",162,1
"164",0,1,716,36,8,1,"1165ff9",163,1
"165",0,1,329,8,30,1,"1165ff9",164,1
"166",0,1,1006,30,16,1,"1165ff9",165,1
"167",1,1,1169,16,5,1,"1165ff9",166,1
"168",0,1,2350,5,34,1,"1165ff9",167,1
"169",0,1,421,34,18,1,"1165ff9",168,1
"170",1,1,1886,18,17,1,"1165ff9",169,1
"171",1,1,1138,17,12,1,"1165ff9",170,1
"172",0,1,848,12,32,1,"1165ff9",171,1
"173",0,1,467,32,13,1,"1165ff9",172,1
"174",1,1,805,13,14,1,"1165ff9",173,1
"175",0,1,780,14,24,1,"1165ff9",174,1
"176",1,1,779,24,29,1,"1165ff9",175,1
"177",1,1,671,29,31,1,"1165ff9",176,1
"178",0,1,824,31,7,1,"1165ff9",177,1
"179",1,1,836,7,1,1,"1165ff9",178,1
"180",1,1,408,1,9,1,"1165ff9",179,1
"181",0,1,1335,9,28,1,"1165ff9",180,1
"182",0,1,1585,28,16,1,"1165ff9",181,1
"183",1,1,1086,16,7,1,"1165ff9",182,1
"184",0,1,796,7,30,1,"1165ff9",183,1
"185",0,1,466,30,4,1,"1165ff9",184,1
"186",0,1,719,4,29,1,"1165ff9",185,1
"187",0,1,558,29,12,1,"1165ff9",186,1
"188",1,1,447,12,10,1,"1165ff9",187,1
"189",0,1,593,10,20,1,"1165ff9",188,1
"190",1,1,1455,20,26,1,"1165ff9",189,1
"191",0,1,1205,26,5,1,"1165ff9",190,1
"192",0,1,45,5,33,1,"1165ff9",191,1
"193",0,1,964,33,3,1,"1165ff9",192,1
"194",1,1,1727,3,18,1,"1165ff9",193,1
"195",0,1,1120,18,31,1,"1165ff9",194,1
"196",1,1,1492,31,27,1,"1165ff9",195,1
"197",0,1,890,27,8,1,"1165ff9",196,1
"198",1,1,1173,8,1,1,"1165ff9",197,1
"199",0,1,1966,1,21,1,"1165ff9",198,1
"200",0,0,2319,21,28,1,"1165ff9",199,1
"201",0,1,1348,28,2,1,"1165ff9",200,1
"202",1,1,1232,2,9,1,"1165ff9",201,1
"203",0,1,732,9,32,1,"1165ff9",202,1
"204",0,1,953,32,14,1,"1165ff9",203,1
"205",1,1,900,14,6,1,"1165ff9",204,1
"206",1,1,476,6,11,1,"1165ff9",205,1
"207",1,1,1442,11,17,1,"1165ff9",206,1
"208",0,1,1337,17,24,1,"1165ff9",207,1
"209",1,1,1275,24,23,1,"1165ff9",208,1
"210",1,1,520,23,25,1,"1165ff9",209,1
"211",0,1,948,25,13,1,"1165ff9",210,1
"212",0,1,680,13,22,1,"1165ff9",211,1
"213",0,1,984,22,15,1,"1165ff9",212,1
"214",0,1,728,15,34,1,"1165ff9",213,1
"215",1,1,478,34,36,1,"1165ff9",214,1
"216",1,1,1041,36,19,1,"1165ff9",215,1
"217",1,1,635,19,35,1,"1165ff9",216,1
"218",0,1,899,35,15,1,"1165ff9",217,1
"219",0,1,487,15,24,1,"1165ff9",218,1
"220",1,1,952,24,36,1,"1165ff9",219,1
"221",0,1,1325,36,3,1,"1165ff9",220,1
"222",0,1,561,3,19,1,"1165ff9",221,1
"223",0,1,641,19,7,1,"1165ff9",222,1
"224",0,1,1115,7,22,1,"1165ff9",223,1
"225",0,1,520,22,4,1,"1165ff9",224,1
"226",1,1,1044,4,6,1,"1165ff9",225,1
"227",0,1,921,6,33,1,"1165ff9",226,1
"228",1,1,1063,33,28,1,"1165ff9",227,1
"229",0,1,558,28,11,1,"1165ff9",228,1
"230",0,1,584,11,34,1,"1165ff9",229,1
"231",1,1,778,34,21,1,"1165ff9",230,1
"232",1,1,1335,21,25,1,"1165ff9",231,1
"233",1,1,395,25,31,1,"1165ff9",232,1
"234",0,1,392,31,16,1,"1165ff9",233,1
"235",1,1,518,16,2,1,"1165ff9",234,1
"236",1,1,1358,2,9,1,"1165ff9",235,1
"237",0,1,483,9,23,1,"1165ff9",236,1
"238",1,1,433,23,20,1,"1165ff9",237,1
"239",0,1,1063,20,18,1,"1165ff9",238,1
"240",0,1,521,18,30,1,"1165ff9",239,1
"241",0,1,1232,30,13,1,"1165ff9",240,1
"242",-1,-1,0,13,5,1,"1165ff9",241,1
"243",1,0,2314,5,26,1,"1165ff9",242,1
"244",1,1,1337,26,29,1,"1165ff9",243,1
"245",1,1,491,29,27,1,"1165ff9",244,1
"246",1,1,817,27,35,1,"1165ff9",245,1
"247",0,1,2379,35,10,1,"1165ff9",246,1
"248",1,1,964,10,17,1,"1165ff9",247,1
"249",1,1,1129,17,8,1,"1165ff9",248,1
"250",0,1,459,8,32,1,"1165ff9",249,1
"251",0,1,823,32,12,1,"1165ff9",250,1
"252",1,1,2375,12,1,1,"1165ff9",251,1
"253",1,1,660,1,14,1,"1165ff9",252,1
"254",-1,-1,0,0,7,1,"1c8fb86",1,1
"310",0,1,500,7,30,1,"1c8fb86",2,1
"410",0,1,500,30,10,1,"1c8fb86",3,1
"510",0,0,700,10,4,1,"1c8fb86",4,1
"610",0,0,500,4,14,1,"1c8fb86",5,1
"710",1,0,700,14,19,1,"1c8fb86",6,1
"810",1,1,1000,19,22,1,"1c8fb86",7,1
"910",1,0,700,22,8,1,"1c8fb86",8,1
"1010",0,1,500,8,36,1,"1c8fb86",9,1
"1110",0,1,300,36,3,1,"1c8fb86",10,1
"1210",0,1,300,3,29,1,"1c8fb86",11,1
"1310",0,1,200,29,18,1,"1c8fb86",12,1
"1410",1,0,700,18,23,1,"1c8fb86",13,1
"1510",1,1,800,23,31,1,"1c8fb86",14,1
"1610",0,1,800,31,1,1,"1c8fb86",15,1
"1710",0,1,1200,1,32,1,"1c8fb86",16,1
"1810",1,0,400,32,13,1,"1c8fb86",17,1
"1910",0,1,100,13,24,1,"1c8fb86",18,1
"2010",0,1,300,24,5,1,"1c8fb86",19,1
"2110",0,0,300,5,15,1,"1c8fb86",20,1
"2210",0,1,300,15,26,1,"1c8fb86",21,1
"2310",0,0,100,26,21,1,"1c8fb86",22,1
"2410",0,0,500,21,35,1,"1c8fb86",23,1
"255",0,1,300,35,12,1,"1c8fb86",24,1
"261",0,0,400,12,2,1,"1c8fb86",25,1
"271",0,1,400,2,25,1,"1c8fb86",26,1
"281",0,1,300,25,11,1,"1c8fb86",27,1
"291",0,1,400,11,28,1,"1c8fb86",28,1
"301",1,1,800,28,34,1,"1c8fb86",29,1
"311",1,0,600,34,9,1,"1c8fb86",30,1
"321",0,0,300,9,17,1,"1c8fb86",31,1
"331",0,0,100,17,16,1,"1c8fb86",32,1
"341",0,1,500,16,20,1,"1c8fb86",33,1
"351",1,1,400,20,33,1,"1c8fb86",34,1
"361",0,1,400,33,6,1,"1c8fb86",35,1
"371",0,1,900,6,27,1,"1c8fb86",36,1
"381",1,0,600,27,7,1,"1c8fb86",37,1
"391",0,1,300,7,30,1,"1c8fb86",38,1
"401",0,1,300,30,10,1,"1c8fb86",39,1
"411",1,1,500,10,4,1,"1c8fb86",40,1
"421",0,0,300,4,14,1,"1c8fb86",41,1
"431",0,1,300,14,19,1,"1c8fb86",42,1
"441",1,1,700,19,22,1,"1c8fb86",43,1
"451",0,1,400,22,8,1,"1c8fb86",44,1
"461",1,0,300,8,36,1,"1c8fb86",45,1
"471",0,1,200,36,3,1,"1c8fb86",46,1
"481",0,1,400,3,29,1,"1c8fb86",47,1
"491",1,0,200,29,18,1,"1c8fb86",48,1
"501",0,1,400,18,23,1,"1c8fb86",49,1
"511",0,0,400,23,31,1,"1c8fb86",50,1
"521",0,1,700,31,1,1,"1c8fb86",51,1
"531",1,0,500,1,32,1,"1c8fb86",52,1
"541",0,1,500,32,13,1,"1c8fb86",53,1
"551",1,0,400,13,24,1,"1c8fb86",54,1
"561",0,1,500,24,5,1,"1c8fb86",55,1
"571",0,0,500,5,15,1,"1c8fb86",56,1
"581",0,1,300,15,26,1,"1c8fb86",57,1
"591",1,1,800,26,21,1,"1c8fb86",58,1
"601",1,1,600,21,35,1,"1c8fb86",59,1
"611",0,1,500,35,12,1,"1c8fb86",60,1
"621",1,1,400,12,2,1,"1c8fb86",61,1
"631",0,1,400,2,25,1,"1c8fb86",62,1
"641",1,0,400,25,11,1,"1c8fb86",63,1
"651",1,0,800,11,28,1,"1c8fb86",64,1
"661",0,0,1000,28,34,1,"1c8fb86",65,1
"671",0,1,700,34,9,1,"1c8fb86",66,1
"681",1,1,200,9,17,1,"1c8fb86",67,1
"691",0,0,200,17,16,1,"1c8fb86",68,1
"701",1,0,300,16,20,1,"1c8fb86",69,1
"711",0,0,300,20,33,1,"1c8fb86",70,1
"721",1,0,400,33,6,1,"1c8fb86",71,1
"731",1,0,600,6,27,1,"1c8fb86",72,1
"741",0,1,500,27,6,1,"1c8fb86",73,1
"751",1,1,300,6,8,1,"1c8fb86",74,1
"761",0,0,300,8,12,1,"1c8fb86",75,1
"771",1,1,200,12,9,1,"1c8fb86",76,1
"781",0,1,300,9,32,1,"1c8fb86",77,1
"791",0,1,500,32,15,1,"1c8fb86",78,1
"801",1,1,300,15,7,1,"1c8fb86",79,1
"811",0,1,200,7,21,1,"1c8fb86",80,1
"821",1,0,500,21,4,1,"1c8fb86",81,1
"831",0,0,200,4,1,1,"1c8fb86",82,1
"841",0,1,400,1,26,1,"1c8fb86",83,1
"851",1,0,400,26,13,1,"1c8fb86",84,1
"861",0,0,400,13,11,1,"1c8fb86",85,1
"871",0,1,500,11,27,1,"1c8fb86",86,1
"881",1,0,500,27,5,1,"1c8fb86",87,1
"891",0,0,600,5,3,1,"1c8fb86",88,1
"901",0,0,400,3,18,1,"1c8fb86",89,1
"911",0,1,800,18,23,1,"1c8fb86",90,1
"921",1,1,400,23,28,1,"1c8fb86",91,1
"931",0,1,300,28,16,1,"1c8fb86",92,1
"941",1,0,300,16,34,1,"1c8fb86",93,1
"951",0,0,300,34,35,1,"1c8fb86",94,1
"961",1,1,400,35,24,1,"1c8fb86",95,1
"971",0,0,400,24,30,1,"1c8fb86",96,1
"981",1,1,600,30,20,1,"1c8fb86",97,1
"991",0,0,400,20,31,1,"1c8fb86",98,1
"1001",0,0,200,31,19,1,"1c8fb86",99,1
"1011",1,0,400,19,17,1,"1c8fb86",100,1
"1021",0,0,400,17,2,1,"1c8fb86",101,1
"1031",0,1,400,2,22,1,"1c8fb86",102,1
"1041",1,0,400,22,14,1,"1c8fb86",103,1
"1051",0,1,900,14,29,1,"1c8fb86",104,1
"1061",0,0,900,29,36,1,"1c8fb86",105,1
"1071",1,1,1000,36,33,1,"1c8fb86",106,1
"1081",0,1,900,33,10,1,"1c8fb86",107,1
"1091",1,0,900,10,25,1,"1c8fb86",108,1
"1101",1,1,1000,25,33,1,"1c8fb86",109,1
"1111",0,1,1100,33,12,1,"1c8fb86",110,1
"1121",1,1,1200,12,14,1,"1c8fb86",111,1
"1131",1,1,1400,14,10,1,"1c8fb86",112,1
"1141",1,1,1100,10,9,1,"1c8fb86",113,1
"1151",1,0,1000,9,35,1,"1c8fb86",114,1
"1161",1,1,1200,35,23,1,"1c8fb86",115,1
"1171",0,0,1000,23,30,1,"1c8fb86",116,1
"1181",1,1,1100,30,34,1,"1c8fb86",117,1
"1191",1,1,1300,34,36,1,"1c8fb86",118,1
"1201",0,1,1500,36,18,1,"1c8fb86",119,1
"1211",1,1,1400,18,15,1,"1c8fb86",120,1
"1221",1,1,700,15,13,1,"1c8fb86",121,1
"1231",0,0,1100,13,16,1,"1c8fb86",122,1
"1241",1,1,1100,16,4,1,"1c8fb86",123,1
"1251",1,1,1000,4,1,1,"1c8fb86",124,1
"1261",1,0,1000,1,25,1,"1c8fb86",125,1
"1271",0,0,800,25,32,1,"1c8fb86",126,1
"1281",1,0,1200,32,17,1,"1c8fb86",127,1
"1291",1,0,800,17,22,1,"1c8fb86",128,1
"1301",1,0,1200,22,2,1,"1c8fb86",129,1
"1311",1,1,900,2,6,1,"1c8fb86",130,1
"1321",1,0,900,6,26,1,"1c8fb86",131,1
"1331",1,0,700,26,11,1,"1c8fb86",132,1
"1341",1,1,1100,11,5,1,"1c8fb86",133,1
"1351",0,0,700,5,8,1,"1c8fb86",134,1
"1361",1,1,700,8,7,1,"1c8fb86",135,1
"1371",0,0,500,7,3,1,"1c8fb86",136,1
"1381",1,0,800,3,29,1,"1c8fb86",137,1
"1391",0,0,400,29,21,1,"1c8fb86",138,1
"1401",1,1,200,21,28,1,"1c8fb86",139,1
"1411",0,0,400,28,19,1,"1c8fb86",140,1
"1421",0,0,700,19,31,1,"1c8fb86",141,1
"1431",1,1,300,31,24,1,"1c8fb86",142,1
"1441",0,0,600,24,20,1,"1c8fb86",143,1
"1451",1,1,600,20,27,1,"1c8fb86",144,1
"1461",0,0,300,27,28,1,"1c8fb86",145,1
"1471",1,0,500,28,2,1,"1c8fb86",146,1
"1481",0,0,300,2,1,1,"1c8fb86",147,1
"1491",1,1,1100,1,7,1,"1c8fb86",148,1
"1501",1,0,700,7,36,1,"1c8fb86",149,1
"1511",0,0,400,36,30,1,"1c8fb86",150,1
"1521",1,1,400,30,32,1,"1c8fb86",151,1
"1531",0,0,400,32,34,1,"1c8fb86",152,1
"1541",0,1,500,34,13,1,"1c8fb86",153,1
"1551",1,1,300,13,5,1,"1c8fb86",154,1
"1561",0,0,400,5,3,1,"1c8fb86",155,1
"1571",0,0,300,3,6,1,"1c8fb86",156,1
"1581",0,1,1100,6,27,1,"1c8fb86",157,1
"1591",1,1,1000,27,29,1,"1c8fb86",158,1
"1601",1,1,1200,29,35,1,"1c8fb86",159,1
"1611",1,1,800,35,25,1,"1c8fb86",160,1
"1621",1,1,700,25,33,1,"1c8fb86",161,1
"1631",0,0,1000,33,26,1,"1c8fb86",162,1
"1641",0,0,1000,26,24,1,"1c8fb86",163,1
"1651",1,0,700,24,16,1,"1c8fb86",164,1
"1661",1,1,900,16,14,1,"1c8fb86",165,1
"1671",0,1,900,14,21,1,"1c8fb86",166,1
"1681",1,1,600,21,20,1,"1c8fb86",167,1
"1691",1,0,700,20,18,1,"1c8fb86",168,1
"1701",0,0,900,18,15,1,"1c8fb86",169,1
"1711",1,1,500,15,8,1,"1c8fb86",170,1
"1721",1,0,500,8,23,1,"1c8fb86",171,1
"1731",1,0,700,23,17,1,"1c8fb86",172,1
"1741",1,1,400,17,9,1,"1c8fb86",173,1
"1751",0,0,400,9,10,1,"1c8fb86",174,1
"1761",1,1,500,10,11,1,"1c8fb86",175,1
"1771",1,0,300,11,22,1,"1c8fb86",176,1
"1781",0,1,200,22,12,1,"1c8fb86",177,1
"1791",1,1,600,12,4,1,"1c8fb86",178,1
"1801",0,1,400,4,19,1,"1c8fb86",179,1
"1811",1,1,200,19,31,1,"1c8fb86",180,1
"1821",0,0,400,31,30,1,"1c8fb86",181,1
"1831",1,0,200,30,13,1,"1c8fb86",182,1
"1841",0,0,300,13,15,1,"1c8fb86",183,1
"1851",0,0,500,15,6,1,"1c8fb86",184,1
"1861",1,1,300,6,2,1,"1c8fb86",185,1
"1871",1,0,400,2,22,1,"1c8fb86",186,1
"1881",0,1,400,22,12,1,"1c8fb86",187,1
"1891",0,1,300,12,25,1,"1c8fb86",188,1
"1901",0,1,300,25,18,1,"1c8fb86",189,1
"1911",1,0,200,18,26,1,"1c8fb86",190,1
"1921",0,0,300,26,36,1,"1c8fb86",191,1
"1931",1,1,200,36,24,1,"1c8fb86",192,1
"1941",0,0,400,24,23,1,"1c8fb86",193,1
"1951",1,1,200,23,28,1,"1c8fb86",194,1
"1961",0,1,800,28,16,1,"1c8fb86",195,1
"1971",1,0,700,16,32,1,"1c8fb86",196,1
"1981",0,0,600,32,35,1,"1c8fb86",197,1
"1991",0,1,800,35,17,1,"1c8fb86",198,1
"2001",1,1,800,17,7,1,"1c8fb86",199,1
"2011",1,1,600,7,1,1,"1c8fb86",200,1
"2021",0,1,700,1,33,1,"1c8fb86",201,1
"2031",1,0,800,33,8,1,"1c8fb86",202,1
"2041",0,0,700,8,14,1,"1c8fb86",203,1
"2051",1,0,1100,14,27,1,"1c8fb86",204,1
"2061",0,0,900,27,19,1,"1c8fb86",205,1
"2071",0,1,1100,19,11,1,"1c8fb86",206,1
"2081",0,1,700,11,31,1,"1c8fb86",207,1
"2091",1,1,300,31,34,1,"1c8fb86",208,1
"2101",1,0,600,34,10,1,"1c8fb86",209,1
"2111",0,1,400,10,21,1,"1c8fb86",210,1
"2121",1,0,300,21,3,1,"1c8fb86",211,1
"2131",0,0,300,3,4,1,"1c8fb86",212,1
"2141",1,0,500,4,29,1,"1c8fb86",213,1
"2151",1,1,500,29,20,1,"1c8fb86",214,1
"2161",0,1,400,20,9,1,"1c8fb86",215,1
"2171",1,1,300,9,5,1,"1c8fb86",216,1
"2181",0,0,300,5,4,1,"1c8fb86",217,1
"2191",1,1,300,4,1,1,"1c8fb86",218,1
"2201",0,0,300,1,16,1,"1c8fb86",219,1
"2211",1,1,300,16,2,1,"1c8fb86",220,1
"2221",0,1,1000,2,36,1,"1c8fb86",221,1
"2231",1,0,700,36,9,1,"1c8fb86",222,1
"2241",0,0,100,9,3,1,"1c8fb86",223,1
"2251",0,1,300,3,19,1,"1c8fb86",224,1
"2261",1,1,200,19,28,1,"1c8fb86",225,1
"2271",0,1,300,28,12,1,"1c8fb86",226,1
"2281",1,1,300,12,17,1,"1c8fb86",227,1
"2291",0,1,300,17,25,1,"1c8fb86",228,1
"2301",1,1,400,25,29,1,"1c8fb86",229,1
"2311",0,0,300,29,34,1,"1c8fb86",230,1
"2321",1,1,800,34,20,1,"1c8fb86",231,1
"2331",0,1,600,20,5,1,"1c8fb86",232,1
"2341",1,0,300,5,30,1,"1c8fb86",233,1
"2351",0,0,400,30,26,1,"1c8fb86",234,1
"2361",0,1,500,26,18,1,"1c8fb86",235,1
"2371",1,1,700,18,14,1,"1c8fb86",236,1
"2381",1,0,600,14,23,1,"1c8fb86",237,1
"2391",0,1,400,23,11,1,"1c8fb86",238,1
"2401",1,0,400,11,35,1,"1c8fb86",239,1
"2411",0,1,300,35,13,1,"1c8fb86",240,1
"2421",0,0,400,13,15,1,"1c8fb86",241,1
"2431",1,0,400,15,22,1,"1c8fb86",242,1
"2441",1,1,700,22,27,1,"1c8fb86",243,1
"2451",1,1,700,27,32,1,"1c8fb86",244,1
"2461",1,1,600,32,21,1,"1c8fb86",245,1
"2471",0,1,400,21,10,1,"1c8fb86",246,1
"2481",1,0,300,10,31,1,"1c8fb86",247,1
"2491",0,0,400,31,24,1,"1c8fb86",248,1
"2501",0,1,400,24,7,1,"1c8fb86",249,1
"2511",1,0,400,7,33,1,"1c8fb86",250,1
"2521",0,1,600,33,8,1,"1c8fb86",251,1
"2531",1,1,300,8,6,1,"1c8fb86",252,1
"256",1,0,873,0,13,1,"144e2e5",1,1
"312",0,1,863,13,36,1,"144e2e5",2,1
"412",0,1,373,36,10,1,"144e2e5",3,1
"512",1,0,572,10,21,1,"144e2e5",4,1
"612",1,1,435,21,27,1,"144e2e5",5,1
"712",1,1,648,27,32,1,"144e2e5",6,1
"812",1,0,730,32,2,1,"144e2e5",7,1
"912",1,0,692,2,20,1,"144e2e5",8,1
"1012",0,1,435,20,6,1,"144e2e5",9,1
"1112",0,1,444,6,31,1,"144e2e5",10,1
"1212",1,1,339,31,28,1,"144e2e5",11,1
"1312",1,1,263,28,35,1,"144e2e5",12,1
"1412",0,1,346,35,17,1,"144e2e5",13,1
"1512",0,0,455,17,8,1,"144e2e5",14,1
"1612",1,0,363,8,24,1,"144e2e5",15,1
"1712",1,0,275,24,16,1,"144e2e5",16,1
"1812",0,1,284,16,34,1,"144e2e5",17,1
"1912",0,1,132,34,14,1,"144e2e5",18,1
"2012",1,1,301,14,4,1,"144e2e5",19,1
"2112",1,0,396,4,23,1,"144e2e5",20,1
"2212",1,0,302,23,7,1,"144e2e5",21,1
"2312",1,1,255,7,15,1,"144e2e5",22,1
"2412",0,1,437,15,30,1,"144e2e5",23,1
"257",1,0,300,30,1,1,"144e2e5",24,1
"262",1,0,162,1,33,1,"144e2e5",25,1
"272",1,0,312,33,9,1,"144e2e5",26,1
"282",0,1,120,9,22,1,"144e2e5",27,1
"292",0,0,257,22,26,1,"144e2e5",28,1
"302",0,1,202,26,18,1,"144e2e5",29,1
"313",0,1,300,18,19,1,"144e2e5",30,1
"322",1,0,221,19,12,1,"144e2e5",31,1
"332",1,1,286,12,5,1,"144e2e5",32,1
"342",1,0,294,5,25,1,"144e2e5",33,1
"352",1,1,301,25,29,1,"144e2e5",34,1
"362",0,1,483,29,11,1,"144e2e5",35,1
"372",0,0,585,11,3,1,"144e2e5",36,1
"382",1,1,234,3,13,1,"144e2e5",37,1
"392",1,0,312,13,36,1,"144e2e5",38,1
"402",1,0,388,36,10,1,"144e2e5",39,1
"413",1,0,157,10,21,1,"144e2e5",40,1
"422",1,1,282,21,27,1,"144e2e5",41,1
"432",0,0,355,27,32,1,"144e2e5",42,1
"442",1,0,192,32,2,1,"144e2e5",43,1
"452",0,1,1160,2,20,1,"144e2e5",44,1
"462",0,1,1609,20,6,1,"144e2e5",45,1
"472",1,0,1539,6,31,1,"144e2e5",46,1
"482",0,0,1578,31,28,1,"144e2e5",47,1
"492",0,0,1123,28,35,1,"144e2e5",48,1
"502",0,1,584,35,17,1,"144e2e5",49,1
"513",1,1,759,17,8,1,"144e2e5",50,1
"522",1,0,533,8,24,1,"144e2e5",51,1
"532",1,0,422,24,16,1,"144e2e5",52,1
"542",1,0,948,16,34,1,"144e2e5",53,1
"552",1,0,572,34,14,1,"144e2e5",54,1
"562",1,1,470,14,4,1,"144e2e5",55,1
"572",0,1,361,4,23,1,"144e2e5",56,1
"582",0,1,761,23,7,1,"144e2e5",57,1
"592",0,0,611,7,15,1,"144e2e5",58,1
"602",0,1,339,15,30,1,"144e2e5",59,1
"613",0,1,315,30,1,1,"144e2e5",60,1
"622",1,0,515,1,33,1,"144e2e5",61,1
"632",1,0,331,33,9,1,"144e2e5",62,1
"642",1,0,306,9,22,1,"144e2e5",63,1
"652",1,1,346,22,26,1,"144e2e5",64,1
"662",1,0,600,26,18,1,"144e2e5",65,1
"672",0,1,1479,18,19,1,"144e2e5",66,1
"682",0,1,1217,19,12,1,"144e2e5",67,1
"692",1,1,1079,12,5,1,"144e2e5",68,1
"702",0,1,762,5,25,1,"144e2e5",69,1
"713",1,1,843,25,29,1,"144e2e5",70,1
"722",1,0,835,29,11,1,"144e2e5",71,1
"732",1,1,698,11,3,1,"144e2e5",72,1
"742",0,1,1091,3,28,1,"144e2e5",73,1
"752",1,0,707,28,8,1,"144e2e5",74,1
"762",1,1,716,8,2,1,"144e2e5",75,1
"772",0,0,363,2,13,1,"144e2e5",76,1
"782",1,1,1057,13,15,1,"144e2e5",77,1
"792",1,1,1242,15,17,1,"144e2e5",78,1
"802",1,1,1079,17,7,1,"144e2e5",79,1
"813",0,1,921,7,22,1,"144e2e5",80,1
"822",0,1,882,22,5,1,"144e2e5",81,1
"832",1,1,888,5,9,1,"144e2e5",82,1
"842",1,1,520,9,4,1,"144e2e5",83,1
"852",0,0,745,4,6,1,"144e2e5",84,1
"862",0,0,298,6,10,1,"144e2e5",85,1
"872",0,1,586,10,35,1,"144e2e5",86,1
"882",1,0,497,35,11,1,"144e2e5",87,1
"892",1,0,375,11,20,1,"144e2e5",88,1
"902",1,1,304,20,36,1,"144e2e5",89,1
"913",1,1,328,36,34,1,"144e2e5",90,1
"922",0,0,383,34,33,1,"144e2e5",91,1
"932",0,1,455,33,16,1,"144e2e5",92,1
"942",0,1,384,16,25,1,"144e2e5",93,1
"952",0,0,616,25,29,1,"144e2e5",94,1
"962",0,0,1408,29,24,1,"144e2e5",95,1
"972",1,1,429,24,21,1,"144e2e5",96,1
"982",1,1,1159,21,27,1,"144e2e5",97,1
"992",0,0,1014,27,26,1,"144e2e5",98,1
"1002",0,0,948,26,30,1,"144e2e5",99,1
"1013",1,0,481,30,3,1,"144e2e5",100,1
"1022",1,1,450,3,14,1,"144e2e5",101,1
"1032",1,1,666,14,12,1,"144e2e5",102,1
"1042",0,1,407,12,32,1,"144e2e5",103,1
"1052",0,1,433,32,1,1,"144e2e5",104,1
"1062",0,1,415,1,23,1,"144e2e5",105,1
"1072",1,1,402,23,19,1,"144e2e5",106,1
"1082",0,1,658,19,18,1,"144e2e5",107,1
"1092",1,0,483,18,31,1,"144e2e5",108,1
"1102",1,0,425,31,2,1,"144e2e5",109,1
"1113",1,0,354,2,23,1,"144e2e5",110,1
"1122",1,1,66,23,21,1,"144e2e5",111,1
"1132",0,1,497,21,9,1,"144e2e5",112,1
"1142",0,1,784,9,33,1,"144e2e5",113,1
"1152",1,0,323,33,1,1,"144e2e5",114,1
"1162",1,0,268,1,36,1,"144e2e5",115,1
"1172",1,0,307,36,16,1,"144e2e5",116,1
"1182",1,0,358,16,25,1,"144e2e5",117,1
"1192",1,1,406,25,29,1,"144e2e5",118,1
"1202",1,0,886,29,10,1,"144e2e5",119,1
"1213",0,0,1319,10,4,1,"144e2e5",120,1
"1222",1,1,1618,4,8,1,"144e2e5",121,1
"1232",0,1,1036,8,31,1,"144e2e5",122,1
"1242",1,1,1052,31,28,1,"144e2e5",123,1
"1252",0,1,673,28,3,1,"144e2e5",124,1
"1262",1,0,850,3,30,1,"144e2e5",125,1
"1272",1,1,832,30,19,1,"144e2e5",126,1
"1282",0,1,800,19,7,1,"144e2e5",127,1
"1292",1,1,338,7,17,1,"144e2e5",128,1
"1302",0,0,267,17,13,1,"144e2e5",129,1
"1313",0,1,402,13,35,1,"144e2e5",130,1
"1322",1,1,474,35,27,1,"144e2e5",131,1
"1332",0,1,337,27,11,1,"144e2e5",132,1
"1342",1,0,351,11,24,1,"144e2e5",133,1
"1352",1,1,345,24,32,1,"144e2e5",134,1
"1362",0,0,573,32,20,1,"144e2e5",135,1
"1372",0,0,494,20,22,1,"144e2e5",136,1
"1382",0,1,680,22,6,1,"144e2e5",137,1
"1392",1,1,480,6,18,1,"144e2e5",138,1
"1402",1,1,510,18,14,1,"144e2e5",139,1
"1413",0,1,501,14,34,1,"144e2e5",140,1
"1422",0,1,629,34,5,1,"144e2e5",141,1
"1432",0,1,301,5,26,1,"144e2e5",142,1
"1442",1,0,445,26,12,1,"144e2e5",143,1
"1452",1,1,351,12,15,1,"144e2e5",144,1
"1462",0,1,649,15,25,1,"144e2e5",145,1
"1472",0,1,441,25,14,1,"144e2e5",146,1
"1482",0,0,416,14,15,1,"144e2e5",147,1
"1492",0,1,368,15,35,1,"144e2e5",148,1
"1502",0,1,526,35,9,1,"144e2e5",149,1
"1513",0,1,389,9,22,1,"144e2e5",150,1
"1522",1,1,427,22,20,1,"144e2e5",151,1
"1532",0,0,492,20,31,1,"144e2e5",152,1
"1542",0,1,370,31,13,1,"144e2e5",153,1
"1552",0,0,346,13,2,1,"144e2e5",154,1
"1562",0,0,318,2,7,1,"144e2e5",155,1
"1572",1,1,141,7,12,1,"144e2e5",156,1
"1582",1,0,901,12,19,1,"144e2e5",157,1
"1592",1,1,898,19,21,1,"144e2e5",158,1
"1602",1,1,951,21,23,1,"144e2e5",159,1
"1613",1,1,525,23,34,1,"144e2e5",160,1
"1622",1,1,406,34,29,1,"144e2e5",161,1
"1632",0,0,532,29,26,1,"144e2e5",162,1
"1642",0,0,452,26,33,1,"144e2e5",163,1
"1652",1,1,461,33,32,1,"144e2e5",164,1
"1662",1,0,517,32,11,1,"144e2e5",165,1
"1672",1,0,350,11,28,1,"144e2e5",166,1
"1682",1,1,474,28,30,1,"144e2e5",167,1
"1692",0,0,362,30,36,1,"144e2e5",168,1
"1702",0,0,282,36,27,1,"144e2e5",169,1
"1713",0,1,302,27,10,1,"144e2e5",170,1
"1722",1,1,469,10,18,1,"144e2e5",171,1
"1732",1,1,462,18,1,1,"144e2e5",172,1
"1742",0,1,965,1,24,1,"144e2e5",173,1
"1752",1,0,793,24,16,1,"144e2e5",174,1
"1762",1,1,631,16,8,1,"144e2e5",175,1
"1772",0,0,480,8,5,1,"144e2e5",176,1
"1782",1,1,822,5,4,1,"144e2e5",177,1
"1792",1,1,520,4,6,1,"144e2e5",178,1
"1802",1,1,485,6,3,1,"144e2e5",179,1
"1813",0,0,469,3,17,1,"144e2e5",180,1
"1822",0,0,408,17,2,1,"144e2e5",181,1
"1832",1,0,326,2,21,1,"144e2e5",182,1
"1842",1,0,335,21,18,1,"144e2e5",183,1
"1852",1,0,387,18,36,1,"144e2e5",184,1
"1862",1,0,332,36,5,1,"144e2e5",185,1
"1872",0,1,394,5,33,1,"144e2e5",186,1
"1882",0,0,266,33,34,1,"144e2e5",187,1
"1892",0,1,338,34,13,1,"144e2e5",188,1
"1902",1,0,297,13,22,1,"144e2e5",189,1
"1913",0,0,367,22,26,1,"144e2e5",190,1
"1922",1,0,392,26,1,1,"144e2e5",191,1
"1932",1,1,447,1,16,1,"144e2e5",192,1
"1942",0,0,521,16,17,1,"144e2e5",193,1
"1952",0,1,600,17,31,1,"144e2e5",194,1
"1962",1,0,410,31,12,1,"144e2e5",195,1
"1972",1,0,502,12,30,1,"144e2e5",196,1
"1982",1,0,350,30,14,1,"144e2e5",197,1
"1992",1,0,343,14,32,1,"144e2e5",198,1
"2002",0,0,445,32,27,1,"144e2e5",199,1
"2013",0,0,444,27,20,1,"144e2e5",200,1
"2022",1,0,1342,20,8,1,"144e2e5",201,1
"2032",1,0,989,8,35,1,"144e2e5",202,1
"2042",1,1,366,35,24,1,"144e2e5",203,1
"2052",0,1,871,24,15,1,"144e2e5",204,1
"2062",1,1,1000,15,11,1,"144e2e5",205,1
"2072",0,0,785,11,6,1,"144e2e5",206,1
"2082",1,0,531,6,28,1,"144e2e5",207,1
"2092",1,0,610,28,4,1,"144e2e5",208,1
"2102",1,0,460,4,25,1,"144e2e5",209,1
"2113",1,1,1109,25,19,1,"144e2e5",210,1
"2122",0,0,419,19,23,1,"144e2e5",211,1
"2132",0,0,468,23,29,1,"144e2e5",212,1
"2142",0,1,424,29,3,1,"144e2e5",213,1
"2152",1,1,430,3,10,1,"144e2e5",214,1
"2162",0,0,671,10,9,1,"144e2e5",215,1
"2172",1,1,344,9,7,1,"144e2e5",216,1
"2182",1,0,377,7,34,1,"144e2e5",217,1
"2192",1,0,433,34,2,1,"144e2e5",218,1
"2202",0,1,523,2,36,1,"144e2e5",219,1
"2213",0,0,338,36,31,1,"144e2e5",220,1
"2222",1,1,553,31,20,1,"144e2e5",221,1
"2232",1,0,506,20,7,1,"144e2e5",222,1
"2242",0,1,386,7,24,1,"144e2e5",223,1
"2252",1,0,441,24,15,1,"144e2e5",224,1
"2262",1,0,489,15,23,1,"144e2e5",225,1
"2272",1,0,881,23,18,1,"144e2e5",226,1
"2282",0,1,219,18,26,1,"144e2e5",227,1
"2292",0,0,444,26,33,1,"144e2e5",228,1
"2302",0,1,621,33,13,1,"144e2e5",229,1
"2313",1,0,512,13,25,1,"144e2e5",230,1
"2322",1,1,360,25,19,1,"144e2e5",231,1
"2332",1,1,416,19,30,1,"144e2e5",232,1
"2342",1,1,636,30,28,1,"144e2e5",233,1
"2352",0,0,411,28,22,1,"144e2e5",234,1
"2362",0,1,542,22,17,1,"144e2e5",235,1
"2372",1,0,2003,17,29,1,"144e2e5",236,1
"2382",0,1,100,29,6,1,"144e2e5",237,1
"2392",1,1,332,6,8,1,"144e2e5",238,1
"2402",1,0,566,8,32,1,"144e2e5",239,1
"2413",1,0,427,32,10,1,"144e2e5",240,1
"2422",0,0,330,10,5,1,"144e2e5",241,1
"2432",0,0,355,5,3,1,"144e2e5",242,1
"2442",0,0,424,3,1,1,"144e2e5",243,1
"2452",0,0,473,1,14,1,"144e2e5",244,1
"2462",1,1,986,14,11,1,"144e2e5",245,1
"2472",1,1,299,11,16,1,"144e2e5",246,1
"2482",1,0,393,16,21,1,"144e2e5",247,1
"2492",1,1,290,21,35,1,"144e2e5",248,1
"2502",0,1,515,35,4,1,"144e2e5",249,1
"2512",0,1,377,4,27,1,"144e2e5",250,1
"2522",1,0,311,27,9,1,"144e2e5",251,1
"2532",1,1,373,9,12,1,"144e2e5",252,1
"258",-1,-1,0,0,9,1,"13c88ec",1,1
"314",-1,0,308,9,15,1,"13c88ec",2,1
"414",-1,-1,0,15,4,1,"13c88ec",3,1
"514",-1,0,1787,4,8,1,"13c88ec",4,1
"614",-1,-1,0,8,14,1,"13c88ec",5,1
"714",-1,0,2015,14,13,1,"13c88ec",6,1
"814",-1,-1,0,13,12,1,"13c88ec",7,1
"914",-1,0,1780,12,16,1,"13c88ec",8,1
"1014",-1,-1,0,16,24,1,"13c88ec",9,1
"1114",-1,0,2120,24,7,1,"13c88ec",10,1
"1214",-1,-1,0,7,23,1,"13c88ec",11,1
"1314",-1,0,1169,23,6,1,"13c88ec",12,1
"1414",-1,-1,0,6,32,1,"13c88ec",13,1
"1514",-1,0,719,32,20,1,"13c88ec",14,1
"1614",-1,-1,0,20,11,1,"13c88ec",15,1
"1714",-1,0,1387,11,2,1,"13c88ec",16,1
"1814",-1,-1,0,2,19,1,"13c88ec",17,1
"1914",-1,0,1752,19,5,1,"13c88ec",18,1
"2014",-1,-1,0,5,10,1,"13c88ec",19,1
"2114",-1,0,1905,10,29,1,"13c88ec",20,1
"2214",-1,-1,0,29,1,1,"13c88ec",21,1
"2314",-1,0,1485,1,34,1,"13c88ec",22,1
"2414",-1,-1,0,34,28,1,"13c88ec",23,1
"259",-1,0,1425,28,22,1,"13c88ec",24,1
"263",-1,-1,0,22,3,1,"13c88ec",25,1
"273",-1,0,1218,3,31,1,"13c88ec",26,1
"283",-1,-1,0,31,18,1,"13c88ec",27,1
"293",-1,0,1188,18,35,1,"13c88ec",28,1
"303",-1,-1,0,35,30,1,"13c88ec",29,1
"315",-1,0,1130,30,36,1,"13c88ec",30,1
"323",-1,-1,0,36,33,1,"13c88ec",31,1
"333",-1,0,1439,33,25,1,"13c88ec",32,1
"343",-1,-1,0,25,27,1,"13c88ec",33,1
"353",-1,0,1361,27,17,1,"13c88ec",34,1
"363",-1,-1,0,17,21,1,"13c88ec",35,1
"373",-1,0,2072,21,26,1,"13c88ec",36,1
"383",-1,-1,0,26,9,1,"13c88ec",37,1
"393",-1,0,1215,9,15,1,"13c88ec",38,1
"403",-1,0,1821,15,4,1,"13c88ec",39,1
"415",-1,-1,0,4,8,1,"13c88ec",40,1
"423",-1,0,1125,8,14,1,"13c88ec",41,1
"433",-1,-1,0,14,13,1,"13c88ec",42,1
"443",-1,0,1403,13,12,1,"13c88ec",43,1
"453",-1,-1,0,12,16,1,"13c88ec",44,1
"463",-1,0,1320,16,24,1,"13c88ec",45,1
"473",-1,-1,0,24,7,1,"13c88ec",46,1
"483",-1,0,1265,7,23,1,"13c88ec",47,1
"493",-1,-1,0,23,6,1,"13c88ec",48,1
"503",-1,0,1172,6,32,1,"13c88ec",49,1
"515",-1,-1,0,32,20,1,"13c88ec",50,1
"523",-1,0,1407,20,11,1,"13c88ec",51,1
"533",-1,-1,0,11,2,1,"13c88ec",52,1
"543",-1,0,1481,2,19,1,"13c88ec",53,1
"553",-1,-1,0,19,5,1,"13c88ec",54,1
"563",-1,0,1073,5,10,1,"13c88ec",55,1
"573",-1,-1,0,10,29,1,"13c88ec",56,1
"583",-1,0,1637,29,1,1,"13c88ec",57,1
"593",-1,-1,0,1,34,1,"13c88ec",58,1
"603",-1,0,1156,34,28,1,"13c88ec",59,1
"615",-1,-1,0,28,22,1,"13c88ec",60,1
"623",-1,0,1244,22,3,1,"13c88ec",61,1
"633",-1,-1,0,3,31,1,"13c88ec",62,1
"643",-1,0,1563,31,18,1,"13c88ec",63,1
"653",-1,-1,0,18,35,1,"13c88ec",64,1
"663",-1,0,1423,35,30,1,"13c88ec",65,1
"673",-1,-1,0,30,36,1,"13c88ec",66,1
"683",-1,0,2131,36,33,1,"13c88ec",67,1
"693",-1,-1,0,33,25,1,"13c88ec",68,1
"703",-1,0,1035,25,27,1,"13c88ec",69,1
"715",-1,-1,0,27,17,1,"13c88ec",70,1
"723",-1,0,1687,17,21,1,"13c88ec",71,1
"733",-1,-1,0,21,26,1,"13c88ec",72,1
"743",-1,0,1653,26,29,1,"13c88ec",73,1
"753",-1,-1,0,29,34,1,"13c88ec",74,1
"763",-1,0,1809,34,36,1,"13c88ec",75,1
"773",-1,-1,0,36,16,1,"13c88ec",76,1
"783",-1,0,1281,16,2,1,"13c88ec",77,1
"793",-1,-1,0,2,30,1,"13c88ec",78,1
"803",-1,0,1675,30,32,1,"13c88ec",79,1
"815",-1,-1,0,32,19,1,"13c88ec",80,1
"823",-1,0,1248,19,7,1,"13c88ec",81,1
"833",-1,-1,0,7,13,1,"13c88ec",82,1
"843",-1,0,1328,13,28,1,"13c88ec",83,1
"853",-1,-1,0,28,5,1,"13c88ec",84,1
"863",-1,0,1901,5,11,1,"13c88ec",85,1
"873",-1,-1,0,11,27,1,"13c88ec",86,1
"883",-1,0,1351,27,35,1,"13c88ec",87,1
"893",-1,-1,0,35,24,1,"13c88ec",88,1
"903",-1,0,1454,24,1,1,"13c88ec",89,1
"915",-1,-1,0,1,4,1,"13c88ec",90,1
"923",-1,0,1343,4,22,1,"13c88ec",91,1
"933",-1,-1,0,22,9,1,"13c88ec",92,1
"943",-1,0,1454,9,23,1,"13c88ec",93,1
"953",-1,-1,0,23,26,1,"13c88ec",94,1
"963",-1,0,1565,26,10,1,"13c88ec",95,1
"973",-1,-1,0,10,14,1,"13c88ec",96,1
"983",-1,0,1144,14,21,1,"13c88ec",97,1
"993",-1,-1,0,21,17,1,"13c88ec",98,1
"1003",-1,0,1265,17,15,1,"13c88ec",99,1
"1015",-1,-1,0,15,8,1,"13c88ec",100,1
"1023",-1,0,1282,8,33,1,"13c88ec",101,1
"1033",-1,-1,0,33,3,1,"13c88ec",102,1
"1043",-1,0,1233,3,20,1,"13c88ec",103,1
"1053",-1,-1,0,20,6,1,"13c88ec",104,1
"1063",-1,0,1106,6,12,1,"13c88ec",105,1
"1073",-1,-1,0,12,18,1,"13c88ec",106,1
"1083",-1,0,1333,18,25,1,"13c88ec",107,1
"1093",-1,-1,0,25,31,1,"13c88ec",108,1
"1103",-1,0,1284,31,23,1,"13c88ec",109,1
"1115",-1,-1,0,23,36,1,"13c88ec",110,1
"1123",-1,0,1391,36,4,1,"13c88ec",111,1
"1133",-1,-1,0,4,18,1,"13c88ec",112,1
"1143",-1,0,1531,18,13,1,"13c88ec",113,1
"1153",-1,-1,0,13,10,1,"13c88ec",114,1
"1163",-1,0,776,10,32,1,"13c88ec",115,1
"1173",-1,-1,0,32,12,1,"13c88ec",116,1
"1183",-1,0,733,12,29,1,"13c88ec",117,1
"1193",-1,-1,0,29,17,1,"13c88ec",118,1
"1203",-1,0,816,17,35,1,"13c88ec",119,1
"1215",-1,-1,0,35,5,1,"13c88ec",120,1
"1223",-1,0,1197,5,15,1,"13c88ec",121,1
"1233",-1,-1,0,15,34,1,"13c88ec",122,1
"1243",-1,0,1468,34,33,1,"13c88ec",123,1
"1253",-1,-1,0,33,6,1,"13c88ec",124,1
"1263",-1,0,1245,6,9,1,"13c88ec",125,1
"1273",-1,-1,0,9,24,1,"13c88ec",126,1
"1283",-1,0,1233,24,21,1,"13c88ec",127,1
"1293",-1,-1,0,21,14,1,"13c88ec",128,1
"1303",-1,0,1935,14,22,1,"13c88ec",129,1
"1315",-1,-1,0,22,26,1,"13c88ec",130,1
"1323",-1,0,1537,26,25,1,"13c88ec",131,1
"1333",-1,-1,0,25,7,1,"13c88ec",132,1
"1343",-1,0,1390,7,8,1,"13c88ec",133,1
"1353",-1,-1,0,8,20,1,"13c88ec",134,1
"1363",-1,0,1734,20,11,1,"13c88ec",135,1
"1373",-1,-1,0,11,27,1,"13c88ec",136,1
"1383",-1,0,1264,27,28,1,"13c88ec",137,1
"1393",-1,-1,0,28,1,1,"13c88ec",138,1
"1403",-1,0,2214,1,2,1,"13c88ec",139,1
"1415",-1,-1,0,2,30,1,"13c88ec",140,1
"1423",-1,-1,0,30,19,1,"13c88ec",141,1
"1433",-1,0,1612,19,16,1,"13c88ec",142,1
"1443",-1,-1,0,16,31,1,"13c88ec",143,1
"1453",-1,0,2033,31,3,1,"13c88ec",144,1
"1463",-1,-1,0,3,21,1,"13c88ec",145,1
"1473",-1,0,2203,21,34,1,"13c88ec",146,1
"1483",-1,-1,0,34,8,1,"13c88ec",147,1
"1493",-1,-1,0,8,23,1,"13c88ec",148,1
"1503",-1,0,1672,23,22,1,"13c88ec",149,1
"1515",-1,-1,0,22,2,1,"13c88ec",150,1
"1523",-1,0,1606,2,13,1,"13c88ec",151,1
"1533",-1,-1,0,13,28,1,"13c88ec",152,1
"1543",-1,0,1476,28,36,1,"13c88ec",153,1
"1553",-1,-1,0,36,25,1,"13c88ec",154,1
"1563",-1,0,2016,25,15,1,"13c88ec",155,1
"1573",-1,-1,0,15,5,1,"13c88ec",156,1
"1583",-1,0,1504,5,1,1,"13c88ec",157,1
"1593",-1,-1,0,1,7,1,"13c88ec",158,1
"1603",-1,0,1256,7,17,1,"13c88ec",159,1
"1615",-1,-1,0,17,29,1,"13c88ec",160,1
"1623",-1,0,1328,29,32,1,"13c88ec",161,1
"1633",-1,-1,0,32,10,1,"13c88ec",162,1
"1643",-1,0,1187,10,20,1,"13c88ec",163,1
"1653",-1,-1,0,20,9,1,"13c88ec",164,1
"1663",-1,0,1218,9,18,1,"13c88ec",165,1
"1673",-1,-1,0,18,27,1,"13c88ec",166,1
"1683",-1,0,1273,27,33,1,"13c88ec",167,1
"1693",-1,-1,0,33,31,1,"13c88ec",168,1
"1703",-1,0,1296,31,16,1,"13c88ec",169,1
"1715",-1,-1,0,16,4,1,"13c88ec",170,1
"1723",-1,0,1749,4,14,1,"13c88ec",171,1
"1733",-1,-1,0,14,30,1,"13c88ec",172,1
"1743",-1,0,1186,30,3,1,"13c88ec",173,1
"1753",-1,-1,0,3,6,1,"13c88ec",174,1
"1763",-1,0,1176,6,26,1,"13c88ec",175,1
"1773",-1,-1,0,26,19,1,"13c88ec",176,1
"1783",-1,0,1499,19,24,1,"13c88ec",177,1
"1793",-1,-1,0,24,35,1,"13c88ec",178,1
"1803",-1,0,2377,35,12,1,"13c88ec",179,1
"1815",-1,-1,0,12,11,1,"13c88ec",180,1
"1823",-1,0,1239,11,34,1,"13c88ec",181,1
"1833",-1,-1,0,34,30,1,"13c88ec",182,1
"1843",-1,0,716,30,28,1,"13c88ec",183,1
"1853",-1,-1,0,28,35,1,"13c88ec",184,1
"1863",-1,0,911,35,24,1,"13c88ec",185,1
"1873",-1,-1,0,24,33,1,"13c88ec",186,1
"1883",-1,0,763,33,9,1,"13c88ec",187,1
"1893",-1,-1,0,9,25,1,"13c88ec",188,1
"1903",-1,0,687,25,12,1,"13c88ec",189,1
"1915",-1,-1,0,12,23,1,"13c88ec",190,1
"1923",-1,0,799,23,15,1,"13c88ec",191,1
"1933",-1,-1,0,15,13,1,"13c88ec",192,1
"1943",-1,0,797,13,22,1,"13c88ec",193,1
"1953",-1,-1,0,22,11,1,"13c88ec",194,1
"1963",-1,0,1365,11,3,1,"13c88ec",195,1
"1973",-1,-1,0,3,32,1,"13c88ec",196,1
"1983",-1,0,1647,32,19,1,"13c88ec",197,1
"1993",-1,-1,0,19,26,1,"13c88ec",198,1
"2003",-1,0,1531,26,21,1,"13c88ec",199,1
"2015",-1,-1,0,21,1,1,"13c88ec",200,1
"2023",-1,0,1374,1,4,1,"13c88ec",201,1
"2033",-1,-1,0,4,16,1,"13c88ec",202,1
"2043",-1,0,1568,16,14,1,"13c88ec",203,1
"2053",-1,-1,0,14,2,1,"13c88ec",204,1
"2063",-1,-1,0,2,7,1,"13c88ec",205,1
"2073",-1,0,967,7,27,1,"13c88ec",206,1
"2083",-1,-1,0,27,29,1,"13c88ec",207,1
"2093",-1,0,1686,29,17,1,"13c88ec",208,1
"2103",-1,-1,0,17,36,1,"13c88ec",209,1
"2115",-1,0,1425,36,20,1,"13c88ec",210,1
"2123",-1,-1,0,20,18,1,"13c88ec",211,1
"2133",-1,-1,0,18,6,1,"13c88ec",212,1
"2143",-1,0,1407,6,10,1,"13c88ec",213,1
"2153",-1,-1,0,10,5,1,"13c88ec",214,1
"2163",-1,0,1400,5,8,1,"13c88ec",215,1
"2173",-1,-1,0,8,31,1,"13c88ec",216,1
"2183",-1,0,927,31,36,1,"13c88ec",217,1
"2193",-1,-1,0,36,15,1,"13c88ec",218,1
"2203",-1,0,896,15,10,1,"13c88ec",219,1
"2215",-1,-1,0,10,18,1,"13c88ec",220,1
"2223",-1,0,908,18,25,1,"13c88ec",221,1
"2233",-1,-1,0,25,7,1,"13c88ec",222,1
"2243",-1,0,990,7,4,1,"13c88ec",223,1
"2253",-1,-1,0,4,9,1,"13c88ec",224,1
"2263",-1,0,783,9,29,1,"13c88ec",225,1
"2273",-1,-1,0,29,3,1,"13c88ec",226,1
"2283",-1,0,751,3,19,1,"13c88ec",227,1
"2293",-1,-1,0,19,35,1,"13c88ec",228,1
"2303",-1,0,1033,35,26,1,"13c88ec",229,1
"2315",-1,-1,0,26,14,1,"13c88ec",230,1
"2323",-1,0,1044,14,12,1,"13c88ec",231,1
"2333",-1,-1,0,12,31,1,"13c88ec",232,1
"2343",-1,0,1125,31,1,1,"13c88ec",233,1
"2353",-1,-1,0,1,24,1,"13c88ec",234,1
"2363",-1,0,1790,24,17,1,"13c88ec",235,1
"2373",-1,-1,0,17,20,1,"13c88ec",236,1
"2383",-1,0,1299,20,27,1,"13c88ec",237,1
"2393",-1,-1,0,27,28,1,"13c88ec",238,1
"2403",-1,0,1343,28,13,1,"13c88ec",239,1
"2415",-1,-1,0,13,32,1,"13c88ec",240,1
"2423",-1,0,1454,32,16,1,"13c88ec",241,1
"2433",-1,-1,0,16,23,1,"13c88ec",242,1
"2443",-1,0,1436,23,30,1,"13c88ec",243,1
"2453",-1,-1,0,30,2,1,"13c88ec",244,1
"2463",-1,0,1352,2,11,1,"13c88ec",245,1
"2473",-1,-1,0,11,8,1,"13c88ec",246,1
"2483",-1,0,2164,8,33,1,"13c88ec",247,1
"2493",-1,-1,0,33,22,1,"13c88ec",248,1
"2503",-1,0,1359,22,34,1,"13c88ec",249,1
"2513",-1,-1,0,34,21,1,"13c88ec",250,1
"2523",-1,-1,0,21,6,1,"13c88ec",251,1
"2533",-1,0,1235,6,5,1,"13c88ec",252,1
"260",-1,-1,0,0,25,1,"1f7ae64",1,1
"316",0,1,875,25,17,1,"1f7ae64",2,1
"416",0,0,974,17,15,1,"1f7ae64",3,1
"516",0,0,896,15,1,1,"1f7ae64",4,1
"616",1,1,651,1,8,1,"1f7ae64",5,1
"716",1,0,1064,8,34,1,"1f7ae64",6,1
"816",0,1,1476,34,9,1,"1f7ae64",7,1
"916",1,1,1191,9,16,1,"1f7ae64",8,1
"1016",1,0,765,16,33,1,"1f7ae64",9,1
"1116",1,0,631,33,6,1,"1f7ae64",10,1
"1216",0,1,842,6,20,1,"1f7ae64",11,1
"1316",1,1,1079,20,31,1,"1f7ae64",12,1
"1416",0,0,1060,31,24,1,"1f7ae64",13,1
"1516",1,0,677,24,5,1,"1f7ae64",14,1
"1616",0,0,1650,5,12,1,"1f7ae64",15,1
"1716",1,0,966,12,29,1,"1f7ae64",16,1
"1816",1,1,580,29,27,1,"1f7ae64",17,1
"1916",1,1,546,27,26,1,"1f7ae64",18,1
"2016",1,1,933,26,21,1,"1f7ae64",19,1
"2116",0,0,1561,21,23,1,"1f7ae64",20,1
"2216",1,1,868,23,32,1,"1f7ae64",21,1
"2316",1,1,639,32,35,1,"1f7ae64",22,1
"2416",1,0,645,35,11,1,"1f7ae64",23,1
"2510",1,1,1317,11,18,1,"1f7ae64",24,1
"264",1,0,1341,18,19,1,"1f7ae64",25,1
"274",0,1,1236,19,7,1,"1f7ae64",26,1
"284",1,1,1045,7,2,1,"1f7ae64",27,1
"294",1,1,1674,2,14,1,"1f7ae64",28,1
"304",1,0,1363,14,30,1,"1f7ae64",29,1
"317",1,1,951,30,22,1,"1f7ae64",30,1
"324",1,0,820,22,4,1,"1f7ae64",31,1
"334",0,1,1687,4,28,1,"1f7ae64",32,1
"344",1,0,1609,28,13,1,"1f7ae64",33,1
"354",1,1,1189,13,10,1,"1f7ae64",34,1
"364",1,0,1381,10,36,1,"1f7ae64",35,1
"374",1,0,381,36,3,1,"1f7ae64",36,1
"384",1,0,630,3,25,1,"1f7ae64",37,1
"394",0,1,1823,25,17,1,"1f7ae64",38,1
"404",0,0,822,17,15,1,"1f7ae64",39,1
"417",1,1,306,15,1,1,"1f7ae64",40,1
"424",1,1,1113,1,8,1,"1f7ae64",41,1
"434",1,0,587,8,34,1,"1f7ae64",42,1
"444",0,1,372,34,9,1,"1f7ae64",43,1
"454",1,1,700,9,16,1,"1f7ae64",44,1
"464",1,0,334,16,33,1,"1f7ae64",45,1
"474",1,0,1370,33,6,1,"1f7ae64",46,1
"484",1,0,223,6,20,1,"1f7ae64",47,1
"494",0,0,244,20,31,1,"1f7ae64",48,1
"504",1,1,540,31,24,1,"1f7ae64",49,1
"517",0,1,2439,24,5,1,"1f7ae64",50,1
"524",1,1,356,5,12,1,"1f7ae64",51,1
"534",0,1,394,12,29,1,"1f7ae64",52,1
"544",0,0,818,29,27,1,"1f7ae64",53,1
"554",1,1,935,27,26,1,"1f7ae64",54,1
"564",1,1,1657,26,21,1,"1f7ae64",55,1
"574",1,1,1633,21,23,1,"1f7ae64",56,1
"584",1,1,1475,23,32,1,"1f7ae64",57,1
"594",1,1,1015,32,35,1,"1f7ae64",58,1
"604",1,0,680,35,11,1,"1f7ae64",59,1
"617",1,1,1293,11,18,1,"1f7ae64",60,1
"624",0,1,2070,18,19,1,"1f7ae64",61,1
"634",1,0,1380,19,7,1,"1f7ae64",62,1
"644",1,1,877,7,2,1,"1f7ae64",63,1
"654",1,1,730,2,14,1,"1f7ae64",64,1
"664",1,0,728,14,30,1,"1f7ae64",65,1
"674",1,1,2043,30,22,1,"1f7ae64",66,1
"684",1,0,1858,22,4,1,"1f7ae64",67,1
"694",1,0,1235,4,28,1,"1f7ae64",68,1
"704",0,1,399,28,13,1,"1f7ae64",69,1
"717",1,1,871,13,10,1,"1f7ae64",70,1
"724",1,0,533,10,36,1,"1f7ae64",71,1
"734",0,1,823,36,3,1,"1f7ae64",72,1
"744",1,0,789,3,32,1,"1f7ae64",73,1
"754",0,0,1047,32,29,1,"1f7ae64",74,1
"764",1,1,561,29,30,1,"1f7ae64",75,1
"774",1,0,707,30,17,1,"1f7ae64",76,1
"784",1,1,593,17,18,1,"1f7ae64",77,1
"794",1,0,622,18,35,1,"1f7ae64",78,1
"804",1,0,578,35,4,1,"1f7ae64",79,1
"817",1,1,436,4,5,1,"1f7ae64",80,1
"824",1,1,488,5,13,1,"1f7ae64",81,1
"834",1,1,488,13,15,1,"1f7ae64",82,1
"844",1,0,397,15,20,1,"1f7ae64",83,1
"854",1,0,540,20,7,1,"1f7ae64",84,1
"864",0,0,263,7,1,1,"1f7ae64",85,1
"874",1,0,391,1,34,1,"1f7ae64",86,1
"884",1,0,624,34,2,1,"1f7ae64",87,1
"894",1,1,967,2,11,1,"1f7ae64",88,1
"904",1,1,807,11,6,1,"1f7ae64",89,1
"917",1,0,778,6,25,1,"1f7ae64",90,1
"924",1,1,934,25,19,1,"1f7ae64",91,1
"934",1,1,799,19,22,1,"1f7ae64",92,1
"944",1,1,801,22,23,1,"1f7ae64",93,1
"954",1,1,607,23,31,1,"1f7ae64",94,1
"964",0,1,677,31,16,1,"1f7ae64",95,1
"974",0,1,894,16,26,1,"1f7ae64",96,1
"984",1,1,790,26,33,1,"1f7ae64",97,1
"994",1,0,375,33,9,1,"1f7ae64",98,1
"1004",1,0,1385,9,28,1,"1f7ae64",99,1
"1017",0,1,267,28,10,1,"1f7ae64",100,1
"1024",1,0,529,10,36,1,"1f7ae64",101,1
"1034",0,1,469,36,14,1,"1f7ae64",102,1
"1044",1,1,263,14,8,1,"1f7ae64",103,1
"1054",1,1,849,8,3,1,"1f7ae64",104,1
"1064",1,0,681,3,24,1,"1f7ae64",105,1
"1074",0,0,581,24,21,1,"1f7ae64",106,1
"1084",1,1,658,21,27,1,"1f7ae64",107,1
"1094",1,0,444,27,12,1,"1f7ae64",108,1
"1104",0,1,506,12,22,1,"1f7ae64",109,1
"1117",1,0,241,22,13,1,"1f7ae64",110,1
"1124",1,0,554,13,23,1,"1f7ae64",111,1
"1134",1,1,864,23,29,1,"1f7ae64",112,1
"1144",1,1,434,29,32,1,"1f7ae64",113,1
"1154",1,1,623,32,33,1,"1f7ae64",114,1
"1164",0,1,1619,33,9,1,"1f7ae64",115,1
"1174",1,1,1104,9,4,1,"1f7ae64",116,1
"1184",1,1,578,4,1,1,"1f7ae64",117,1
"1194",1,1,559,1,17,1,"1f7ae64",118,1
"1204",1,1,408,17,5,1,"1f7ae64",119,1
"1217",1,1,420,5,8,1,"1f7ae64",120,1
"1224",1,1,406,8,18,1,"1f7ae64",121,1
"1234",1,0,412,18,34,1,"1f7ae64",122,1
"1244",0,1,1126,34,14,1,"1f7ae64",123,1
"1254",1,1,334,14,16,1,"1f7ae64",124,1
"1264",0,1,607,16,20,1,"1f7ae64",125,1
"1274",0,1,451,20,2,1,"1f7ae64",126,1
"1284",1,1,552,2,10,1,"1f7ae64",127,1
"1294",1,1,493,10,11,1,"1f7ae64",128,1
"1304",0,1,1923,11,25,1,"1f7ae64",129,1
"1317",0,1,1278,25,3,1,"1f7ae64",130,1
"1324",0,1,741,3,26,1,"1f7ae64",131,1
"1334",0,1,949,26,7,1,"1f7ae64",132,1
"1344",0,1,330,7,35,1,"1f7ae64",133,1
"1354",0,1,1810,35,6,1,"1f7ae64",134,1
"1364",0,1,1029,6,28,1,"1f7ae64",135,1
"1374",1,0,379,28,12,1,"1f7ae64",136,1
"1384",1,1,524,12,15,1,"1f7ae64",137,1
"1394",0,1,1081,15,31,1,"1f7ae64",138,1
"1404",1,1,350,31,24,1,"1f7ae64",139,1
"1417",1,1,314,24,19,1,"1f7ae64",140,1
"1424",1,1,349,19,30,1,"1f7ae64",141,1
"1434",1,1,453,30,21,1,"1f7ae64",142,1
"1444",1,1,431,21,27,1,"1f7ae64",143,1
"1454",1,1,427,27,36,1,"1f7ae64",144,1
"1464",0,1,1112,36,1,1,"1f7ae64",145,1
"1474",0,1,735,1,30,1,"1f7ae64",146,1
"1484",1,1,472,30,27,1,"1f7ae64",147,1
"1494",1,1,535,27,32,1,"1f7ae64",148,1
"1504",0,1,928,32,17,1,"1f7ae64",149,1
"1517",1,1,281,17,15,1,"1f7ae64",150,1
"1524",1,1,396,15,6,1,"1f7ae64",151,1
"1534",0,1,1098,6,28,1,"1f7ae64",152,1
"1544",0,1,895,28,14,1,"1f7ae64",153,1
"1554",0,1,525,14,19,1,"1f7ae64",154,1
"1564",0,1,991,19,13,1,"1f7ae64",155,1
"1574",0,1,532,13,21,1,"1f7ae64",156,1
"1584",1,1,1308,21,24,1,"1f7ae64",157,1
"1594",0,1,1662,24,5,1,"1f7ae64",158,1
"1604",0,1,596,5,31,1,"1f7ae64",159,1
"1617",0,1,988,31,16,1,"1f7ae64",160,1
"1624",1,1,243,16,2,1,"1f7ae64",161,1
"1634",1,1,443,2,10,1,"1f7ae64",162,1
"1644",0,1,801,10,20,1,"1f7ae64",163,1
"1654",0,1,1039,20,9,1,"1f7ae64",164,1
"1664",1,1,797,9,7,1,"1f7ae64",165,1
"1674",0,1,775,7,23,1,"1f7ae64",166,1
"1684",1,1,434,23,26,1,"1f7ae64",167,1
"1694",1,1,295,26,22,1,"1f7ae64",168,1
"1704",0,1,1337,22,18,1,"1f7ae64",169,1
"1717",1,0,1019,18,33,1,"1f7ae64",170,1
"1724",1,1,1017,33,36,1,"1f7ae64",171,1
"1734",1,0,408,36,12,1,"1f7ae64",172,1
"1744",1,1,569,12,11,1,"1f7ae64",173,1
"1754",1,0,857,11,35,1,"1f7ae64",174,1
"1764",1,1,963,35,25,1,"1f7ae64",175,1
"1774",0,1,1153,25,8,1,"1f7ae64",176,1
"1784",1,1,397,8,4,1,"1f7ae64",177,1
"1794",1,0,530,4,34,1,"1f7ae64",178,1
"1804",0,0,655,34,29,1,"1f7ae64",179,1
"1817",1,0,430,29,3,1,"1f7ae64",180,1
"1824",1,1,331,3,4,1,"1f7ae64",181,1
"1834",1,0,438,4,23,1,"1f7ae64",182,1
"1844",0,1,1020,23,9,1,"1f7ae64",183,1
"1854",1,0,373,9,35,1,"1f7ae64",184,1
"1864",1,1,675,35,26,1,"1f7ae64",185,1
"1874",0,1,1019,26,16,1,"1f7ae64",186,1
"1884",0,1,995,16,21,1,"1f7ae64",187,1
"1894",1,1,304,21,19,1,"1f7ae64",188,1
"1904",1,1,304,19,31,1,"1f7ae64",189,1
"1917",1,0,560,31,8,1,"1f7ae64",190,1
"1924",1,1,321,8,6,1,"1f7ae64",191,1
"1934",0,0,388,6,2,1,"1f7ae64",192,1
"1944",1,1,255,2,11,1,"1f7ae64",193,1
"1954",0,1,511,11,20,1,"1f7ae64",194,1
"1964",1,0,563,20,12,1,"1f7ae64",195,1
"1974",1,0,348,12,34,1,"1f7ae64",196,1
"1984",1,1,381,34,27,1,"1f7ae64",197,1
"1994",1,1,390,27,30,1,"1f7ae64",198,1
"2004",1,1,316,30,32,1,"1f7ae64",199,1
"2017",1,0,300,32,5,1,"1f7ae64",200,1
"2024",1,0,542,5,22,1,"1f7ae64",201,1
"2034",1,0,253,22,17,1,"1f7ae64",202,1
"2044",0,1,404,17,29,1,"1f7ae64",203,1
"2054",1,0,585,29,13,1,"1f7ae64",204,1
"2064",-1,0,1011,13,7,1,"1f7ae64",205,1
"2074",1,0,496,7,28,1,"1f7ae64",206,1
"2084",0,0,646,28,36,1,"1f7ae64",207,1
"2094",1,0,337,36,14,1,"1f7ae64",208,1
"2104",1,0,623,14,24,1,"1f7ae64",209,1
"2117",1,1,1161,24,33,1,"1f7ae64",210,1
"2124",1,0,599,33,15,1,"1f7ae64",211,1
"2134",1,1,224,15,1,1,"1f7ae64",212,1
"2144",1,1,371,1,18,1,"1f7ae64",213,1
"2154",1,1,583,18,3,1,"1f7ae64",214,1
"2164",1,0,291,3,25,1,"1f7ae64",215,1
"2174",1,0,192,25,10,1,"1f7ae64",216,1
"2184",1,1,464,10,9,1,"1f7ae64",217,1
"2194",0,0,569,9,10,1,"1f7ae64",218,1
"2204",1,1,1338,10,8,1,"1f7ae64",219,1
"2217",1,0,379,8,32,1,"1f7ae64",220,1
"2224",0,0,1993,32,19,1,"1f7ae64",221,1
"2234",1,0,761,19,15,1,"1f7ae64",222,1
"2244",1,0,1033,15,27,1,"1f7ae64",223,1
"2254",1,1,472,27,30,1,"1f7ae64",224,1
"2264",1,1,700,30,25,1,"1f7ae64",225,1
"2274",0,0,536,25,34,1,"1f7ae64",226,1
"2284",1,1,288,34,24,1,"1f7ae64",227,1
"2294",1,0,984,24,18,1,"1f7ae64",228,1
"2304",0,1,1500,18,35,1,"1f7ae64",229,1
"2317",1,1,493,35,22,1,"1f7ae64",230,1
"2324",1,0,594,22,13,1,"1f7ae64",231,1
"2334",0,0,519,13,2,1,"1f7ae64",232,1
"2344",1,1,300,2,12,1,"1f7ae64",233,1
"2354",1,0,265,12,31,1,"1f7ae64",234,1
"2364",0,1,262,31,1,1,"1f7ae64",235,1
"2374",1,1,308,1,14,1,"1f7ae64",236,1
"2384",0,0,804,14,16,1,"1f7ae64",237,1
"2394",1,0,488,16,23,1,"1f7ae64",238,1
"2404",0,1,247,23,5,1,"1f7ae64",239,1
"2417",1,1,453,5,11,1,"1f7ae64",240,1
"2424",0,1,1007,11,26,1,"1f7ae64",241,1
"2434",1,1,671,26,28,1,"1f7ae64",242,1
"2444",1,1,330,28,33,1,"1f7ae64",243,1
"2454",1,1,364,33,29,1,"1f7ae64",244,1
"2464",1,1,331,29,36,1,"1f7ae64",245,1
"2474",1,1,560,36,20,1,"1f7ae64",246,1
"2484",1,1,581,20,21,1,"1f7ae64",247,1
"2494",1,0,241,21,3,1,"1f7ae64",248,1
"2504",0,0,246,3,6,1,"1f7ae64",249,1
"2514",1,1,450,6,7,1,"1f7ae64",250,1
"2524",1,1,364,7,17,1,"1f7ae64",251,1
"2534",1,1,1089,17,4,1,"1f7ae64",252,1
"265",1,0,1293,0,18,1,"1b5a5a2",1,1
"318",0,1,1090,18,34,1,"1b5a5a2",2,1
"418",1,1,1224,34,25,1,"1b5a5a2",3,1
"518",1,0,823,25,5,1,"1b5a5a2",4,1
"618",0,1,1069,5,28,1,"1b5a5a2",5,1
"718",1,1,1270,28,31,1,"1b5a5a2",6,1
"818",1,0,864,31,14,1,"1b5a5a2",7,1
"918",1,0,843,14,35,1,"1b5a5a2",8,1
"1018",0,0,726,35,32,1,"1b5a5a2",9,1
"1118",1,1,609,32,20,1,"1b5a5a2",10,1
"1218",1,0,881,20,13,1,"1b5a5a2",11,1
"1318",0,0,1021,13,10,1,"1b5a5a2",12,1
"1418",1,1,529,10,9,1,"1b5a5a2",13,1
"1518",0,1,628,9,19,1,"1b5a5a2",14,1
"1618",1,0,695,19,12,1,"1b5a5a2",15,1
"1718",1,0,1050,12,36,1,"1b5a5a2",16,1
"1818",0,0,668,36,26,1,"1b5a5a2",17,1
"1918",1,0,535,26,1,1,"1b5a5a2",18,1
"2018",0,1,788,1,23,1,"1b5a5a2",19,1
"2118",1,0,683,23,6,1,"1b5a5a2",20,1
"2218",1,0,767,6,21,1,"1b5a5a2",21,1
"2318",1,1,791,21,22,1,"1b5a5a2",22,1
"2418",1,1,934,22,30,1,"1b5a5a2",23,1
"2515",1,1,775,30,33,1,"1b5a5a2",24,1
"266",1,1,774,33,29,1,"1b5a5a2",25,1
"275",0,1,805,29,17,1,"1b5a5a2",26,1
"285",1,1,664,17,16,1,"1b5a5a2",27,1
"295",0,0,795,16,2,1,"1b5a5a2",28,1
"305",1,1,690,2,11,1,"1b5a5a2",29,1
"319",1,1,710,11,7,1,"1b5a5a2",30,1
"325",1,1,657,7,15,1,"1b5a5a2",31,1
"335",0,0,1150,15,3,1,"1b5a5a2",32,1
"345",1,1,678,3,4,1,"1b5a5a2",33,1
"355",1,0,596,4,27,1,"1b5a5a2",34,1
"365",1,0,728,27,8,1,"1b5a5a2",35,1
"375",0,1,860,8,24,1,"1b5a5a2",36,1
"385",1,0,611,24,18,1,"1b5a5a2",37,1
"395",1,0,616,18,34,1,"1b5a5a2",38,1
"405",0,0,1263,34,25,1,"1b5a5a2",39,1
"419",1,0,441,25,5,1,"1b5a5a2",40,1
"425",0,1,445,5,28,1,"1b5a5a2",41,1
"435",1,1,524,28,31,1,"1b5a5a2",42,1
"445",0,1,474,31,14,1,"1b5a5a2",43,1
"455",1,0,617,14,35,1,"1b5a5a2",44,1
"465",0,0,496,35,32,1,"1b5a5a2",45,1
"475",1,1,380,32,20,1,"1b5a5a2",46,1
"485",1,0,709,20,13,1,"1b5a5a2",47,1
"495",1,1,615,13,10,1,"1b5a5a2",48,1
"505",0,0,651,10,9,1,"1b5a5a2",49,1
"519",0,1,1021,9,19,1,"1b5a5a2",50,1
"525",1,0,534,19,12,1,"1b5a5a2",51,1
"535",1,0,931,12,36,1,"1b5a5a2",52,1
"545",0,0,587,36,26,1,"1b5a5a2",53,1
"555",0,1,959,26,1,1,"1b5a5a2",54,1
"565",0,1,828,1,23,1,"1b5a5a2",55,1
"575",1,0,679,23,6,1,"1b5a5a2",56,1
"585",0,1,580,6,21,1,"1b5a5a2",57,1
"595",0,0,930,21,22,1,"1b5a5a2",58,1
"605",1,1,732,22,30,1,"1b5a5a2",59,1
"619",0,0,692,30,33,1,"1b5a5a2",60,1
"625",1,1,389,33,29,1,"1b5a5a2",61,1
"635",1,0,805,29,17,1,"1b5a5a2",62,1
"645",1,1,691,17,16,1,"1b5a5a2",63,1
"655",0,0,439,16,2,1,"1b5a5a2",64,1
"665",1,1,260,2,11,1,"1b5a5a2",65,1
"675",0,0,800,11,7,1,"1b5a5a2",66,1
"685",1,1,716,7,15,1,"1b5a5a2",67,1
"695",0,0,681,15,3,1,"1b5a5a2",68,1
"705",1,1,625,3,4,1,"1b5a5a2",69,1
"719",1,0,884,4,27,1,"1b5a5a2",70,1
"725",1,0,720,27,8,1,"1b5a5a2",71,1
"735",0,1,392,8,24,1,"1b5a5a2",72,1
"745",1,1,871,24,25,1,"1b5a5a2",73,1
"755",0,0,668,25,21,1,"1b5a5a2",74,1
"765",1,0,399,21,15,1,"1b5a5a2",75,1
"775",0,1,567,15,20,1,"1b5a5a2",76,1
"785",0,0,573,20,19,1,"1b5a5a2",77,1
"795",1,1,665,19,24,1,"1b5a5a2",78,1
"805",1,0,448,24,9,1,"1b5a5a2",79,1
"819",0,0,627,9,11,1,"1b5a5a2",80,1
"825",1,0,765,11,22,1,"1b5a5a2",81,1
"835",0,1,452,22,1,1,"1b5a5a2",82,1
"845",1,1,569,1,12,1,"1b5a5a2",83,1
"855",1,1,705,12,13,1,"1b5a5a2",84,1
"865",1,1,616,13,14,1,"1b5a5a2",85,1
"875",1,0,511,14,34,1,"1b5a5a2",86,1
"885",1,1,693,34,28,1,"1b5a5a2",87,1
"895",0,0,685,28,32,1,"1b5a5a2",88,1
"905",1,1,943,32,23,1,"1b5a5a2",89,1
"919",0,1,682,23,16,1,"1b5a5a2",90,1
"925",1,0,415,16,29,1,"1b5a5a2",91,1
"935",0,1,220,29,17,1,"1b5a5a2",92,1
"945",1,0,315,17,35,1,"1b5a5a2",93,1
"955",0,1,175,35,2,1,"1b5a5a2",94,1
"965",1,1,280,2,5,1,"1b5a5a2",95,1
"975",0,0,464,5,10,1,"1b5a5a2",96,1
"985",1,0,452,10,33,1,"1b5a5a2",97,1
"995",0,0,263,33,30,1,"1b5a5a2",98,1
"1005",1,1,237,30,31,1,"1b5a5a2",99,1
"1019",0,1,332,31,8,1,"1b5a5a2",100,1
"1025",1,1,314,8,7,1,"1b5a5a2",101,1
"1035",0,0,543,7,18,1,"1b5a5a2",102,1
"1045",1,0,216,18,36,1,"1b5a5a2",103,1
"1055",0,0,324,36,26,1,"1b5a5a2",104,1
"1065",1,0,223,26,6,1,"1b5a5a2",105,1
"1075",0,0,288,6,4,1,"1b5a5a2",106,1
"1085",1,1,288,4,3,1,"1b5a5a2",107,1
"1095",0,1,197,3,27,1,"1b5a5a2",108,1
"1105",1,0,93,27,9,1,"1b5a5a2",109,1
"1119",0,1,533,9,25,1,"1b5a5a2",110,1
"1125",1,1,647,25,27,1,"1b5a5a2",111,1
"1135",0,1,252,27,15,1,"1b5a5a2",112,1
"1145",1,1,463,15,12,1,"1b5a5a2",113,1
"1155",0,0,421,12,4,1,"1b5a5a2",114,1
"1165",1,1,439,4,17,1,"1b5a5a2",115,1
"1175",0,0,303,17,3,1,"1b5a5a2",116,1
"1185",1,0,211,3,35,1,"1b5a5a2",117,1
"1195",0,0,505,35,30,1,"1b5a5a2",118,1
"1205",1,0,281,30,1,1,"1b5a5a2",119,1
"1219",0,1,482,1,24,1,"1b5a5a2",120,1
"1225",1,1,545,24,29,1,"1b5a5a2",121,1
"1235",0,1,289,29,10,1,"1b5a5a2",122,1
"1245",1,1,335,10,14,1,"1b5a5a2",123,1
"1255",0,1,248,14,23,1,"1b5a5a2",124,1
"1265",1,1,312,23,32,1,"1b5a5a2",125,1
"1275",0,0,313,32,31,1,"1b5a5a2",126,1
"1285",1,0,274,31,7,1,"1b5a5a2",127,1
"1295",0,1,297,7,34,1,"1b5a5a2",128,1
"1305",1,1,312,34,21,1,"1b5a5a2",129,1
"1319",0,0,676,21,26,1,"1b5a5a2",130,1
"1325",1,1,219,26,22,1,"1b5a5a2",131,1
"1335",0,0,329,22,20,1,"1b5a5a2",132,1
"1345",1,1,498,20,36,1,"1b5a5a2",133,1
"1355",0,1,268,36,6,1,"1b5a5a2",134,1
"1365",1,1,440,6,13,1,"1b5a5a2",135,1
"1375",0,1,701,13,33,1,"1b5a5a2",136,1
"1385",1,0,413,33,18,1,"1b5a5a2",137,1
"1395",0,0,402,18,8,1,"1b5a5a2",138,1
"1405",1,0,197,8,28,1,"1b5a5a2",139,1
"1419",0,1,196,28,11,1,"1b5a5a2",140,1
"1425",1,0,333,11,19,1,"1b5a5a2",141,1
"1435",0,1,279,19,2,1,"1b5a5a2",142,1
"1445",1,1,526,2,5,1,"1b5a5a2",143,1
"1455",0,0,341,5,16,1,"1b5a5a2",144,1
"1465",1,0,312,16,36,1,"1b5a5a2",145,1
"1475",0,0,255,36,26,1,"1b5a5a2",146,1
"1485",1,0,220,26,2,1,"1b5a5a2",147,1
"1495",0,0,147,2,16,1,"1b5a5a2",148,1
"1505",0,1,153,16,20,1,"1b5a5a2",149,1
"1519",1,0,191,20,15,1,"1b5a5a2",150,1
"1525",1,1,77,15,5,1,"1b5a5a2",151,1
"1535",1,1,167,5,6,1,"1b5a5a2",152,1
"1545",1,0,96,6,24,1,"1b5a5a2",153,1
"1555",1,1,64,24,34,1,"1b5a5a2",154,1
"1565",1,1,355,34,29,1,"1b5a5a2",155,1
"1575",1,0,377,29,14,1,"1b5a5a2",156,1
"1585",1,0,454,14,35,1,"1b5a5a2",157,1
"1595",1,1,316,35,30,1,"1b5a5a2",158,1
"1605",1,1,280,30,23,1,"1b5a5a2",159,1
"1619",1,0,290,23,7,1,"1b5a5a2",160,1
"1625",1,1,467,7,11,1,"1b5a5a2",161,1
"1635",1,0,483,11,21,1,"1b5a5a2",162,1
"1645",1,0,417,21,4,1,"1b5a5a2",163,1
"1655",1,1,97,4,3,1,"1b5a5a2",164,1
"1665",1,1,638,3,9,1,"1b5a5a2",165,1
"1675",1,1,394,9,8,1,"1b5a5a2",166,1
"1685",1,1,230,8,1,1,"1b5a5a2",167,1
"1695",1,0,365,1,22,1,"1b5a5a2",168,1
"1705",1,1,273,22,31,1,"1b5a5a2",169,1
"1719",1,1,385,31,28,1,"1b5a5a2",170,1
"1725",1,0,391,28,18,1,"1b5a5a2",171,1
"1735",1,1,378,18,10,1,"1b5a5a2",172,1
"1745",1,1,195,10,13,1,"1b5a5a2",173,1
"1755",1,0,200,13,19,1,"1b5a5a2",174,1
"1765",1,1,127,19,27,1,"1b5a5a2",175,1
"1775",1,0,133,27,17,1,"1b5a5a2",176,1
"1785",1,0,171,17,32,1,"1b5a5a2",177,1
"1795",1,1,182,32,25,1,"1b5a5a2",178,1
"1805",1,1,334,25,33,1,"1b5a5a2",179,1
"1819",1,0,277,33,12,1,"1b5a5a2",180,1
"1825",1,0,531,12,25,1,"1b5a5a2",181,1
"1835",1,1,663,25,24,1,"1b5a5a2",182,1
"1845",1,0,333,24,3,1,"1b5a5a2",183,1
"1855",1,0,178,3,30,1,"1b5a5a2",184,1
"1865",1,1,264,30,27,1,"1b5a5a2",185,1
"1875",1,0,347,27,16,1,"1b5a5a2",186,1
"1885",1,1,403,16,15,1,"1b5a5a2",187,1
"1895",1,0,389,15,22,1,"1b5a5a2",188,1
"1905",1,0,369,22,6,1,"1b5a5a2",189,1
"1919",1,1,735,6,11,1,"1b5a5a2",190,1
"1925",1,0,548,11,23,1,"1b5a5a2",191,1
"1935",1,0,269,23,4,1,"1b5a5a2",192,1
"1945",1,1,291,4,14,1,"1b5a5a2",193,1
"1955",1,0,479,14,20,1,"1b5a5a2",194,1
"1965",1,1,696,20,32,1,"1b5a5a2",195,1
"1975",1,1,272,32,19,1,"1b5a5a2",196,1
"1985",1,0,250,19,9,1,"1b5a5a2",197,1
"1995",1,1,468,9,5,1,"1b5a5a2",198,1
"2005",1,0,951,5,31,1,"1b5a5a2",199,1
"2019",1,0,1313,31,18,1,"1b5a5a2",200,1
"2025",1,1,417,18,13,1,"1b5a5a2",201,1
"2035",1,0,281,13,28,1,"1b5a5a2",202,1
"2045",1,0,938,28,17,1,"1b5a5a2",203,1
"2055",1,0,449,17,21,1,"1b5a5a2",204,1
"2065",1,0,305,21,12,1,"1b5a5a2",205,1
"2075",1,0,382,12,36,1,"1b5a5a2",206,1
"2085",1,0,1241,36,2,1,"1b5a5a2",207,1
"2095",1,1,590,2,8,1,"1b5a5a2",208,1
"2105",1,1,114,8,10,1,"1b5a5a2",209,1
"2119",1,0,689,10,29,1,"1b5a5a2",210,1
"2125",1,1,1037,29,26,1,"1b5a5a2",211,1
"2135",1,0,397,26,7,1,"1b5a5a2",212,1
"2145",1,0,275,7,35,1,"1b5a5a2",213,1
"2155",1,0,208,35,1,1,"1b5a5a2",214,1
"2165",0,1,1985,1,34,1,"1b5a5a2",215,1
"2175",1,1,1574,34,33,1,"1b5a5a2",216,1
"2185",1,1,682,33,31,1,"1b5a5a2",217,1
"2195",0,1,218,31,18,1,"1b5a5a2",218,1
"2205",0,0,579,18,16,1,"1b5a5a2",219,1
"2219",1,1,223,16,2,1,"1b5a5a2",220,1
"2225",1,1,509,2,9,1,"1b5a5a2",221,1
"2235",1,0,1038,9,21,1,"1b5a5a2",222,1
"2245",1,1,417,21,24,1,"1b5a5a2",223,1
"2255",1,1,357,24,27,1,"1b5a5a2",224,1
"2265",1,0,1164,27,7,1,"1b5a5a2",225,1
"2275",1,1,1329,7,8,1,"1b5a5a2",226,1
"2285",1,0,1176,8,36,1,"1b5a5a2",227,1
"2295",1,0,1486,36,3,1,"1b5a5a2",228,1
"2305",0,0,491,3,5,1,"1b5a5a2",229,1
"2319",0,1,1090,5,30,1,"1b5a5a2",230,1
"2325",1,1,1010,30,29,1,"1b5a5a2",231,1
"2335",1,1,633,29,23,1,"1b5a5a2",232,1
"2345",1,1,634,23,25,1,"1b5a5a2",233,1
"2355",1,1,1092,25,33,1,"1b5a5a2",234,1
"2365",1,1,1825,33,19,1,"1b5a5a2",235,1
"2375",1,0,929,19,17,1,"1b5a5a2",236,1
"2385",1,1,885,17,4,1,"1b5a5a2",237,1
"2395",1,0,297,4,32,1,"1b5a5a2",238,1
"2405",1,0,254,32,11,1,"1b5a5a2",239,1
"2419",1,0,332,11,35,1,"1b5a5a2",240,1
"2425",0,1,1156,35,1,1,"1b5a5a2",241,1
"2435",1,1,269,1,6,1,"1b5a5a2",242,1
"2445",1,0,386,6,28,1,"1b5a5a2",243,1
"2455",0,1,984,28,13,1,"1b5a5a2",244,1
"2465",0,1,852,13,20,1,"1b5a5a2",245,1
"2475",0,1,264,20,12,1,"1b5a5a2",246,1
"2485",1,1,210,12,14,1,"1b5a5a2",247,1
"2495",0,1,257,14,26,1,"1b5a5a2",248,1
"2505",1,0,251,26,15,1,"1b5a5a2",249,1
"2516",0,1,233,15,34,1,"1b5a5a2",250,1
"2525",1,0,407,34,10,1,"1b5a5a2",251,1
"2535",0,1,186,10,22,1,"1b5a5a2",252,1
"267",1,0,721,0,29,1,"1c56a4e",1,1
"320",0,0,317,29,22,1,"1c56a4e",2,1
"420",1,0,247,22,13,1,"1c56a4e",3,1
"520",0,1,634,13,35,1,"1c56a4e",4,1
"620",0,1,310,35,18,1,"1c56a4e",5,1
"720",0,1,450,18,23,1,"1c56a4e",6,1
"820",1,1,318,23,31,1,"1c56a4e",7,1
"920",1,0,524,31,17,1,"1c56a4e",8,1
"1020",0,1,359,17,28,1,"1c56a4e",9,1
"1120",1,0,98,28,2,1,"1c56a4e",10,1
"1220",-1,-1,0,2,16,1,"1c56a4e",11,1
"1320",0,0,330,16,10,1,"1c56a4e",12,1
"1420",1,0,423,10,19,1,"1c56a4e",13,1
"1520",0,0,393,19,24,1,"1c56a4e",14,1
"1620",0,1,332,24,5,1,"1c56a4e",15,1
"1720",1,0,354,5,33,1,"1c56a4e",16,1
"1820",0,0,414,33,30,1,"1c56a4e",17,1
"1920",1,0,506,30,15,1,"1c56a4e",18,1
"2020",0,0,382,15,1,1,"1c56a4e",19,1
"2120",1,0,337,1,34,1,"1c56a4e",20,1
"2220",0,0,494,34,21,1,"1c56a4e",21,1
"2320",1,0,449,21,9,1,"1c56a4e",22,1
"2420",0,1,347,9,36,1,"1c56a4e",23,1
"2517",1,0,344,36,4,1,"1c56a4e",24,1
"268",0,0,341,4,11,1,"1c56a4e",25,1
"276",1,0,583,11,27,1,"1c56a4e",26,1
"286",0,1,379,27,12,1,"1c56a4e",27,1
"296",1,0,311,12,25,1,"1c56a4e",28,1
"306",0,0,459,25,32,1,"1c56a4e",29,1
"3110",0,1,278,32,3,1,"1c56a4e",30,1
"326",1,1,306,3,14,1,"1c56a4e",31,1
"336",1,0,576,14,26,1,"1c56a4e",32,1
"346",0,1,331,26,6,1,"1c56a4e",33,1
"356",1,0,327,6,20,1,"1c56a4e",34,1
"366",0,1,427,20,7,1,"1c56a4e",35,1
"376",1,1,398,7,8,1,"1c56a4e",36,1
"386",0,1,417,8,29,1,"1c56a4e",37,1
"396",1,1,278,29,22,1,"1c56a4e",38,1
"406",0,1,298,22,13,1,"1c56a4e",39,1
"4110",1,0,373,13,35,1,"1c56a4e",40,1
"426",0,1,297,35,18,1,"1c56a4e",41,1
"436",1,0,1462,18,23,1,"1c56a4e",42,1
"446",0,0,1672,23,31,1,"1c56a4e",43,1
"456",1,0,1909,31,17,1,"1c56a4e",44,1
"466",0,1,2378,17,28,1,"1c56a4e",45,1
"476",0,1,436,28,2,1,"1c56a4e",46,1
"486",1,1,506,2,16,1,"1c56a4e",47,1
"496",0,0,317,16,10,1,"1c56a4e",48,1
"506",1,0,282,10,19,1,"1c56a4e",49,1
"5110",0,0,301,19,24,1,"1c56a4e",50,1
"526",1,0,49,24,5,1,"1c56a4e",51,1
"536",0,1,388,5,33,1,"1c56a4e",52,1
"546",1,1,544,33,30,1,"1c56a4e",53,1
"556",0,1,861,30,15,1,"1c56a4e",54,1
"566",1,1,488,15,1,1,"1c56a4e",55,1
"576",0,1,605,1,34,1,"1c56a4e",56,1
"586",1,1,583,34,21,1,"1c56a4e",57,1
"596",1,0,1092,21,9,1,"1c56a4e",58,1
"606",0,1,559,9,36,1,"1c56a4e",59,1
"6110",1,0,371,36,4,1,"1c56a4e",60,1
"626",0,0,63,4,11,1,"1c56a4e",61,1
"636",1,0,330,11,27,1,"1c56a4e",62,1
"646",0,1,846,27,12,1,"1c56a4e",63,1
"656",1,0,275,12,25,1,"1c56a4e",64,1
"666",0,0,191,25,32,1,"1c56a4e",65,1
"676",1,0,426,32,3,1,"1c56a4e",66,1
"686",1,1,2094,3,14,1,"1c56a4e",67,1
"696",0,1,1738,14,26,1,"1c56a4e",68,1
"706",1,0,687,26,6,1,"1c56a4e",69,1
"7110",0,1,874,6,20,1,"1c56a4e",70,1
"726",1,0,270,20,7,1,"1c56a4e",71,1
"736",0,0,434,7,8,1,"1c56a4e",72,1
"746",1,1,390,8,17,1,"1c56a4e",73,1
"756",1,0,2465,17,36,1,"1c56a4e",74,1
"766",-1,-1,0,36,12,1,"1c56a4e",75,1
"776",-1,-1,0,12,7,1,"1c56a4e",76,1
"786",1,0,2085,7,26,1,"1c56a4e",77,1
"796",1,0,281,26,2,1,"1c56a4e",78,1
"806",0,0,396,2,16,1,"1c56a4e",79,1
"8110",1,0,329,16,21,1,"1c56a4e",80,1
"826",0,1,268,21,1,1,"1c56a4e",81,1
"836",0,0,800,1,13,1,"1c56a4e",82,1
"846",1,0,363,13,23,1,"1c56a4e",83,1
"856",0,0,297,23,20,1,"1c56a4e",84,1
"866",1,1,453,20,30,1,"1c56a4e",85,1
"876",0,1,2016,30,6,1,"1c56a4e",86,1
"886",1,0,444,6,33,1,"1c56a4e",87,1
"896",0,1,479,33,11,1,"1c56a4e",88,1
"906",1,0,299,11,32,1,"1c56a4e",89,1
"9110",0,0,471,32,31,1,"1c56a4e",90,1
"926",1,1,355,31,22,1,"1c56a4e",91,1
"936",0,1,367,22,3,1,"1c56a4e",92,1
"946",1,1,323,3,4,1,"1c56a4e",93,1
"956",1,1,463,4,9,1,"1c56a4e",94,1
"966",0,0,115,9,5,1,"1c56a4e",95,1
"976",1,0,294,5,24,1,"1c56a4e",96,1
"986",0,1,339,24,8,1,"1c56a4e",97,1
"996",1,0,383,8,27,1,"1c56a4e",98,1
"1006",1,0,339,27,18,1,"1c56a4e",99,1
"10110",0,1,512,18,35,1,"1c56a4e",100,1
"1026",0,1,283,35,10,1,"1c56a4e",101,1
"1036",0,1,439,10,28,1,"1c56a4e",102,1
"1046",1,1,299,28,19,1,"1c56a4e",103,1
"1056",0,1,543,19,15,1,"1c56a4e",104,1
"1066",1,0,314,15,25,1,"1c56a4e",105,1
"1076",0,0,415,25,34,1,"1c56a4e",106,1
"1086",1,0,363,34,14,1,"1c56a4e",107,1
"1096",0,1,6,14,29,1,"1c56a4e",108,1
"1106",1,0,266,29,6,1,"1c56a4e",109,1
"11110",0,1,182,6,35,1,"1c56a4e",110,1
"1126",0,0,352,35,34,1,"1c56a4e",111,1
"1136",1,0,270,34,18,1,"1c56a4e",112,1
"1146",0,1,392,18,25,1,"1c56a4e",113,1
"1156",0,1,261,25,11,1,"1c56a4e",114,1
"1166",1,0,143,11,30,1,"1c56a4e",115,1
"1176",0,1,340,30,16,1,"1c56a4e",116,1
"1186",-1,-1,0,16,24,1,"1c56a4e",117,1
"1196",-1,-1,0,24,28,1,"1c56a4e",118,1
"1206",0,1,371,28,3,1,"1c56a4e",119,1
"12110",1,0,293,3,27,1,"1c56a4e",120,1
"1226",0,0,747,27,32,1,"1c56a4e",121,1
"1236",1,0,343,32,9,1,"1c56a4e",122,1
"1246",0,1,364,9,22,1,"1c56a4e",123,1
"1256",0,0,399,22,26,1,"1c56a4e",124,1
"1266",1,1,363,26,21,1,"1c56a4e",125,1
"1276",1,0,343,21,1,1,"1c56a4e",126,1
"1286",0,1,138,1,36,1,"1c56a4e",127,1
"1296",-1,-1,0,36,31,1,"1c56a4e",128,1
"1306",0,0,441,31,23,1,"1c56a4e",129,1
"13110",1,1,157,23,29,1,"1c56a4e",130,1
"1326",1,0,312,29,7,1,"1c56a4e",131,1
"1336",0,0,420,7,5,1,"1c56a4e",132,1
"1346",1,1,441,5,17,1,"1c56a4e",133,1
"1356",1,0,284,17,19,1,"1c56a4e",134,1
"1366",0,1,312,19,14,1,"1c56a4e",135,1
"1376",0,0,299,14,10,1,"1c56a4e",136,1
"1386",-1,-1,0,10,15,1,"1c56a4e",137,1
"1396",-1,-1,0,15,2,1,"1c56a4e",138,1
"1406",0,0,344,2,12,1,"1c56a4e",139,1
"14110",-1,-1,0,12,8,1,"1c56a4e",140,1
"1426",1,1,711,8,13,1,"1c56a4e",141,1
"1436",1,0,1429,13,20,1,"1c56a4e",142,1
"1446",0,1,968,20,4,1,"1c56a4e",143,1
"1456",1,0,340,4,33,1,"1c56a4e",144,1
"1466",0,0,504,33,20,1,"1c56a4e",145,1
"1476",1,0,516,20,16,1,"1c56a4e",146,1
"1486",1,1,280,16,9,1,"1c56a4e",147,1
"1496",0,1,484,9,36,1,"1c56a4e",148,1
"1506",1,1,343,36,27,1,"1c56a4e",149,1
"15110",0,1,379,27,5,1,"1c56a4e",150,1
"1526",1,0,302,5,21,1,"1c56a4e",151,1
"1536",0,1,267,21,15,1,"1c56a4e",152,1
"1546",1,1,245,15,3,1,"1c56a4e",153,1
"1556",0,1,586,3,25,1,"1c56a4e",154,1
"1566",-1,-1,0,25,35,1,"1c56a4e",155,1
"1576",0,1,1361,35,7,1,"1c56a4e",156,1
"1586",0,0,534,7,17,1,"1c56a4e",157,1
"1596",1,0,264,17,26,1,"1c56a4e",158,1
"1606",0,1,277,26,10,1,"1c56a4e",159,1
"16110",0,1,306,10,22,1,"1c56a4e",160,1
"1626",0,0,213,22,33,1,"1c56a4e",161,1
"1636",0,1,58,33,6,1,"1c56a4e",162,1
"1646",1,0,341,6,28,1,"1c56a4e",163,1
"1656",0,1,729,28,12,1,"1c56a4e",164,1
"1666",1,0,956,12,30,1,"1c56a4e",165,1
"1676",0,1,440,30,8,1,"1c56a4e",166,1
"1686",0,0,292,8,1,1,"1c56a4e",167,1
"1696",1,0,240,1,23,1,"1c56a4e",168,1
"1706",0,0,340,23,24,1,"1c56a4e",169,1
"17110",1,0,23,24,2,1,"1c56a4e",170,1
"1726",0,0,307,2,4,1,"1c56a4e",171,1
"1736",0,0,287,4,14,1,"1c56a4e",172,1
"1746",0,1,275,14,31,1,"1c56a4e",173,1
"1756",0,0,623,31,29,1,"1c56a4e",174,1
"1766",1,1,330,29,34,1,"1c56a4e",175,1
"1776",1,1,280,34,32,1,"1c56a4e",176,1
"1786",1,0,267,32,13,1,"1c56a4e",177,1
"1796",0,0,647,13,18,1,"1c56a4e",178,1
"1806",1,1,275,18,11,1,"1c56a4e",179,1
"18110",0,1,192,11,19,1,"1c56a4e",180,1
"1826",1,1,66,19,28,1,"1c56a4e",181,1
"1836",0,0,85,28,34,1,"1c56a4e",182,1
"1846",1,1,242,34,22,1,"1c56a4e",183,1
"1856",1,0,389,22,13,1,"1c56a4e",184,1
"1866",1,0,697,13,19,1,"1c56a4e",185,1
"1876",1,1,844,19,31,1,"1c56a4e",186,1
"1886",1,0,1106,31,5,1,"1c56a4e",187,1
"1896",-1,-1,0,5,24,1,"1c56a4e",188,1
"1906",0,0,433,24,21,1,"1c56a4e",189,1
"19110",1,0,388,21,9,1,"1c56a4e",190,1
"1926",0,1,393,9,33,1,"1c56a4e",191,1
"1936",0,0,437,33,36,1,"1c56a4e",192,1
"1946",1,1,336,36,29,1,"1c56a4e",193,1
"1956",0,1,244,29,10,1,"1c56a4e",194,1
"1966",0,1,417,10,26,1,"1c56a4e",195,1
"1976",0,1,355,26,2,1,"1c56a4e",196,1
"1986",0,0,825,2,14,1,"1c56a4e",197,1
"1996",-1,-1,0,14,1,1,"1c56a4e",198,1
"2006",0,0,744,1,17,1,"1c56a4e",199,1
"20110",1,1,163,17,4,1,"1c56a4e",200,1
"2026",1,0,263,4,23,1,"1c56a4e",201,1
"2036",0,0,459,23,27,1,"1c56a4e",202,1
"2046",1,1,288,27,35,1,"1c56a4e",203,1
"2056",1,0,283,35,12,1,"1c56a4e",204,1
"2066",0,1,280,12,32,1,"1c56a4e",205,1
"2076",0,0,267,32,25,1,"1c56a4e",206,1
"2086",1,0,272,25,7,1,"1c56a4e",207,1
"2096",0,0,1187,7,16,1,"1c56a4e",208,1
"2106",1,0,1336,16,30,1,"1c56a4e",209,1
"21110",0,1,627,30,11,1,"1c56a4e",210,1
"2126",0,0,335,11,18,1,"1c56a4e",211,1
"2136",-1,-1,0,18,6,1,"1c56a4e",212,1
"2146",0,1,1407,6,20,1,"1c56a4e",213,1
"2156",1,0,882,20,3,1,"1c56a4e",214,1
"2166",0,0,1070,3,15,1,"1c56a4e",215,1
"2176",1,1,355,15,8,1,"1c56a4e",216,1
"2186",0,0,222,8,7,1,"1c56a4e",217,1
"2196",1,1,233,7,8,1,"1c56a4e",218,1
"2206",0,0,733,8,15,1,"1c56a4e",219,1
"22110",1,0,440,15,27,1,"1c56a4e",220,1
"2226",0,1,470,27,3,1,"1c56a4e",221,1
"2236",0,0,2499,3,6,1,"1c56a4e",222,1
"2246",0,1,629,6,30,1,"1c56a4e",223,1
"2256",1,0,535,30,10,1,"1c56a4e",224,1
"2266",0,1,379,10,35,1,"1c56a4e",225,1
"2276",1,1,616,35,23,1,"1c56a4e",226,1
"2286",1,0,1275,23,11,1,"1c56a4e",227,1
"2296",1,0,1615,11,20,1,"1c56a4e",228,1
"2306",0,0,2042,20,34,1,"1c56a4e",229,1
"23110",1,0,727,34,4,1,"1c56a4e",230,1
"2326",0,0,860,4,16,1,"1c56a4e",231,1
"2336",1,0,287,16,19,1,"1c56a4e",232,1
"2346",0,1,555,19,12,1,"1c56a4e",233,1
"2356",1,1,645,12,2,1,"1c56a4e",234,1
"2366",1,0,322,2,29,1,"1c56a4e",235,1
"2376",0,0,141,29,22,1,"1c56a4e",236,1
"2386",0,0,2353,22,25,1,"1c56a4e",237,1
"2396",1,0,396,25,9,1,"1c56a4e",238,1
"2406",0,1,307,9,26,1,"1c56a4e",239,1
"24110",1,0,269,26,17,1,"1c56a4e",240,1
"2426",1,0,841,17,33,1,"1c56a4e",241,1
"2436",0,0,1597,33,32,1,"1c56a4e",242,1
"2446",1,1,280,32,28,1,"1c56a4e",243,1
"2456",1,1,284,28,24,1,"1c56a4e",244,1
"2466",1,0,225,24,14,1,"1c56a4e",245,1
"2476",0,1,437,14,31,1,"1c56a4e",246,1
"2486",0,0,440,31,36,1,"1c56a4e",247,1
"2496",1,0,499,36,5,1,"1c56a4e",248,1
"2506",1,1,737,5,18,1,"1c56a4e",249,1
"2518",1,1,291,18,1,1,"1c56a4e",250,1
"2526",0,1,1088,1,21,1,"1c56a4e",251,1
"2536",1,0,276,21,13,1,"1c56a4e",252,1
"269",-1,-1,0,0,6,1,"133fe68",1,1
"327",1,0,690,6,28,1,"133fe68",2,1
"427",0,1,731,28,1,1,"133fe68",3,1
"527",0,0,931,1,15,1,"133fe68",4,1
"627",0,0,779,15,12,1,"133fe68",5,1
"727",0,0,998,12,14,1,"133fe68",6,1
"827",0,0,1153,14,18,1,"133fe68",7,1
"927",1,1,793,18,3,1,"133fe68",8,1
"1027",0,1,403,3,34,1,"133fe68",9,1
"1127",0,1,523,34,11,1,"133fe68",10,1
"1227",0,1,596,11,20,1,"133fe68",11,1
"1327",0,1,478,20,7,1,"133fe68",12,1
"1427",0,1,346,7,27,1,"133fe68",13,1
"1527",0,1,499,27,8,1,"133fe68",14,1
"1627",0,1,1294,8,31,1,"133fe68",15,1
"1727",1,1,935,31,33,1,"133fe68",16,1
"1827",1,1,547,33,19,1,"133fe68",17,1
"1927",1,1,779,19,35,1,"133fe68",18,1
"2027",1,1,311,35,30,1,"133fe68",19,1
"2127",0,1,880,30,9,1,"133fe68",20,1
"2227",0,1,378,9,25,1,"133fe68",21,1
"2327",0,1,277,25,4,1,"133fe68",22,1
"2427",1,1,1245,4,2,1,"133fe68",23,1
"2519",1,1,598,2,17,1,"133fe68",24,1
"2610",0,1,1486,17,23,1,"133fe68",25,1
"277",0,1,489,23,10,1,"133fe68",26,1
"287",0,1,753,10,29,1,"133fe68",27,1
"297",1,1,490,29,24,1,"133fe68",28,1
"307",0,0,292,24,22,1,"133fe68",29,1
"3111",1,0,1853,22,16,1,"133fe68",30,1
"328",0,1,328,16,21,1,"133fe68",31,1
"337",1,1,1232,21,32,1,"133fe68",32,1
"347",1,1,1449,32,36,1,"133fe68",33,1
"357",0,1,1009,36,13,1,"133fe68",34,1
"367",1,0,1275,13,26,1,"133fe68",35,1
"377",0,1,2452,26,5,1,"133fe68",36,1
"387",1,1,1710,5,6,1,"133fe68",37,1
"397",0,1,2361,6,28,1,"133fe68",38,1
"407",0,1,1634,28,1,1,"133fe68",39,1
"4111",1,1,2171,1,15,1,"133fe68",40,1
"428",-1,-1,0,15,12,1,"133fe68",41,1
"437",1,1,411,12,14,1,"133fe68",42,1
"447",1,1,757,14,18,1,"133fe68",43,1
"457",1,1,382,18,3,1,"133fe68",44,1
"467",0,1,296,3,34,1,"133fe68",45,1
"477",-1,0,1281,34,11,1,"133fe68",46,1
"487",0,1,1386,11,20,1,"133fe68",47,1
"497",0,1,868,20,7,1,"133fe68",48,1
"507",0,1,558,7,27,1,"133fe68",49,1
"5111",0,1,455,27,8,1,"133fe68",50,1
"528",0,1,785,8,31,1,"133fe68",51,1
"537",0,0,715,31,33,1,"133fe68",52,1
"547",0,0,2403,33,19,1,"133fe68",53,1
"557",0,0,1038,19,35,1,"133fe68",54,1
"567",1,1,984,35,30,1,"133fe68",55,1
"577",0,1,739,30,9,1,"133fe68",56,1
"587",0,1,459,9,25,1,"133fe68",57,1
"597",0,1,771,25,4,1,"133fe68",58,1
"607",1,1,829,4,2,1,"133fe68",59,1
"6111",0,0,246,2,17,1,"133fe68",60,1
"628",0,1,929,17,23,1,"133fe68",61,1
"637",0,1,2072,23,10,1,"133fe68",62,1
"647",0,1,512,10,29,1,"133fe68",63,1
"657",1,1,1048,29,24,1,"133fe68",64,1
"667",1,1,1233,24,22,1,"133fe68",65,1
"677",0,1,2155,22,16,1,"133fe68",66,1
"687",0,1,1283,16,21,1,"133fe68",67,1
"697",1,1,1710,21,32,1,"133fe68",68,1
"707",1,1,1672,32,36,1,"133fe68",69,1
"7111",1,0,689,36,13,1,"133fe68",70,1
"728",0,1,828,13,26,1,"133fe68",71,1
"737",1,0,675,26,5,1,"133fe68",72,1
"747",0,1,574,5,36,1,"133fe68",73,1
"757",0,1,695,36,5,1,"133fe68",74,1
"767",1,1,1120,5,6,1,"133fe68",75,1
"777",1,1,2312,6,17,1,"133fe68",76,1
"787",1,1,2050,17,15,1,"133fe68",77,1
"797",1,1,667,15,16,1,"133fe68",78,1
"807",0,1,517,16,33,1,"133fe68",79,1
"8111",0,1,765,33,12,1,"133fe68",80,1
"828",0,1,1429,12,21,1,"133fe68",81,1
"837",1,1,2175,21,34,1,"133fe68",82,1
"847",1,1,2153,34,29,1,"133fe68",83,1
"857",0,0,2113,29,23,1,"133fe68",84,1
"867",0,1,924,23,9,1,"133fe68",85,1
"877",0,1,1444,9,28,1,"133fe68",86,1
"887",-1,0,749,28,31,1,"133fe68",87,1
"897",0,1,919,31,3,1,"133fe68",88,1
"907",1,1,800,3,2,1,"133fe68",89,1
"9111",0,1,554,2,25,1,"133fe68",90,1
"928",0,1,1186,25,8,1,"133fe68",91,1
"937",1,1,1562,8,4,1,"133fe68",92,1
"947",0,1,1218,4,19,1,"133fe68",93,1
"957",0,1,811,19,14,1,"133fe68",94,1
"967",1,1,1268,14,18,1,"133fe68",95,1
"977",0,1,942,18,32,1,"133fe68",96,1
"987",1,1,1398,32,35,1,"133fe68",97,1
"997",0,1,909,35,7,1,"133fe68",98,1
"1007",1,1,823,7,1,1,"133fe68",99,1
"10111",0,1,351,1,24,1,"133fe68",100,1
"1028",1,1,504,24,30,1,"133fe68",101,1
"1037",0,1,641,30,10,1,"133fe68",102,1
"1047",0,1,425,10,27,1,"133fe68",103,1
"1057",1,1,757,27,20,1,"133fe68",104,1
"1067",1,0,1583,20,13,1,"133fe68",105,1
"1077",1,1,1992,13,11,1,"133fe68",106,1
"1087",0,1,2003,11,22,1,"133fe68",107,1
"1097",1,1,1547,22,26,1,"133fe68",108,1
"1107",1,0,2070,26,10,1,"133fe68",109,1
"11111",1,1,2206,10,6,1,"133fe68",110,1
"1128",0,1,1720,6,23,1,"133fe68",111,1
"1137",0,1,1822,23,15,1,"133fe68",112,1
"1147",0,1,1016,15,22,1,"133fe68",113,1
"1157",0,1,1056,22,14,1,"133fe68",114,1
"1167",-1,-1,0,14,27,1,"133fe68",115,1
"1177",1,1,355,27,35,1,"133fe68",116,1
"1187",0,1,1167,35,8,1,"133fe68",117,1
"1197",0,0,1288,8,3,1,"133fe68",118,1
"1207",1,1,194,3,1,1,"133fe68",119,1
"12111",0,1,1532,1,33,1,"133fe68",120,1
"1228",-1,-1,0,33,16,1,"133fe68",121,1
"1237",0,1,605,16,34,1,"133fe68",122,1
"1247",0,1,375,34,2,1,"133fe68",123,1
"1257",1,1,1377,2,18,1,"133fe68",124,1
"1267",0,1,1210,18,26,1,"133fe68",125,1
"1277",1,1,643,26,19,1,"133fe68",126,1
"1287",1,1,925,19,30,1,"133fe68",127,1
"1297",0,1,727,30,7,1,"133fe68",128,1
"1307",0,1,768,7,24,1,"133fe68",129,1
"13111",0,1,217,24,13,1,"133fe68",130,1
"1328",0,1,485,13,28,1,"133fe68",131,1
"1337",1,1,1117,28,21,1,"133fe68",132,1
"1347",0,0,1223,21,31,1,"133fe68",133,1
"1357",1,1,672,31,32,1,"133fe68",134,1
"1367",1,1,296,32,25,1,"133fe68",135,1
"1377",0,1,608,25,4,1,"133fe68",136,1
"1387",1,0,843,4,20,1,"133fe68",137,1
"1397",0,1,611,20,11,1,"133fe68",138,1
"1407",0,1,218,11,29,1,"133fe68",139,1
"14111",1,0,19,29,9,1,"133fe68",140,1
"1428",0,0,444,9,5,1,"133fe68",141,1
"1437",1,1,516,5,17,1,"133fe68",142,1
"1447",1,0,797,17,36,1,"133fe68",143,1
"1457",0,1,792,36,12,1,"133fe68",144,1
"1467",1,0,592,12,34,1,"133fe68",145,1
"1477",0,1,410,34,12,1,"133fe68",146,1
"1487",0,0,738,12,16,1,"133fe68",147,1
"1497",1,0,556,16,23,1,"133fe68",148,1
"1507",0,1,550,23,14,1,"133fe68",149,1
"15111",0,1,1678,14,32,1,"133fe68",150,1
"1528",1,0,374,32,17,1,"133fe68",151,1
"1537",-1,-1,0,17,22,1,"133fe68",152,1
"1547",0,0,613,22,33,1,"133fe68",153,1
"1557",0,0,477,33,31,1,"133fe68",154,1
"1567",1,1,262,31,28,1,"133fe68",155,1
"1577",0,0,351,28,24,1,"133fe68",156,1
"1587",0,1,902,24,9,1,"133fe68",157,1
"1597",1,1,833,9,6,1,"133fe68",158,1
"1607",1,1,825,6,10,1,"133fe68",159,1
"16111",1,1,1012,10,11,1,"133fe68",160,1
"1628",0,1,716,11,19,1,"133fe68",161,1
"1637",1,1,902,19,27,1,"133fe68",162,1
"1647",1,1,289,27,26,1,"133fe68",163,1
"1657",0,1,970,26,3,1,"133fe68",164,1
"1667",0,1,1380,3,20,1,"133fe68",165,1
"1677",0,1,590,20,4,1,"133fe68",166,1
"1687",1,0,248,4,36,1,"133fe68",167,1
"1697",0,1,547,36,15,1,"133fe68",168,1
"1707",1,1,397,15,1,1,"133fe68",169,1
"17111",1,1,1381,1,7,1,"133fe68",170,1
"1728",1,1,446,7,2,1,"133fe68",171,1
"1737",0,1,1337,2,21,1,"133fe68",172,1
"1747",0,1,658,21,18,1,"133fe68",173,1
"1757",1,1,253,18,8,1,"133fe68",174,1
"1767",1,1,854,8,13,1,"133fe68",175,1
"1777",0,1,640,13,29,1,"133fe68",176,1
"1787",1,1,1083,29,25,1,"133fe68",177,1
"1797",0,0,1447,25,35,1,"133fe68",178,1
"1807",1,1,271,35,30,1,"133fe68",179,1
"18111",0,1,887,30,5,1,"133fe68",180,1
"1828",0,1,784,5,20,1,"133fe68",181,1
"1837",0,1,232,20,17,1,"133fe68",182,1
"1847",0,1,768,17,30,1,"133fe68",183,1
"1857",1,1,795,30,26,1,"133fe68",184,1
"1867",0,1,467,26,3,1,"133fe68",185,1
"1877",0,1,700,3,19,1,"133fe68",186,1
"1887",1,1,1200,19,32,1,"133fe68",187,1
"1897",1,1,1293,32,27,1,"133fe68",188,1
"1907",1,1,1205,27,21,1,"133fe68",189,1
"19111",0,0,365,21,36,1,"133fe68",190,1
"1928",1,1,261,36,29,1,"133fe68",191,1
"1937",0,1,63,29,16,1,"133fe68",192,1
"1947",1,1,554,16,13,1,"133fe68",193,1
"1957",1,1,500,13,10,1,"133fe68",194,1
"1967",0,1,397,10,31,1,"133fe68",195,1
"1977",0,1,392,31,5,1,"133fe68",196,1
"1987",1,1,464,5,2,1,"133fe68",197,1
"1997",1,1,794,2,15,1,"133fe68",198,1
"2007",0,0,1077,15,11,1,"133fe68",199,1
"20111",1,1,525,11,8,1,"133fe68",200,1
"2028",0,1,581,8,23,1,"133fe68",201,1
"2037",0,1,432,23,12,1,"133fe68",202,1
"2047",1,1,568,12,6,1,"133fe68",203,1
"2057",0,1,321,6,22,1,"133fe68",204,1
"2067",1,1,57,22,24,1,"133fe68",205,1
"2077",0,1,242,24,14,1,"133fe68",206,1
"2087",1,1,649,14,18,1,"133fe68",207,1
"2097",1,1,210,18,7,1,"133fe68",208,1
"2107",0,1,813,7,33,1,"133fe68",209,1
"21111",1,1,1460,33,34,1,"133fe68",210,1
"2128",1,1,1583,34,25,1,"133fe68",211,1
"2137",1,0,903,25,4,1,"133fe68",212,1
"2147",0,1,146,4,28,1,"133fe68",213,1
"2157",0,1,315,28,1,1,"133fe68",214,1
"2167",1,1,757,1,9,1,"133fe68",215,1
"2177",0,1,367,9,35,1,"133fe68",216,1
"2187",0,0,167,35,20,1,"133fe68",217,1
"2197",1,1,369,20,30,1,"133fe68",218,1
"2207",0,1,842,30,12,1,"133fe68",219,1
"22111",0,1,1571,12,22,1,"133fe68",220,1
"2228",0,0,652,22,24,1,"133fe68",221,1
"2237",1,1,789,24,23,1,"133fe68",222,1
"2247",0,1,1006,23,18,1,"133fe68",223,1
"2257",0,1,856,18,21,1,"133fe68",224,1
"2267",1,1,18,21,29,1,"133fe68",225,1
"2277",0,1,43,29,13,1,"133fe68",226,1
"2287",0,1,85,13,34,1,"133fe68",227,1
"2297",1,1,2334,34,32,1,"133fe68",228,1
"2307",0,1,1113,32,6,1,"133fe68",229,1
"23111",0,1,930,6,35,1,"133fe68",230,1
"2328",1,1,923,35,25,1,"133fe68",231,1
"2337",0,1,690,25,1,1,"133fe68",232,1
"2347",0,0,12,1,8,1,"133fe68",233,1
"2357",0,0,628,8,16,1,"133fe68",234,1
"2367",0,0,1116,16,15,1,"133fe68",235,1
"2377",0,0,1606,15,4,1,"133fe68",236,1
"2387",0,1,2160,4,36,1,"133fe68",237,1
"2397",0,1,1671,36,7,1,"133fe68",238,1
"2407",0,1,431,7,26,1,"133fe68",239,1
"24111",0,1,266,26,17,1,"133fe68",240,1
"2428",0,0,260,17,9,1,"133fe68",241,1
"2437",0,1,1355,9,19,1,"133fe68",242,1
"2447",0,1,371,19,5,1,"133fe68",243,1
"2457",1,1,861,5,14,1,"133fe68",244,1
"2467",0,0,1799,14,3,1,"133fe68",245,1
"2477",1,1,719,3,2,1,"133fe68",246,1
"2487",1,1,666,2,11,1,"133fe68",247,1
"2497",1,1,836,11,10,1,"133fe68",248,1
"2507",0,1,1117,10,33,1,"133fe68",249,1
"25110",1,1,312,33,27,1,"133fe68",250,1
"2527",1,1,1152,27,31,1,"133fe68",251,1
"2537",1,1,792,31,28,1,"133fe68",252,1
"270",1,0,2275,0,18,1,"1ad6b08",1,1
"329",1,0,895,18,23,1,"1ad6b08",2,1
"429",0,0,1601,23,36,1,"1ad6b08",3,1
"529",1,1,481,36,19,1,"1ad6b08",4,1
"629",1,1,1503,19,28,1,"1ad6b08",5,1
"729",1,1,753,28,26,1,"1ad6b08",6,1
"829",1,0,561,26,3,1,"1ad6b08",7,1
"929",0,1,979,3,31,1,"1ad6b08",8,1
"1029",0,0,1047,31,32,1,"1ad6b08",9,1
"1129",0,1,1490,32,12,1,"1ad6b08",10,1
"1229",0,0,1213,12,10,1,"1ad6b08",11,1
"1329",1,0,377,10,21,1,"1ad6b08",12,1
"1429",0,1,208,21,7,1,"1ad6b08",13,1
"1529",0,0,348,7,16,1,"1ad6b08",14,1
"1629",0,1,384,16,25,1,"1ad6b08",15,1
"1729",1,1,1730,25,20,1,"1ad6b08",16,1
"1829",1,0,900,20,15,1,"1ad6b08",17,1
"1929",0,1,184,15,30,1,"1ad6b08",18,1
"2029",0,1,296,30,8,1,"1ad6b08",19,1
"2129",0,1,134,8,35,1,"1ad6b08",20,1
"2229",0,1,336,35,2,1,"1ad6b08",21,1
"2329",0,0,162,2,14,1,"1ad6b08",22,1
"2429",1,1,502,14,17,1,"1ad6b08",23,1
"2520",1,1,238,17,9,1,"1ad6b08",24,1
"2611",1,1,566,9,11,1,"1ad6b08",25,1
"278",-1,-1,0,11,24,1,"1ad6b08",26,1
"288",1,1,60,24,34,1,"1ad6b08",27,1
"298",-1,-1,0,34,1,1,"1ad6b08",28,1
"308",1,1,972,1,13,1,"1ad6b08",29,1
"3112",1,0,1261,13,22,1,"1ad6b08",30,1
"3210",0,1,539,22,4,1,"1ad6b08",31,1
"338",0,1,891,4,33,1,"1ad6b08",32,1
"348",-1,-1,0,33,27,1,"1ad6b08",33,1
"358",0,1,340,27,6,1,"1ad6b08",34,1
"368",-1,-1,0,6,29,1,"1ad6b08",35,1
"378",0,1,345,29,5,1,"1ad6b08",36,1
"388",0,0,902,5,18,1,"1ad6b08",37,1
"398",0,1,496,18,23,1,"1ad6b08",38,1
"408",0,0,1315,23,36,1,"1ad6b08",39,1
"4112",-1,-1,0,36,19,1,"1ad6b08",40,1
"4210",1,1,717,19,28,1,"1ad6b08",41,1
"438",1,1,1365,28,26,1,"1ad6b08",42,1
"448",-1,-1,0,26,3,1,"1ad6b08",43,1
"458",1,0,2464,3,31,1,"1ad6b08",44,1
"468",0,0,781,31,32,1,"1ad6b08",45,1
"478",0,1,976,32,12,1,"1ad6b08",46,1
"488",-1,-1,0,12,10,1,"1ad6b08",47,1
"498",0,1,977,10,21,1,"1ad6b08",48,1
"508",0,1,1050,21,7,1,"1ad6b08",49,1
"5112",0,0,2296,7,16,1,"1ad6b08",50,1
"5210",-1,-1,0,16,25,1,"1ad6b08",51,1
"538",1,1,274,25,20,1,"1ad6b08",52,1
"548",0,1,1109,20,15,1,"1ad6b08",53,1
"558",-1,-1,0,15,30,1,"1ad6b08",54,1
"568",0,1,446,30,8,1,"1ad6b08",55,1
"578",0,1,745,8,35,1,"1ad6b08",56,1
"588",1,0,301,35,2,1,"1ad6b08",57,1
"598",0,0,662,2,14,1,"1ad6b08",58,1
"608",1,1,276,14,17,1,"1ad6b08",59,1
"6112",1,1,581,17,9,1,"1ad6b08",60,1
"6210",0,0,939,9,11,1,"1ad6b08",61,1
"638",1,0,664,11,24,1,"1ad6b08",62,1
"648",1,1,1357,24,34,1,"1ad6b08",63,1
"658",1,0,59,34,1,1,"1ad6b08",64,1
"668",0,0,429,1,13,1,"1ad6b08",65,1
"678",0,1,1434,13,22,1,"1ad6b08",66,1
"688",0,1,73,22,4,1,"1ad6b08",67,1
"698",0,1,58,4,33,1,"1ad6b08",68,1
"708",0,0,307,33,27,1,"1ad6b08",69,1
"7112",0,1,2181,27,6,1,"1ad6b08",70,1
"7210",0,1,259,6,29,1,"1ad6b08",71,1
"738",0,1,25,29,5,1,"1ad6b08",72,1
"748",1,1,1102,5,11,1,"1ad6b08",73,1
"758",0,1,1823,11,20,1,"1ad6b08",74,1
"768",-1,-1,0,20,33,1,"1ad6b08",75,1
"778",1,1,960,33,29,1,"1ad6b08",76,1
"788",1,1,1334,29,25,1,"1ad6b08",77,1
"798",1,1,263,25,35,1,"1ad6b08",78,1
"808",1,0,1594,35,12,1,"1ad6b08",79,1
"8112",0,0,370,12,15,1,"1ad6b08",80,1
"8210",1,0,287,15,31,1,"1ad6b08",81,1
"838",0,1,204,31,7,1,"1ad6b08",82,1
"848",1,1,1317,7,18,1,"1ad6b08",83,1
"858",1,0,245,18,28,1,"1ad6b08",84,1
"868",0,1,81,28,2,1,"1ad6b08",85,1
"878",0,0,164,2,9,1,"1ad6b08",86,1
"888",-1,-1,0,9,6,1,"1ad6b08",87,1
"898",1,0,604,6,24,1,"1ad6b08",88,1
"908",0,0,277,24,36,1,"1ad6b08",89,1
"9112",1,0,259,36,16,1,"1ad6b08",90,1
"9210",0,1,1148,16,26,1,"1ad6b08",91,1
"938",1,1,2482,26,21,1,"1ad6b08",92,1
"948",1,0,482,21,4,1,"1ad6b08",93,1
"958",0,1,825,4,34,1,"1ad6b08",94,1
"968",0,1,274,34,8,1,"1ad6b08",95,1
"978",0,0,547,8,14,1,"1ad6b08",96,1
"988",1,0,121,14,30,1,"1ad6b08",97,1
"998",0,0,118,30,23,1,"1ad6b08",98,1
"1008",1,0,194,23,10,1,"1ad6b08",99,1
"10112",1,1,402,10,5,1,"1ad6b08",100,1
"10210",1,1,192,5,13,1,"1ad6b08",101,1
"1038",1,0,186,13,27,1,"1ad6b08",102,1
"1048",1,0,288,27,1,1,"1ad6b08",103,1
"1058",1,1,1296,1,3,1,"1ad6b08",104,1
"1068",1,1,312,3,17,1,"1ad6b08",105,1
"1078",1,0,317,17,22,1,"1ad6b08",106,1
"1088",0,0,327,22,19,1,"1ad6b08",107,1
"1098",1,1,305,19,32,1,"1ad6b08",108,1
"1108",1,1,351,32,25,1,"1ad6b08",109,1
"11112",1,1,96,25,23,1,"1ad6b08",110,1
"11210",1,1,94,23,34,1,"1ad6b08",111,1
"1138",1,1,2449,34,30,1,"1ad6b08",112,1
"1148",0,1,1160,30,11,1,"1ad6b08",113,1
"1158",0,1,183,11,28,1,"1ad6b08",114,1
"1168",0,1,88,28,15,1,"1ad6b08",115,1
"1178",0,1,107,15,26,1,"1ad6b08",116,1
"1188",-1,-1,0,26,16,1,"1ad6b08",117,1
"1198",-1,-1,0,16,31,1,"1ad6b08",118,1
"1208",0,0,2281,31,35,1,"1ad6b08",119,1
"12112",1,0,686,35,8,1,"1ad6b08",120,1
"12210",0,0,375,8,10,1,"1ad6b08",121,1
"1238",1,0,728,10,21,1,"1ad6b08",122,1
"1248",0,0,514,21,27,1,"1ad6b08",123,1
"1258",1,0,321,27,13,1,"1ad6b08",124,1
"1268",1,1,177,13,17,1,"1ad6b08",125,1
"1278",1,1,508,17,6,1,"1ad6b08",126,1
"1288",1,1,313,6,18,1,"1ad6b08",127,1
"1298",1,0,310,18,33,1,"1ad6b08",128,1
"1308",1,0,262,33,12,1,"1ad6b08",129,1
"13112",0,1,192,12,36,1,"1ad6b08",130,1
"13210",1,1,1456,36,29,1,"1ad6b08",131,1
"1338",1,0,244,29,14,1,"1ad6b08",132,1
"1348",0,0,103,14,5,1,"1ad6b08",133,1
"1358",0,1,296,5,32,1,"1ad6b08",134,1
"1368",0,0,1358,32,24,1,"1ad6b08",135,1
"1378",1,0,585,24,3,1,"1ad6b08",136,1
"1388",0,0,302,3,1,1,"1ad6b08",137,1
"1398",1,1,1592,1,7,1,"1ad6b08",138,1
"1408",1,1,667,7,4,1,"1ad6b08",139,1
"14112",1,1,322,4,2,1,"1ad6b08",140,1
"14210",1,0,401,2,19,1,"1ad6b08",141,1
"1438",0,0,393,19,22,1,"1ad6b08",142,1
"1448",1,1,356,22,20,1,"1ad6b08",143,1
"1458",1,0,346,20,9,1,"1ad6b08",144,1
"1468",0,0,524,9,16,1,"1ad6b08",145,1
"1478",1,0,568,16,24,1,"1ad6b08",146,1
"1488",-1,-1,0,24,7,1,"1ad6b08",147,1
"1498",1,1,324,7,10,1,"1ad6b08",148,1
"1508",0,1,250,10,25,1,"1ad6b08",149,1
"15112",0,1,1114,25,5,1,"1ad6b08",150,1
"15210",0,0,117,5,14,1,"1ad6b08",151,1
"1538",1,1,432,14,18,1,"1ad6b08",152,1
"1548",1,1,216,18,2,1,"1ad6b08",153,1
"1558",1,0,465,2,20,1,"1ad6b08",154,1
"1568",1,1,336,20,21,1,"1ad6b08",155,1
"1578",1,1,2040,21,27,1,"1ad6b08",156,1
"1588",1,1,303,27,32,1,"1ad6b08",157,1
"1598",1,1,1864,32,34,1,"1ad6b08",158,1
"1608",1,0,257,34,1,1,"1ad6b08",159,1
"16112",1,1,247,1,17,1,"1ad6b08",160,1
"16210",1,1,223,17,9,1,"1ad6b08",161,1
"1638",1,1,229,9,11,1,"1ad6b08",162,1
"1648",1,1,222,11,4,1,"1ad6b08",163,1
"1658",1,1,278,4,6,1,"1ad6b08",164,1
"1668",1,1,646,6,3,1,"1ad6b08",165,1
"1678",1,1,345,3,8,1,"1ad6b08",166,1
"1688",1,1,357,8,13,1,"1ad6b08",167,1
"1698",1,0,389,13,19,1,"1ad6b08",168,1
"1708",1,1,392,19,22,1,"1ad6b08",169,1
"17112",1,1,518,22,28,1,"1ad6b08",170,1
"17210",1,1,242,28,36,1,"1ad6b08",171,1
"1738",1,1,525,36,23,1,"1ad6b08",172,1
"1748",1,1,380,23,30,1,"1ad6b08",173,1
"1758",1,0,424,30,15,1,"1ad6b08",174,1
"1768",1,0,500,15,31,1,"1ad6b08",175,1
"1778",1,1,1083,31,33,1,"1ad6b08",176,1
"1788",1,0,275,33,12,1,"1ad6b08",177,1
"1798",1,0,262,12,26,1,"1ad6b08",178,1
"1808",0,0,456,26,35,1,"1ad6b08",179,1
"18112",1,1,545,35,29,1,"1ad6b08",180,1
"18210",1,0,497,29,1,1,"1ad6b08",181,1
"1838",1,1,335,1,14,1,"1ad6b08",182,1
"1848",1,1,263,14,5,1,"1ad6b08",183,1
"1858",1,0,447,5,27,1,"1ad6b08",184,1
"1868",1,1,337,27,23,1,"1ad6b08",185,1
"1878",1,1,1517,23,28,1,"1ad6b08",186,1
"1888",1,0,1205,28,4,1,"1ad6b08",187,1
"1898",1,1,307,4,9,1,"1ad6b08",188,1
"1908",1,1,624,9,3,1,"1ad6b08",189,1
"19112",-1,-1,0,3,19,1,"1ad6b08",190,1
"19210",1,0,362,19,18,1,"1ad6b08",191,1
"1938",1,0,612,18,20,1,"1ad6b08",192,1
"1948",1,0,245,20,2,1,"1ad6b08",193,1
"1958",1,1,756,2,6,1,"1ad6b08",194,1
"1968",1,1,285,6,11,1,"1ad6b08",195,1
"1978",1,1,300,11,8,1,"1ad6b08",196,1
"1988",1,0,223,8,34,1,"1ad6b08",197,1
"1998",-1,-1,0,34,24,1,"1ad6b08",198,1
"2008",1,1,630,24,22,1,"1ad6b08",199,1
"20112",1,0,255,22,15,1,"1ad6b08",200,1
"20210",0,1,156,15,21,1,"1ad6b08",201,1
"2038",0,0,187,21,29,1,"1ad6b08",202,1
"2048",1,0,506,29,13,1,"1ad6b08",203,1
"2058",1,0,564,13,25,1,"1ad6b08",204,1
"2068",1,0,739,25,12,1,"1ad6b08",205,1
"2078",1,0,2218,12,35,1,"1ad6b08",206,1
"2088",0,1,891,35,17,1,"1ad6b08",207,1
"2098",1,1,1282,17,10,1,"1ad6b08",208,1
"2108",1,1,257,10,7,1,"1ad6b08",209,1
"21112",1,0,441,7,32,1,"1ad6b08",210,1
"21210",0,0,721,32,33,1,"1ad6b08",211,1
"2138",1,1,2434,33,30,1,"1ad6b08",212,1
"2148",1,1,2030,30,36,1,"1ad6b08",213,1
"2158",1,0,2306,36,16,1,"1ad6b08",214,1
"2168",0,1,518,16,26,1,"1ad6b08",215,1
"2178",1,1,1678,26,31,1,"1ad6b08",216,1
"2188",1,0,1040,31,16,1,"1ad6b08",217,1
"2198",1,0,410,16,30,1,"1ad6b08",218,1
"2208",0,1,282,30,17,1,"1ad6b08",219,1
"22112",1,1,1186,17,6,1,"1ad6b08",220,1
"22210",1,1,539,6,15,1,"1ad6b08",221,1
"2238",1,1,301,15,8,1,"1ad6b08",222,1
"2248",1,0,407,8,32,1,"1ad6b08",223,1
"2258",1,1,1866,32,21,1,"1ad6b08",224,1
"2268",1,1,2178,21,24,1,"1ad6b08",225,1
"2278",1,0,2324,24,11,1,"1ad6b08",226,1
"2288",1,1,2109,11,1,1,"1ad6b08",227,1
"2298",1,1,2483,1,12,1,"1ad6b08",228,1
"2308",1,0,2331,12,31,1,"1ad6b08",229,1
"23112",1,1,1882,31,35,1,"1ad6b08",230,1
"23210",1,0,385,35,10,1,"1ad6b08",231,1
"2338",0,0,138,10,13,1,"1ad6b08",232,1
"2348",1,0,193,13,28,1,"1ad6b08",233,1
"2358",1,0,872,28,3,1,"1ad6b08",234,1
"2368",1,1,683,3,2,1,"1ad6b08",235,1
"2378",1,0,306,2,27,1,"1ad6b08",236,1
"2388",0,1,422,27,4,1,"1ad6b08",237,1
"2398",0,0,277,4,7,1,"1ad6b08",238,1
"2408",1,0,103,7,33,1,"1ad6b08",239,1
"24112",0,0,213,33,29,1,"1ad6b08",240,1
"24210",1,1,585,29,26,1,"1ad6b08",241,1
"2438",1,1,365,26,34,1,"1ad6b08",242,1
"2448",1,1,2277,34,25,1,"1ad6b08",243,1
"2458",1,1,2471,25,19,1,"1ad6b08",244,1
"2468",1,1,2165,19,20,1,"1ad6b08",245,1
"2478",1,0,2388,20,18,1,"1ad6b08",246,1
"2488",1,0,1883,18,36,1,"1ad6b08",247,1
"2498",1,0,2278,36,14,1,"1ad6b08",248,1
"2508",1,1,2307,14,9,1,"1ad6b08",249,1
"25111",1,0,221,9,23,1,"1ad6b08",250,1
"2528",1,0,2436,23,5,1,"1ad6b08",251,1
"2538",1,0,1859,5,22,1,"1ad6b08",252,1
"279",-1,-1,0,0,35,1,"146f49f",1,1
"330",1,1,479,35,34,1,"146f49f",2,1
"430",0,0,744,34,20,1,"146f49f",3,1
"530",1,0,784,20,1,1,"146f49f",4,1
"630",0,0,969,1,10,1,"146f49f",5,1
"730",0,0,492,10,7,1,"146f49f",6,1
"830",1,1,920,7,16,1,"146f49f",7,1
"930",0,0,856,16,5,1,"146f49f",8,1
"1030",1,0,675,5,24,1,"146f49f",9,1
"1130",1,1,812,24,36,1,"146f49f",10,1
"1230",0,0,952,36,22,1,"146f49f",11,1
"1330",1,1,737,22,30,1,"146f49f",12,1
"1430",1,0,666,30,11,1,"146f49f",13,1
"1530",0,1,875,11,27,1,"146f49f",14,1
"1630",1,0,814,27,18,1,"146f49f",15,1
"1730",1,1,1766,18,4,1,"146f49f",16,1
"1830",1,1,759,4,14,1,"146f49f",17,1
"1930",1,0,688,14,23,1,"146f49f",18,1
"2030",0,0,724,23,26,1,"146f49f",19,1
"2130",0,0,1212,26,32,1,"146f49f",20,1
"2230",1,0,623,32,12,1,"146f49f",21,1
"2330",1,0,849,12,21,1,"146f49f",22,1
"2430",0,1,947,21,15,1,"146f49f",23,1
"2529",1,0,820,15,29,1,"146f49f",24,1
"2612",0,0,1118,29,28,1,"146f49f",25,1
"2710",1,1,688,28,31,1,"146f49f",26,1
"289",1,0,746,31,17,1,"146f49f",27,1
"299",0,1,340,17,33,1,"146f49f",28,1
"309",0,1,974,33,8,1,"146f49f",29,1
"3113",0,0,591,8,13,1,"146f49f",30,1
"3211",1,0,449,13,19,1,"146f49f",31,1
"339",0,0,930,19,25,1,"146f49f",32,1
"349",1,0,885,25,9,1,"146f49f",33,1
"359",1,1,1070,9,2,1,"146f49f",34,1
"369",0,0,664,2,6,1,"146f49f",35,1
"379",-1,-1,0,6,3,1,"146f49f",36,1
"389",1,0,940,3,35,1,"146f49f",37,1
"399",0,0,669,35,34,1,"146f49f",38,1
"409",0,0,550,34,20,1,"146f49f",39,1
"4113",1,0,744,20,1,1,"146f49f",40,1
"4211",0,0,707,1,10,1,"146f49f",41,1
"439",0,0,818,10,7,1,"146f49f",42,1
"449",1,1,549,7,16,1,"146f49f",43,1
"459",0,0,710,16,5,1,"146f49f",44,1
"469",1,0,746,5,24,1,"146f49f",45,1
"479",1,1,674,24,36,1,"146f49f",46,1
"489",0,0,829,36,22,1,"146f49f",47,1
"499",1,1,1040,22,30,1,"146f49f",48,1
"509",1,0,462,30,11,1,"146f49f",49,1
"5113",1,0,648,11,27,1,"146f49f",50,1
"5211",0,1,946,27,18,1,"146f49f",51,1
"539",0,0,1471,18,4,1,"146f49f",52,1
"549",1,1,670,4,14,1,"146f49f",53,1
"559",0,1,639,14,23,1,"146f49f",54,1
"569",0,0,881,23,26,1,"146f49f",55,1
"579",1,1,1292,26,32,1,"146f49f",56,1
"589",0,1,685,32,12,1,"146f49f",57,1
"599",0,1,765,12,21,1,"146f49f",58,1
"609",1,0,871,21,15,1,"146f49f",59,1
"6113",1,0,659,15,29,1,"146f49f",60,1
"6211",1,1,1067,29,28,1,"146f49f",61,1
"639",1,1,852,28,31,1,"146f49f",62,1
"649",1,0,717,31,17,1,"146f49f",63,1
"659",1,0,656,17,33,1,"146f49f",64,1
"669",0,1,1257,33,8,1,"146f49f",65,1
"679",1,1,1394,8,13,1,"146f49f",66,1
"689",1,0,731,13,19,1,"146f49f",67,1
"699",0,0,583,19,25,1,"146f49f",68,1
"709",1,0,1223,25,9,1,"146f49f",69,1
"7113",1,1,633,9,2,1,"146f49f",70,1
"7211",1,1,852,2,6,1,"146f49f",71,1
"739",1,1,620,6,3,1,"146f49f",72,1
"749",1,0,727,3,31,1,"146f49f",73,1
"759",1,0,584,31,16,1,"146f49f",74,1
"769",1,0,644,16,28,1,"146f49f",75,1
"779",0,0,812,28,30,1,"146f49f",76,1
"789",1,0,757,30,4,1,"146f49f",77,1
"799",0,1,832,4,20,1,"146f49f",78,1
"809",1,0,760,20,2,1,"146f49f",79,1
"8113",1,1,842,2,13,1,"146f49f",80,1
"8211",0,1,652,13,25,1,"146f49f",81,1
"839",0,0,711,25,21,1,"146f49f",82,1
"849",1,0,943,21,3,1,"146f49f",83,1
"859",1,0,826,3,19,1,"146f49f",84,1
"869",1,1,868,19,33,1,"146f49f",85,1
"879",0,0,663,33,23,1,"146f49f",86,1
"889",0,1,688,23,18,1,"146f49f",87,1
"899",1,1,921,18,5,1,"146f49f",88,1
"909",1,0,830,5,22,1,"146f49f",89,1
"9113",0,0,278,22,26,1,"146f49f",90,1
"9211",1,0,440,26,6,1,"146f49f",91,1
"939",1,0,483,6,36,1,"146f49f",92,1
"949",0,1,653,36,12,1,"146f49f",93,1
"959",0,1,1381,12,29,1,"146f49f",94,1
"969",1,1,775,29,35,1,"146f49f",95,1
"979",1,0,665,35,7,1,"146f49f",96,1
"989",1,1,835,7,9,1,"146f49f",97,1
"999",1,1,874,9,8,1,"146f49f",98,1
"1009",0,0,741,8,15,1,"146f49f",99,1
"10113",1,1,735,15,10,1,"146f49f",100,1
"10211",1,1,561,10,14,1,"146f49f",101,1
"1039",1,0,536,14,27,1,"146f49f",102,1
"1049",1,1,1281,27,32,1,"146f49f",103,1
"1059",0,1,806,32,1,1,"146f49f",104,1
"1069",0,0,1112,1,11,1,"146f49f",105,1
"1079",0,0,778,11,17,1,"146f49f",106,1
"1089",1,0,611,17,34,1,"146f49f",107,1
"1099",1,1,791,34,24,1,"146f49f",108,1
"1109",1,1,952,24,19,1,"146f49f",109,1
"11113",1,0,670,19,17,1,"146f49f",110,1
"11211",0,1,777,17,21,1,"146f49f",111,1
"1139",1,0,621,21,12,1,"146f49f",112,1
"1149",0,1,525,12,34,1,"146f49f",113,1
"1159",0,1,742,34,2,1,"146f49f",114,1
"1169",0,1,826,2,25,1,"146f49f",115,1
"1179",0,1,1043,25,13,1,"146f49f",116,1
"1189",1,1,1093,13,6,1,"146f49f",117,1
"1199",1,0,792,6,27,1,"146f49f",118,1
"1209",1,0,601,27,1,1,"146f49f",119,1
"12113",0,0,1138,1,3,1,"146f49f",120,1
"12211",0,1,901,3,23,1,"146f49f",121,1
"1239",0,0,1271,23,28,1,"146f49f",122,1
"1249",0,1,815,28,5,1,"146f49f",123,1
"1259",0,0,738,5,15,1,"146f49f",124,1
"1269",0,1,684,15,29,1,"146f49f",125,1
"1279",1,1,879,29,36,1,"146f49f",126,1
"1289",1,1,1136,36,26,1,"146f49f",127,1
"1299",0,1,835,26,11,1,"146f49f",128,1
"1309",1,0,1197,11,22,1,"146f49f",129,1
"13113",0,1,710,22,18,1,"146f49f",130,1
"13211",1,0,831,18,31,1,"146f49f",131,1
"1339",0,0,649,31,32,1,"146f49f",132,1
"1349",1,0,806,32,7,1,"146f49f",133,1
"1359",0,1,887,7,20,1,"146f49f",134,1
"1369",1,0,873,20,4,1,"146f49f",135,1
"1379",1,1,779,4,14,1,"146f49f",136,1
"1389",1,1,983,14,16,1,"146f49f",137,1
"1399",1,0,632,16,35,1,"146f49f",138,1
"1409",1,0,682,35,10,1,"146f49f",139,1
"14113",0,1,980,10,33,1,"146f49f",140,1
"14211",0,1,1126,33,8,1,"146f49f",141,1
"1439",1,0,1135,8,24,1,"146f49f",142,1
"1449",0,0,1161,24,30,1,"146f49f",143,1
"1459",1,0,794,30,9,1,"146f49f",144,1
"1469",1,0,427,9,24,1,"146f49f",145,1
"1479",1,1,669,24,29,1,"146f49f",146,1
"1489",0,0,734,29,25,1,"146f49f",147,1
"1499",1,0,785,25,16,1,"146f49f",148,1
"1509",0,0,363,16,14,1,"146f49f",149,1
"15113",1,1,540,14,9,1,"146f49f",150,1
"15211",0,0,1063,9,11,1,"146f49f",151,1
"1539",1,0,456,11,21,1,"146f49f",152,1
"1549",0,1,466,21,5,1,"146f49f",153,1
"1559",0,1,1092,5,20,1,"146f49f",154,1
"1569",0,0,1031,20,28,1,"146f49f",155,1
"1579",0,0,736,28,30,1,"146f49f",156,1
"1589",0,1,818,30,18,1,"146f49f",157,1
"1599",0,0,892,18,7,1,"146f49f",158,1
"1609",1,1,607,7,4,1,"146f49f",159,1
"16113",1,1,600,4,13,1,"146f49f",160,1
"16211",1,1,825,13,10,1,"146f49f",161,1
"1639",1,0,748,10,35,1,"146f49f",162,1
"1649",0,0,550,35,27,1,"146f49f",163,1
"1659",0,0,641,27,23,1,"146f49f",164,1
"1669",0,0,1004,23,19,1,"146f49f",165,1
"1679",0,1,1013,19,1,1,"146f49f",166,1
"1689",1,1,755,1,3,1,"146f49f",167,1
"1699",1,1,1119,3,8,1,"146f49f",168,1
"1709",0,0,625,8,2,1,"146f49f",169,1
"17113",1,0,858,2,31,1,"146f49f",170,1
"17211",0,1,572,31,17,1,"146f49f",171,1
"1739",1,0,623,17,36,1,"146f49f",172,1
"1749",1,1,912,36,26,1,"146f49f",173,1
"1759",1,0,808,26,15,1,"146f49f",174,1
"1769",1,0,707,15,33,1,"146f49f",175,1
"1779",1,0,861,33,6,1,"146f49f",176,1
"1789",0,0,741,6,12,1,"146f49f",177,1
"1799",1,0,760,12,32,1,"146f49f",178,1
"1809",1,1,937,32,34,1,"146f49f",179,1
"18113",0,0,819,34,22,1,"146f49f",180,1
"18211",0,0,755,22,23,1,"146f49f",181,1
"1839",0,1,1076,23,16,1,"146f49f",182,1
"1849",0,0,735,16,11,1,"146f49f",183,1
"1859",1,0,610,11,36,1,"146f49f",184,1
"1869",1,1,602,36,31,1,"146f49f",185,1
"1879",1,0,965,31,8,1,"146f49f",186,1
"1889",1,1,815,8,2,1,"146f49f",187,1
"1899",1,0,816,2,22,1,"146f49f",188,1
"1909",1,0,570,22,13,1,"146f49f",189,1
"19113",1,0,403,13,28,1,"146f49f",190,1
"19211",0,1,839,28,7,1,"146f49f",191,1
"1939",1,1,1048,7,14,1,"146f49f",192,1
"1949",0,0,864,14,12,1,"146f49f",193,1
"1959",1,0,947,12,21,1,"146f49f",194,1
"1969",1,1,605,21,25,1,"146f49f",195,1
"1979",1,1,671,25,27,1,"146f49f",196,1
"1989",1,0,1458,27,1,1,"146f49f",197,1
"1999",1,0,1435,1,20,1,"146f49f",198,1
"2009",1,0,1757,20,3,1,"146f49f",199,1
"20113",1,0,1093,3,26,1,"146f49f",200,1
"20211",0,0,1242,26,30,1,"146f49f",201,1
"2039",1,1,786,30,34,1,"146f49f",202,1
"2049",1,1,661,34,19,1,"146f49f",203,1
"2059",1,1,718,19,24,1,"146f49f",204,1
"2069",1,1,722,24,35,1,"146f49f",205,1
"2079",1,0,642,35,6,1,"146f49f",206,1
"2089",1,0,649,6,33,1,"146f49f",207,1
"2099",0,1,971,33,5,1,"146f49f",208,1
"2109",1,1,1594,5,10,1,"146f49f",209,1
"21113",1,1,533,10,4,1,"146f49f",210,1
"21211",1,1,494,4,9,1,"146f49f",211,1
"2139",1,0,434,9,29,1,"146f49f",212,1
"2149",1,0,707,29,15,1,"146f49f",213,1
"2159",1,1,573,15,17,1,"146f49f",214,1
"2169",1,0,689,17,32,1,"146f49f",215,1
"2179",0,1,649,32,18,1,"146f49f",216,1
"2189",0,1,739,18,24,1,"146f49f",217,1
"2199",0,1,732,24,14,1,"146f49f",218,1
"2209",1,0,528,14,29,1,"146f49f",219,1
"22113",1,1,472,29,32,1,"146f49f",220,1
"22211",1,0,618,32,16,1,"146f49f",221,1
"2239",0,1,756,16,23,1,"146f49f",222,1
"2249",0,1,1227,23,11,1,"146f49f",223,1
"2259",1,0,941,11,25,1,"146f49f",224,1
"2269",0,0,1007,25,27,1,"146f49f",225,1
"2279",1,0,528,27,1,1,"146f49f",226,1
"2289",1,0,769,1,31,1,"146f49f",227,1
"2299",1,1,659,31,20,1,"146f49f",228,1
"2309",0,0,1022,20,28,1,"146f49f",229,1
"23113",0,0,1583,28,33,1,"146f49f",230,1
"23211",0,0,751,33,30,1,"146f49f",231,1
"2339",0,0,897,30,35,1,"146f49f",232,1
"2349",1,1,388,35,26,1,"146f49f",233,1
"2359",1,0,517,26,9,1,"146f49f",234,1
"2369",0,1,799,9,21,1,"146f49f",235,1
"2379",0,1,489,21,2,1,"146f49f",236,1
"2389",0,0,521,2,13,1,"146f49f",237,1
"2399",0,0,668,13,12,1,"146f49f",238,1
"2409",1,0,1045,12,22,1,"146f49f",239,1
"24113",0,0,591,22,36,1,"146f49f",240,1
"24211",1,0,872,36,17,1,"146f49f",241,1
"2439",1,1,521,17,10,1,"146f49f",242,1
"2449",0,0,876,10,18,1,"146f49f",243,1
"2459",0,0,1739,18,8,1,"146f49f",244,1
"2469",1,1,653,8,3,1,"146f49f",245,1
"2479",1,1,518,3,6,1,"146f49f",246,1
"2489",1,0,750,6,34,1,"146f49f",247,1
"2499",1,0,654,34,7,1,"146f49f",248,1
"2509",1,1,761,7,4,1,"146f49f",249,1
"25112",1,1,876,4,15,1,"146f49f",250,1
"25210",1,0,675,15,19,1,"146f49f",251,1
"2539",0,1,790,19,5,1,"146f49f",252,1
"280",0,0,1173,0,2,1,"170e50f",1,1
"340",0,1,2097,2,35,1,"170e50f",2,1
"440",0,1,450,35,13,1,"170e50f",3,1
"540",1,0,809,13,29,1,"170e50f",4,1
"640",0,0,188,29,36,1,"170e50f",5,1
"740",1,0,132,36,12,1,"170e50f",6,1
"840",1,1,439,12,11,1,"170e50f",7,1
"940",1,1,840,11,17,1,"170e50f",8,1
"1040",1,0,496,17,28,1,"170e50f",9,1
"1140",0,1,491,28,1,1,"170e50f",10,1
"1240",1,1,690,1,4,1,"170e50f",11,1
"1340",1,1,908,4,16,1,"170e50f",12,1
"1440",0,1,624,16,30,1,"170e50f",13,1
"1540",1,1,307,30,23,1,"170e50f",14,1
"1640",1,1,352,23,24,1,"170e50f",15,1
"1740",1,1,389,24,25,1,"170e50f",16,1
"1840",1,1,110,25,27,1,"170e50f",17,1
"1940",0,0,40,27,32,1,"170e50f",18,1
"2040",1,0,136,32,3,1,"170e50f",19,1
"2140",0,0,58,3,10,1,"170e50f",20,1
"2240",1,0,50,10,34,1,"170e50f",21,1
"2340",0,0,15,34,33,1,"170e50f",22,1
"2440",1,0,292,33,9,1,"170e50f",23,1
"2530",1,1,245,9,8,1,"170e50f",24,1
"2613",1,1,341,8,5,1,"170e50f",25,1
"2711",0,1,249,5,20,1,"170e50f",26,1
"2810",1,1,129,20,19,1,"170e50f",27,1
"2910",1,0,89,19,14,1,"170e50f",28,1
"3010",0,0,750,14,6,1,"170e50f",29,1
"3114",0,0,161,6,7,1,"170e50f",30,1
"3212",1,0,302,7,22,1,"170e50f",31,1
"3310",1,1,854,22,21,1,"170e50f",32,1
"3410",1,1,893,21,26,1,"170e50f",33,1
"3510",1,1,414,26,31,1,"170e50f",34,1
"3610",1,0,292,31,18,1,"170e50f",35,1
"3710",0,0,333,18,15,1,"170e50f",36,1
"3810",1,1,65,15,2,1,"170e50f",37,1
"3910",1,0,66,2,35,1,"170e50f",38,1
"4010",0,1,270,35,13,1,"170e50f",39,1
"4114",1,0,68,13,29,1,"170e50f",40,1
"4212",0,0,279,29,36,1,"170e50f",41,1
"4310",1,0,122,36,12,1,"170e50f",42,1
"4410",0,0,21,12,11,1,"170e50f",43,1
"4510",1,1,26,11,17,1,"170e50f",44,1
"4610",1,0,139,17,28,1,"170e50f",45,1
"4710",0,1,420,28,1,1,"170e50f",46,1
"4810",1,1,253,1,4,1,"170e50f",47,1
"4910",1,1,86,4,16,1,"170e50f",48,1
"5010",1,0,279,16,30,1,"170e50f",49,1
"5114",0,0,87,30,23,1,"170e50f",50,1
"5212",1,1,405,23,24,1,"170e50f",51,1
"5310",0,0,440,24,25,1,"170e50f",52,1
"5410",1,1,253,25,27,1,"170e50f",53,1
"5510",1,1,931,27,32,1,"170e50f",54,1
"5610",0,1,682,32,3,1,"170e50f",55,1
"5710",1,1,65,3,10,1,"170e50f",56,1
"5810",1,0,236,10,34,1,"170e50f",57,1
"5910",1,1,13,34,33,1,"170e50f",58,1
"6010",1,0,383,33,9,1,"170e50f",59,1
"6114",0,0,247,9,8,1,"170e50f",60,1
"6212",1,1,290,8,5,1,"170e50f",61,1
"6310",1,0,290,5,20,1,"170e50f",62,1
"6410",0,0,292,20,19,1,"170e50f",63,1
"6510",0,1,262,19,14,1,"170e50f",64,1
"6610",1,1,248,14,6,1,"170e50f",65,1
"6710",1,1,156,6,7,1,"170e50f",66,1
"6810",0,1,161,7,22,1,"170e50f",67,1
"6910",1,1,1353,22,21,1,"170e50f",68,1
"7010",1,1,829,21,26,1,"170e50f",69,1
"7114",0,0,553,26,31,1,"170e50f",70,1
"7212",1,0,726,31,18,1,"170e50f",71,1
"7310",0,0,228,18,15,1,"170e50f",72,1
"7410",1,1,245,15,5,1,"170e50f",73,1
"7510",1,0,1059,5,23,1,"170e50f",74,1
"7610",0,1,624,23,9,1,"170e50f",75,1
"7710",0,1,111,9,30,1,"170e50f",76,1
"7810",0,0,292,30,28,1,"170e50f",77,1
"7910",1,1,241,28,24,1,"170e50f",78,1
"8010",1,1,239,24,21,1,"170e50f",79,1
"8114",1,1,343,21,20,1,"170e50f",80,1
"8212",1,0,255,20,11,1,"170e50f",81,1
"8310",0,0,232,11,17,1,"170e50f",82,1
"8410",0,1,289,17,33,1,"170e50f",83,1
"8510",1,0,574,33,7,1,"170e50f",84,1
"8610",0,1,367,7,32,1,"170e50f",85,1
"8710",0,1,223,32,2,1,"170e50f",86,1
"8810",1,1,235,2,10,1,"170e50f",87,1
"8910",1,1,217,10,3,1,"170e50f",88,1
"9010",1,1,332,3,6,1,"170e50f",89,1
"9114",0,0,114,6,15,1,"170e50f",90,1
"9212",1,1,311,15,18,1,"170e50f",91,1
"9310",1,0,429,18,19,1,"170e50f",92,1
"9410",0,0,242,19,27,1,"170e50f",93,1
"9510",1,1,247,27,25,1,"170e50f",94,1
"9610",1,1,243,25,34,1,"170e50f",95,1
"9710",0,0,336,34,26,1,"170e50f",96,1
"9810",1,0,54,26,1,1,"170e50f",97,1
"9910",1,1,306,1,16,1,"170e50f",98,1
"10010",0,0,242,16,14,1,"170e50f",99,1
"10114",1,1,228,14,13,1,"170e50f",100,1
"10212",1,1,97,13,4,1,"170e50f",101,1
"10310",1,0,251,4,29,1,"170e50f",102,1
"10410",0,0,372,29,35,1,"170e50f",103,1
"10510",1,1,318,35,22,1,"170e50f",104,1
"10610",1,1,51,22,36,1,"170e50f",105,1
"10710",1,1,537,36,31,1,"170e50f",106,1
"10810",0,1,1821,31,12,1,"170e50f",107,1
"10910",0,0,803,12,8,1,"170e50f",108,1
"11010",1,0,103,8,20,1,"170e50f",109,1
"11114",0,1,412,20,8,1,"170e50f",110,1
"11212",0,0,376,8,11,1,"170e50f",111,1
"11310",0,0,1486,11,18,1,"170e50f",112,1
"11410",1,1,537,18,14,1,"170e50f",113,1
"11510",1,1,244,14,1,1,"170e50f",114,1
