"","keys","accuracy","rt","Fimg","Simg","feature_index","subID","trialNum","run"
"2",-1,-1,0,0,17,1,"3398109",1,1
"3",1,1,636,17,17,1,"3398109",2,1
"4",0,1,808,17,11,1,"3398109",3,1
"5",1,1,700,11,11,1,"3398109",4,1
"6",0,1,585,11,10,1,"3398109",5,1
"7",1,1,584,10,10,1,"3398109",6,1
"8",0,1,1015,10,9,1,"3398109",7,1
"9",0,1,880,9,8,1,"3398109",8,1
"10",0,1,537,8,3,1,"3398109",9,1
"11",1,1,1009,3,3,1,"3398109",10,1
"12",0,1,592,3,13,1,"3398109",11,1
"13",1,1,645,13,13,1,"3398109",12,1
"14",0,1,668,13,6,1,"3398109",13,1
"15",0,1,958,6,15,1,"3398109",14,1
"16",0,1,838,15,18,1,"3398109",15,1
"17",0,1,824,18,14,1,"3398109",16,1
"18",0,1,1232,14,12,1,"3398109",17,1
"19",0,1,1127,12,5,1,"3398109",18,1
"20",0,1,851,5,4,1,"3398109",19,1
"21",1,0,783,4,7,1,"3398109",20,1
"22",1,1,1842,7,7,1,"3398109",21,1
"23",0,1,1566,7,16,1,"3398109",22,1
"24",0,1,863,16,2,1,"3398109",23,1
"25",1,1,773,2,2,1,"3398109",24,1
"26",0,1,1339,2,1,1,"3398109",25,1
"27",0,1,1255,1,10,1,"3398109",26,1
"28",0,1,1001,10,6,1,"3398109",27,1
"29",1,1,672,6,6,1,"3398109",28,1
"30",0,1,1506,6,3,1,"3398109",29,1
"31",1,1,1227,3,3,1,"3398109",30,1
"32",0,1,866,3,9,1,"3398109",31,1
"33",1,1,2154,9,9,1,"3398109",32,1
"34",0,1,971,9,8,1,"3398109",33,1
"35",1,1,940,8,8,1,"3398109",34,1
"36",0,1,881,8,13,1,"3398109",35,1
"37",1,1,732,13,13,1,"3398109",36,1
"38",0,1,714,13,2,1,"3398109",37,1
"39",0,1,780,2,4,1,"3398109",38,1
"40",0,1,1045,4,18,1,"3398109",39,1
"41",1,1,701,18,18,1,"3398109",40,1
"42",0,1,741,18,17,1,"3398109",41,1
"43",0,1,785,17,7,1,"3398109",42,1
"44",1,1,847,7,7,1,"3398109",43,1
"45",0,1,1304,7,1,1,"3398109",44,1
"46",1,1,973,1,1,1,"3398109",45,1
"47",0,1,767,1,5,1,"3398109",46,1
"48",0,1,1194,5,12,1,"3398109",47,1
"49",1,1,829,12,12,1,"3398109",48,1
"50",0,1,530,12,14,1,"3398109",49,1
"51",0,1,1115,14,15,1,"3398109",50,1
"52",0,1,881,15,16,1,"3398109",51,1
"53",1,1,764,16,16,1,"3398109",52,1
"54",0,1,599,16,11,1,"3398109",53,1
"55",1,1,1012,11,11,1,"3398109",54,1
"56",0,1,570,11,10,1,"3398109",55,1
"57",0,1,856,10,18,1,"3398109",56,1
"58",0,1,566,18,1,1,"3398109",57,1
"59",0,1,583,1,14,1,"3398109",58,1
"60",0,1,1396,14,9,1,"3398109",59,1
"61",1,1,1284,9,9,1,"3398109",60,1
"62",0,1,621,9,16,1,"3398109",61,1
"63",0,1,625,16,2,1,"3398109",62,1
"64",0,1,945,2,15,1,"3398109",63,1
"65",1,1,1315,15,15,1,"3398109",64,1
"66",0,1,619,15,4,1,"3398109",65,1
"67",1,1,666,4,4,1,"3398109",66,1
"68",0,1,749,4,11,1,"3398109",67,1
"69",1,1,685,11,11,1,"3398109",68,1
"70",0,1,769,11,6,1,"3398109",69,1
"71",0,1,645,6,8,1,"3398109",70,1
"72",0,1,655,8,5,1,"3398109",71,1
"73",0,1,1323,5,12,1,"3398109",72,1
"74",0,1,705,12,3,1,"3398109",73,1
"75",0,1,1151,3,13,1,"3398109",74,1
"76",0,1,1652,13,7,1,"3398109",75,1
"77",1,1,1335,7,7,1,"3398109",76,1
"78",0,1,925,7,17,1,"3398109",77,1
"79",0,1,1819,17,6,1,"3398109",78,1
"80",1,1,958,6,6,1,"3398109",79,1
"81",0,1,955,6,10,1,"3398109",80,1
"82",1,1,819,10,10,1,"3398109",81,1
"83",0,1,613,10,2,1,"3398109",82,1
"84",1,1,698,2,2,1,"3398109",83,1
"85",0,1,696,2,13,1,"3398109",84,1
"86",1,1,1179,13,13,1,"3398109",85,1
"87",0,1,1537,13,18,1,"3398109",86,1
"88",1,1,1001,18,18,1,"3398109",87,1
"89",0,1,820,18,12,1,"3398109",88,1
"90",0,1,844,12,15,1,"3398109",89,1
"91",1,1,654,15,15,1,"3398109",90,1
"92",0,1,602,15,16,1,"3398109",91,1
"93",0,1,812,16,8,1,"3398109",92,1
"94",1,1,1202,8,8,1,"3398109",93,1
"95",0,1,477,8,7,1,"3398109",94,1
"96",0,1,1191,7,9,1,"3398109",95,1
"97",0,1,1593,9,1,1,"3398109",96,1
"98",1,1,1150,1,1,1,"3398109",97,1
"99",0,1,590,1,3,1,"3398109",98,1
"100",1,1,957,3,3,1,"3398109",99,1
"101",0,1,1370,3,14,1,"3398109",100,1
"102",0,1,737,14,11,1,"3398109",101,1
"103",1,1,919,11,11,1,"3398109",102,1
"104",0,1,582,11,4,1,"3398109",103,1
"105",0,1,588,4,5,1,"3398109",104,1
"106",0,1,519,5,17,1,"3398109",105,1
"107",1,1,750,17,17,1,"3398109",106,1
"108",0,1,497,17,11,1,"3398109",107,1
"109",1,1,656,11,11,1,"3398109",108,1
"110",0,1,887,11,8,1,"3398109",109,1
"111",1,1,667,8,8,1,"3398109",110,1
"112",0,1,672,8,1,1,"3398109",111,1
"113",1,1,1655,1,1,1,"3398109",112,1
"114",0,1,1037,1,4,1,"3398109",113,1
"115",0,1,695,4,10,1,"3398109",114,1
"116",0,1,840,10,3,1,"3398109",115,1
"117",1,1,1228,3,3,1,"3398109",116,1
"118",0,1,850,3,16,1,"3398109",117,1
"119",1,1,1156,16,16,1,"3398109",118,1
"120",0,1,638,16,13,1,"3398109",119,1
"121",1,1,1420,13,13,1,"3398109",120,1
"122",0,1,453,13,5,1,"3398109",121,1
"123",1,1,679,5,5,1,"3398109",122,1
"124",0,1,473,5,15,1,"3398109",123,1
"125",1,1,923,15,15,1,"3398109",124,1
"126",0,1,1612,15,7,1,"3398109",125,1
"127",1,1,1073,7,7,1,"3398109",126,1
"128",0,1,659,7,9,1,"3398109",127,1
"129",0,1,1623,9,2,1,"3398109",128,1
"130",1,1,1736,2,2,1,"3398109",129,1
"131",0,1,1117,2,18,1,"3398109",130,1
"132",1,1,1780,18,18,1,"3398109",131,1
"133",0,1,717,18,14,1,"3398109",132,1
"134",0,1,911,14,6,1,"3398109",133,1
"135",0,1,830,6,12,1,"3398109",134,1
"136",1,1,780,12,12,1,"3398109",135,1
"137",0,1,946,12,17,1,"3398109",136,1
"138",1,1,1867,17,17,1,"3398109",137,1
"139",0,1,2119,17,9,1,"3398109",138,1
"140",0,1,1185,9,1,1,"3398109",139,1
"141",1,1,1256,1,1,1,"3398109",140,1
"142",0,1,894,1,4,1,"3398109",141,1
"143",0,1,1338,4,10,1,"3398109",142,1
"144",0,1,1421,10,3,1,"3398109",143,1
"145",1,1,1345,3,3,1,"3398109",144,1
"146",0,1,2201,3,17,1,"3398109",145,1
"147",0,1,1228,17,15,1,"3398109",146,1
"148",1,1,1060,15,15,1,"3398109",147,1
"149",0,1,2354,15,13,1,"3398109",148,1
"150",0,1,1403,13,16,1,"3398109",149,1
"151",0,1,1085,16,5,1,"3398109",150,1
"152",-1,-1,0,5,5,1,"3398109",151,1
"153",0,1,1402,5,18,1,"3398109",152,1
"154",0,1,586,18,6,1,"3398109",153,1
"155",1,1,628,6,6,1,"3398109",154,1
"156",0,1,504,6,2,1,"3398109",155,1
"157",1,1,1022,2,2,1,"3398109",156,1
"158",0,1,449,2,14,1,"3398109",157,1
"159",0,1,1013,14,11,1,"3398109",158,1
"160",0,1,599,11,7,1,"3398109",159,1
"161",1,1,940,7,7,1,"3398109",160,1
"162",0,1,556,7,12,1,"3398109",161,1
"163",0,1,1612,12,8,1,"3398109",162,1
"164",0,1,587,8,15,1,"3398109",163,1
"165",0,1,641,15,16,1,"3398109",164,1
"166",0,1,725,16,5,1,"3398109",165,1
"167",0,1,1928,5,11,1,"3398109",166,1
"168",0,1,894,11,6,1,"3398109",167,1
"169",0,1,748,6,2,1,"3398109",168,1
"170",1,1,822,2,2,1,"3398109",169,1
"171",0,1,516,2,14,1,"3398109",170,1
"172",1,1,1477,14,14,1,"3398109",171,1
"173",0,1,679,14,4,1,"3398109",172,1
"174",0,1,1545,4,1,1,"3398109",173,1
"175",0,1,1101,1,12,1,"3398109",174,1
"176",1,1,1204,12,12,1,"3398109",175,1
"177",0,1,711,12,18,1,"3398109",176,1
"178",1,1,804,18,18,1,"3398109",177,1
"179",0,1,919,18,10,1,"3398109",178,1
"180",0,1,1037,10,3,1,"3398109",179,1
"181",1,1,994,3,3,1,"3398109",180,1
"182",0,1,644,3,8,1,"3398109",181,1
"183",0,1,780,8,9,1,"3398109",182,1
"184",1,1,1881,9,9,1,"3398109",183,1
"185",0,1,1840,9,7,1,"3398109",184,1
"186",0,1,787,7,17,1,"3398109",185,1
"187",1,1,1390,17,17,1,"3398109",186,1
"188",0,1,693,17,13,1,"3398109",187,1
"189",1,1,1277,13,13,1,"3398109",188,1
"190",0,1,770,13,15,1,"3398109",189,1
"191",1,1,1753,15,15,1,"3398109",190,1
"192",0,1,618,15,16,1,"3398109",191,1
"193",0,1,691,16,8,1,"3398109",192,1
"194",1,1,1196,8,8,1,"3398109",193,1
"195",0,1,677,8,1,1,"3398109",194,1
"196",0,1,776,1,9,1,"3398109",195,1
"197",0,1,675,9,17,1,"3398109",196,1
"198",0,1,694,17,11,1,"3398109",197,1
"199",0,1,572,11,10,1,"3398109",198,1
"200",1,1,1241,10,10,1,"3398109",199,1
"201",0,1,1033,10,13,1,"3398109",200,1
"202",0,1,760,13,5,1,"3398109",201,1
"203",0,1,1338,5,12,1,"3398109",202,1
"204",1,1,869,12,12,1,"3398109",203,1
"205",0,1,584,12,4,1,"3398109",204,1
"206",0,1,786,4,6,1,"3398109",205,1
"207",0,1,712,6,2,1,"3398109",206,1
"208",0,1,559,2,7,1,"3398109",207,1
"209",0,1,603,7,18,1,"3398109",208,1
"210",0,1,522,18,14,1,"3398109",209,1
"211",0,1,556,14,3,1,"3398109",210,1
"212",0,1,684,3,9,1,"3398109",211,1
"213",0,1,578,9,6,1,"3398109",212,1
"214",0,1,1618,6,16,1,"3398109",213,1
"215",1,1,961,16,16,1,"3398109",214,1
"216",0,1,588,16,11,1,"3398109",215,1
"217",0,1,769,11,3,1,"3398109",216,1
"218",1,1,969,3,3,1,"3398109",217,1
"219",0,1,517,3,5,1,"3398109",218,1
"220",0,1,755,5,8,1,"3398109",219,1
"221",0,1,751,8,12,1,"3398109",220,1
"222",1,1,1159,12,12,1,"3398109",221,1
"223",0,1,654,12,4,1,"3398109",222,1
"224",1,1,570,4,4,1,"3398109",223,1
"225",0,1,920,4,7,1,"3398109",224,1
"226",0,1,688,7,1,1,"3398109",225,1
"227",0,1,873,1,15,1,"3398109",226,1
"228",1,1,1242,15,15,1,"3398109",227,1
"229",0,1,1290,15,13,1,"3398109",228,1
"230",0,1,748,13,2,1,"3398109",229,1
"231",0,1,650,2,17,1,"3398109",230,1
"232",0,1,1303,17,14,1,"3398109",231,1
"233",1,1,998,14,14,1,"3398109",232,1
"234",0,1,594,14,10,1,"3398109",233,1
"235",1,1,853,10,10,1,"3398109",234,1
"236",0,1,624,10,18,1,"3398109",235,1
"237",0,1,505,18,14,1,"3398109",236,1
"238",1,1,816,14,14,1,"3398109",237,1
"239",0,1,498,14,5,1,"3398109",238,1
"240",1,1,661,5,5,1,"3398109",239,1
"241",0,1,532,5,7,1,"3398109",240,1
"242",0,1,394,7,11,1,"3398109",241,1
"243",1,1,592,11,11,1,"3398109",242,1
"244",0,1,1317,11,2,1,"3398109",243,1
"245",0,1,538,2,16,1,"3398109",244,1
"246",0,1,843,16,9,1,"3398109",245,1
"247",1,1,882,9,9,1,"3398109",246,1
"248",0,1,609,9,18,1,"3398109",247,1
"249",1,1,834,18,18,1,"3398109",248,1
"250",0,1,533,18,10,1,"3398109",249,1
"251",1,1,1695,10,10,1,"3398109",250,1
"252",0,1,801,10,13,1,"3398109",251,1
"253",1,1,1386,13,13,1,"3398109",252,1
"254",0,1,918,13,3,1,"3398109",253,1
"255",0,1,608,3,4,1,"3398109",254,1
"256",1,1,585,4,4,1,"3398109",255,1
"257",0,1,779,4,1,1,"3398109",256,1
"258",0,1,578,1,17,1,"3398109",257,1
"259",0,1,427,17,8,1,"3398109",258,1
"260",1,1,933,8,8,1,"3398109",259,1
"261",0,1,436,8,15,1,"3398109",260,1
"262",0,1,629,15,12,1,"3398109",261,1
"263",1,1,1276,12,12,1,"3398109",262,1
"264",0,1,774,12,6,1,"3398109",263,1
"274",-1,-1,0,0,3,1,"1bead2c",1,1
"310",0,1,971,3,12,1,"1bead2c",2,1
"410",1,1,1186,12,12,1,"1bead2c",3,1
"510",1,0,853,12,9,1,"1bead2c",4,1
"610",1,0,1156,9,8,1,"1bead2c",5,1
"710",1,0,1353,8,11,1,"1bead2c",6,1
"810",0,1,933,11,7,1,"1bead2c",7,1
"910",1,0,836,7,6,1,"1bead2c",8,1
"1010",1,0,1339,6,16,1,"1bead2c",9,1
"1110",0,1,965,16,4,1,"1bead2c",10,1
"1210",0,1,1878,4,14,1,"1bead2c",11,1
"1310",1,0,1100,14,15,1,"1bead2c",12,1
"1410",0,1,2228,15,1,1,"1bead2c",13,1
"1510",0,0,1311,1,1,1,"1bead2c",14,1
"1610",1,0,845,1,13,1,"1bead2c",15,1
"1710",1,1,725,13,13,1,"1bead2c",16,1
"1810",0,1,672,13,18,1,"1bead2c",17,1
"1910",0,0,1170,18,18,1,"1bead2c",18,1
"2010",0,1,986,18,2,1,"1bead2c",19,1
"2110",0,1,852,2,5,1,"1bead2c",20,1
"2210",0,0,1213,5,5,1,"1bead2c",21,1
"2310",0,1,824,5,17,1,"1bead2c",22,1
"2410",0,0,1161,17,17,1,"1bead2c",23,1
"2510",1,0,1169,17,10,1,"1bead2c",24,1
"2610",0,1,1735,10,7,1,"1bead2c",25,1
"275",0,1,897,7,8,1,"1bead2c",26,1
"281",0,0,937,8,8,1,"1bead2c",27,1
"291",0,1,935,8,18,1,"1bead2c",28,1
"301",1,1,647,18,18,1,"1bead2c",29,1
"311",0,1,759,18,14,1,"1bead2c",30,1
"321",1,0,1232,14,4,1,"1bead2c",31,1
"331",1,1,930,4,4,1,"1bead2c",32,1
"341",0,1,631,4,11,1,"1bead2c",33,1
"351",1,1,1302,11,11,1,"1bead2c",34,1
"361",0,1,681,11,15,1,"1bead2c",35,1
"371",0,1,2405,15,2,1,"1bead2c",36,1
"381",0,0,2198,2,2,1,"1bead2c",37,1
"391",0,1,1332,2,5,1,"1bead2c",38,1
"401",1,1,2018,5,5,1,"1bead2c",39,1
"411",0,1,642,5,1,1,"1bead2c",40,1
"421",1,0,1133,1,9,1,"1bead2c",41,1
"431",0,1,1132,9,16,1,"1bead2c",42,1
"441",1,1,1201,16,16,1,"1bead2c",43,1
"451",0,1,1337,16,13,1,"1bead2c",44,1
"461",1,1,1538,13,13,1,"1bead2c",45,1
"471",0,1,808,13,12,1,"1bead2c",46,1
"481",0,1,729,12,17,1,"1bead2c",47,1
"491",0,0,1509,17,17,1,"1bead2c",48,1
"501",1,0,617,17,3,1,"1bead2c",49,1
"511",1,1,758,3,3,1,"1bead2c",50,1
"521",1,0,1272,3,6,1,"1bead2c",51,1
"531",0,1,703,6,10,1,"1bead2c",52,1
"541",0,1,881,10,5,1,"1bead2c",53,1
"551",1,0,1424,5,18,1,"1bead2c",54,1
"561",0,1,910,18,4,1,"1bead2c",55,1
"571",0,1,1087,4,7,1,"1bead2c",56,1
"581",0,1,1560,7,3,1,"1bead2c",57,1
"591",1,1,691,3,3,1,"1bead2c",58,1
"601",1,0,1588,3,14,1,"1bead2c",59,1
"611",1,1,1092,14,14,1,"1bead2c",60,1
"621",0,1,715,14,9,1,"1bead2c",61,1
"631",1,1,1172,9,9,1,"1bead2c",62,1
"641",0,1,632,9,15,1,"1bead2c",63,1
"651",0,1,1812,15,16,1,"1bead2c",64,1
"661",1,1,722,16,16,1,"1bead2c",65,1
"671",0,1,939,16,2,1,"1bead2c",66,1
"681",1,1,1120,2,2,1,"1bead2c",67,1
"691",0,1,550,2,10,1,"1bead2c",68,1
"701",1,0,866,10,13,1,"1bead2c",69,1
"711",0,1,813,13,11,1,"1bead2c",70,1
"721",0,1,1443,11,17,1,"1bead2c",71,1
"731",0,1,897,17,1,1,"1bead2c",72,1
"741",0,0,1499,1,1,1,"1bead2c",73,1
"751",0,1,1118,1,12,1,"1bead2c",74,1
"761",1,1,689,12,12,1,"1bead2c",75,1
"771",1,0,536,12,8,1,"1bead2c",76,1
"781",1,1,1078,8,8,1,"1bead2c",77,1
"791",0,1,521,8,6,1,"1bead2c",78,1
"801",1,0,800,6,16,1,"1bead2c",79,1
"811",1,1,597,16,16,1,"1bead2c",80,1
"821",0,1,557,16,9,1,"1bead2c",81,1
"831",1,0,1601,9,4,1,"1bead2c",82,1
"841",1,1,921,4,4,1,"1bead2c",83,1
"851",0,1,579,4,14,1,"1bead2c",84,1
"861",1,1,898,14,14,1,"1bead2c",85,1
"871",0,1,715,14,2,1,"1bead2c",86,1
"881",1,1,556,2,2,1,"1bead2c",87,1
"891",1,0,1454,2,11,1,"1bead2c",88,1
"901",0,1,442,11,13,1,"1bead2c",89,1
"911",1,1,1367,13,13,1,"1bead2c",90,1
"921",0,1,680,13,3,1,"1bead2c",91,1
"931",1,1,689,3,3,1,"1bead2c",92,1
"941",0,1,670,3,8,1,"1bead2c",93,1
"951",1,0,1416,8,7,1,"1bead2c",94,1
"961",0,1,606,7,1,1,"1bead2c",95,1
"971",1,1,1303,1,1,1,"1bead2c",96,1
"981",0,1,929,1,6,1,"1bead2c",97,1
"991",1,1,895,6,6,1,"1bead2c",98,1
"1001",0,1,501,6,5,1,"1bead2c",99,1
"1011",0,0,1354,5,5,1,"1bead2c",100,1
"1021",0,1,838,5,12,1,"1bead2c",101,1
"1031",1,1,674,12,12,1,"1bead2c",102,1
"1041",0,1,736,12,18,1,"1bead2c",103,1
"1051",0,1,928,18,10,1,"1bead2c",104,1
"1061",1,1,1399,10,10,1,"1bead2c",105,1
"1071",1,0,997,10,17,1,"1bead2c",106,1
"1081",0,1,1360,17,15,1,"1bead2c",107,1
"1091",1,1,717,15,15,1,"1bead2c",108,1
"1101",0,1,736,15,6,1,"1bead2c",109,1
"1111",1,0,741,6,4,1,"1bead2c",110,1
"1121",0,1,658,4,10,1,"1bead2c",111,1
"1131",1,0,688,10,17,1,"1bead2c",112,1
"1141",1,1,757,17,17,1,"1bead2c",113,1
"1151",0,1,1215,17,16,1,"1bead2c",114,1
"1161",1,1,731,16,16,1,"1bead2c",115,1
"1171",0,1,2096,16,2,1,"1bead2c",116,1
"1181",1,1,1998,2,2,1,"1bead2c",117,1
"1191",0,1,1159,2,15,1,"1bead2c",118,1
"1201",1,1,407,15,15,1,"1bead2c",119,1
"1211",0,1,507,15,8,1,"1bead2c",120,1
"1221",1,1,508,8,8,1,"1bead2c",121,1
"1231",0,1,557,8,14,1,"1bead2c",122,1
"1241",1,0,679,14,3,1,"1bead2c",123,1
"1251",1,1,1091,3,3,1,"1bead2c",124,1
"1261",0,1,555,3,1,1,"1bead2c",125,1
"1271",0,1,1271,1,13,1,"1bead2c",126,1
"1281",0,1,664,13,18,1,"1bead2c",127,1
"1291",1,1,495,18,18,1,"1bead2c",128,1
"1301",0,1,553,18,9,1,"1bead2c",129,1
"1311",1,1,1083,9,9,1,"1bead2c",130,1
"1321",0,1,577,9,12,1,"1bead2c",131,1
"1331",1,1,648,12,12,1,"1bead2c",132,1
"1341",0,1,787,12,5,1,"1bead2c",133,1
"1351",1,1,522,5,5,1,"1bead2c",134,1
"1361",0,1,930,5,11,1,"1bead2c",135,1
"1371",1,1,446,11,11,1,"1bead2c",136,1
"1381",0,1,506,11,7,1,"1bead2c",137,1
"1391",0,1,1823,7,4,1,"1bead2c",138,1
"1401",1,1,704,4,4,1,"1bead2c",139,1
"1411",0,1,516,4,6,1,"1bead2c",140,1
"1421",1,1,855,6,6,1,"1bead2c",141,1
"1431",0,1,553,6,18,1,"1bead2c",142,1
"1441",0,1,718,18,1,1,"1bead2c",143,1
"1451",0,1,883,1,3,1,"1bead2c",144,1
"1461",1,1,660,3,3,1,"1bead2c",145,1
"1471",0,1,649,3,5,1,"1bead2c",146,1
"1481",0,1,607,5,14,1,"1bead2c",147,1
"1491",1,1,855,14,14,1,"1bead2c",148,1
"1501",0,1,1018,14,11,1,"1bead2c",149,1
"1511",0,0,2459,11,11,1,"1bead2c",150,1
"1521",0,1,1055,11,13,1,"1bead2c",151,1
"1531",1,0,545,13,7,1,"1bead2c",152,1
"1541",0,1,838,7,9,1,"1bead2c",153,1
"1551",1,1,892,9,9,1,"1bead2c",154,1
"1561",0,1,640,9,8,1,"1bead2c",155,1
"1571",1,1,722,8,8,1,"1bead2c",156,1
"1581",0,1,625,8,15,1,"1bead2c",157,1
"1591",0,1,663,15,2,1,"1bead2c",158,1
"1601",0,1,773,2,10,1,"1bead2c",159,1
"1611",1,0,1050,10,17,1,"1bead2c",160,1
"1621",1,1,828,17,17,1,"1bead2c",161,1
"1631",0,1,687,17,16,1,"1bead2c",162,1
"1641",1,0,613,16,12,1,"1bead2c",163,1
"1651",0,1,519,12,3,1,"1bead2c",164,1
"1661",0,1,606,3,18,1,"1bead2c",165,1
"1671",0,1,849,18,15,1,"1bead2c",166,1
"1681",0,1,610,15,11,1,"1bead2c",167,1
"1691",1,1,968,11,11,1,"1bead2c",168,1
"1701",0,1,509,11,13,1,"1bead2c",169,1
"1711",0,1,1490,13,7,1,"1bead2c",170,1
"1721",1,1,715,7,7,1,"1bead2c",171,1
"1731",0,1,947,7,8,1,"1bead2c",172,1
"1741",1,0,752,8,9,1,"1bead2c",173,1
"1751",0,1,1045,9,6,1,"1bead2c",174,1
"1761",1,1,647,6,6,1,"1bead2c",175,1
"1771",0,1,1297,6,10,1,"1bead2c",176,1
"1781",0,1,1704,10,2,1,"1bead2c",177,1
"1791",1,1,500,2,2,1,"1bead2c",178,1
"1801",0,1,613,2,5,1,"1bead2c",179,1
"1811",1,1,823,5,5,1,"1bead2c",180,1
"1821",0,1,751,5,4,1,"1bead2c",181,1
"1831",0,1,866,4,12,1,"1bead2c",182,1
"1841",0,1,635,12,1,1,"1bead2c",183,1
"1851",0,1,609,1,14,1,"1bead2c",184,1
"1861",1,1,758,14,14,1,"1bead2c",185,1
"1871",0,1,588,14,16,1,"1bead2c",186,1
"1881",1,0,728,16,17,1,"1bead2c",187,1
"1891",1,1,615,17,17,1,"1bead2c",188,1
"1901",0,1,437,17,5,1,"1bead2c",189,1
"1911",1,1,886,5,5,1,"1bead2c",190,1
"1921",0,1,824,5,15,1,"1bead2c",191,1
"1931",1,1,802,15,15,1,"1bead2c",192,1
"1941",0,1,1002,15,7,1,"1bead2c",193,1
"1951",0,1,789,7,4,1,"1bead2c",194,1
"1961",1,1,788,4,4,1,"1bead2c",195,1
"1971",0,1,641,4,6,1,"1bead2c",196,1
"1981",0,1,870,6,14,1,"1bead2c",197,1
"1991",0,1,972,14,17,1,"1bead2c",198,1
"2001",1,0,530,17,3,1,"1bead2c",199,1
"2011",1,1,683,3,3,1,"1bead2c",200,1
"2021",0,1,657,3,18,1,"1bead2c",201,1
"2031",0,1,567,18,9,1,"1bead2c",202,1
"2041",1,1,755,9,9,1,"1bead2c",203,1
"2051",0,1,877,9,2,1,"1bead2c",204,1
"2061",1,1,845,2,2,1,"1bead2c",205,1
"2071",1,0,988,2,8,1,"1bead2c",206,1
"2081",1,1,757,8,8,1,"1bead2c",207,1
"2091",0,1,705,8,12,1,"1bead2c",208,1
"2101",0,1,710,12,10,1,"1bead2c",209,1
"2111",1,1,878,10,10,1,"1bead2c",210,1
"2121",0,1,1558,10,1,1,"1bead2c",211,1
"2131",0,1,1106,1,11,1,"1bead2c",212,1
"2141",0,1,1286,11,16,1,"1bead2c",213,1
"2151",1,1,1155,16,16,1,"1bead2c",214,1
"2161",0,1,1041,16,13,1,"1bead2c",215,1
"2171",0,1,1469,13,18,1,"1bead2c",216,1
"2181",0,1,1028,18,12,1,"1bead2c",217,1
"2191",1,1,2209,12,12,1,"1bead2c",218,1
"2201",0,1,678,12,16,1,"1bead2c",219,1
"2211",0,0,1154,16,16,1,"1bead2c",220,1
"2221",0,1,956,16,4,1,"1bead2c",221,1
"2231",0,1,519,4,8,1,"1bead2c",222,1
"2241",1,0,725,8,9,1,"1bead2c",223,1
"2251",1,1,1008,9,9,1,"1bead2c",224,1
"2261",0,1,641,9,17,1,"1bead2c",225,1
"2271",1,1,1085,17,17,1,"1bead2c",226,1
"2281",0,1,690,17,5,1,"1bead2c",227,1
"2291",1,0,1205,5,10,1,"1bead2c",228,1
"2301",1,1,729,10,10,1,"1bead2c",229,1
"2311",0,1,519,10,11,1,"1bead2c",230,1
"2321",1,1,1723,11,11,1,"1bead2c",231,1
"2331",0,1,647,11,3,1,"1bead2c",232,1
"2341",1,1,838,3,3,1,"1bead2c",233,1
"2351",0,1,533,3,2,1,"1bead2c",234,1
"2361",1,1,831,2,2,1,"1bead2c",235,1
"2371",0,1,800,2,1,1,"1bead2c",236,1
"2381",0,1,830,1,7,1,"1bead2c",237,1
"2391",1,0,433,7,14,1,"1bead2c",238,1
"2401",0,1,2180,14,15,1,"1bead2c",239,1
"2411",1,0,830,15,13,1,"1bead2c",240,1
"2421",0,1,615,13,6,1,"1bead2c",241,1
"2431",0,1,1552,6,16,1,"1bead2c",242,1
"2441",1,1,830,16,16,1,"1bead2c",243,1
"2451",1,0,1806,16,6,1,"1bead2c",244,1
"2461",1,1,696,6,6,1,"1bead2c",245,1
"2471",0,1,710,6,11,1,"1bead2c",246,1
"2481",1,1,1821,11,11,1,"1bead2c",247,1
"2491",0,1,538,11,7,1,"1bead2c",248,1
"2501",0,1,533,7,12,1,"1bead2c",249,1
"2511",0,1,490,12,10,1,"1bead2c",250,1
"2521",1,1,466,10,10,1,"1bead2c",251,1
"2531",0,1,710,10,17,1,"1bead2c",252,1
"2541",1,1,645,17,17,1,"1bead2c",253,1
"2551",0,1,656,17,8,1,"1bead2c",254,1
"2561",0,0,1089,8,8,1,"1bead2c",255,1
"2571",0,1,1457,8,1,1,"1bead2c",256,1
"2581",0,1,694,1,5,1,"1bead2c",257,1
"2591",1,1,765,5,5,1,"1bead2c",258,1
"2601",0,1,1133,5,3,1,"1bead2c",259,1
"2611",0,0,1189,3,3,1,"1bead2c",260,1
"2621",0,1,616,3,4,1,"1bead2c",261,1
"2631",-1,-1,0,4,4,1,"1bead2c",262,1
"2641",0,1,735,4,18,1,"1bead2c",263,1
"265",1,1,686,18,18,1,"1bead2c",264,1
"266",0,1,584,18,9,1,"1bead2c",265,1
"267",0,0,836,9,9,1,"1bead2c",266,1
"268",1,0,858,9,15,1,"1bead2c",267,1
"269",1,1,460,15,15,1,"1bead2c",268,1
"270",0,1,774,15,14,1,"1bead2c",269,1
"271",1,0,554,14,13,1,"1bead2c",270,1
"272",0,1,800,13,2,1,"1bead2c",271,1
"273",1,1,794,2,2,1,"1bead2c",272,1
"276",-1,-1,0,0,14,1,"16e3b90",1,1
"312",-1,-1,0,14,14,1,"16e3b90",2,1
"412",-1,-1,0,14,9,1,"16e3b90",3,1
"512",-1,0,397,9,3,1,"16e3b90",4,1
"612",-1,0,1090,3,6,1,"16e3b90",5,1
"712",-1,0,417,6,6,1,"16e3b90",6,1
"812",-1,NA,NA,NA,NA,NA,"16e3b90",7,1
"277",-1,-1,0,0,6,1,"9e5f933",1,1
"313",-1,-1,0,6,11,1,"9e5f933",2,1
"413",-1,-1,0,11,11,1,"9e5f933",3,1
"513",1,0,711,11,12,1,"9e5f933",4,1
"613",-1,-1,0,12,5,1,"9e5f933",5,1
"713",0,0,1118,5,5,1,"9e5f933",6,1
"813",-1,-1,0,5,9,1,"9e5f933",7,1
"912",0,1,1014,9,14,1,"9e5f933",8,1
"1012",-1,-1,0,14,14,1,"9e5f933",9,1
"1112",1,0,861,14,8,1,"9e5f933",10,1
"1212",-1,-1,0,8,1,1,"9e5f933",11,1
"1312",1,0,886,1,2,1,"9e5f933",12,1
"1412",-1,-1,0,2,10,1,"9e5f933",13,1
"1512",0,1,1094,10,7,1,"9e5f933",14,1
"1612",-1,-1,0,7,4,1,"9e5f933",15,1
"1712",0,0,989,4,4,1,"9e5f933",16,1
"1812",-1,-1,0,4,18,1,"9e5f933",17,1
"1912",0,0,1134,18,18,1,"9e5f933",18,1
"2012",-1,-1,0,18,15,1,"9e5f933",19,1
"2112",1,1,1151,15,15,1,"9e5f933",20,1
"2212",-1,-1,0,15,13,1,"9e5f933",21,1
"2312",1,1,971,13,13,1,"9e5f933",22,1
"2412",-1,-1,0,13,16,1,"9e5f933",23,1
"2512",1,0,804,16,3,1,"9e5f933",24,1
"2612",-1,-1,0,3,17,1,"9e5f933",25,1
"278",1,1,1241,17,17,1,"9e5f933",26,1
"282",-1,-1,0,17,16,1,"9e5f933",27,1
"292",1,0,972,16,17,1,"9e5f933",28,1
"302",-1,-1,0,17,17,1,"9e5f933",29,1
"314",0,1,1125,17,2,1,"9e5f933",30,1
"322",-1,-1,0,2,2,1,"9e5f933",31,1
"332",0,1,981,2,14,1,"9e5f933",32,1
"342",-1,-1,0,14,9,1,"9e5f933",33,1
"352",0,0,1294,9,9,1,"9e5f933",34,1
"362",-1,-1,0,9,18,1,"9e5f933",35,1
"372",0,1,826,18,15,1,"9e5f933",36,1
"382",-1,-1,0,15,1,1,"9e5f933",37,1
"392",1,0,1063,1,13,1,"9e5f933",38,1
"402",-1,-1,0,13,13,1,"9e5f933",39,1
"414",0,1,1238,13,8,1,"9e5f933",40,1
"422",-1,-1,0,8,8,1,"9e5f933",41,1
"432",0,1,1099,8,4,1,"9e5f933",42,1
"442",-1,-1,0,4,4,1,"9e5f933",43,1
"452",1,0,630,4,10,1,"9e5f933",44,1
"462",-1,-1,0,10,7,1,"9e5f933",45,1
"472",0,1,742,7,6,1,"9e5f933",46,1
"482",-1,-1,0,6,6,1,"9e5f933",47,1
"492",0,1,859,6,12,1,"9e5f933",48,1
"502",-1,-1,0,12,12,1,"9e5f933",49,1
"514",0,1,837,12,3,1,"9e5f933",50,1
"522",-1,-1,0,3,3,1,"9e5f933",51,1
"532",0,1,726,3,11,1,"9e5f933",52,1
"542",-1,-1,0,11,11,1,"9e5f933",53,1
"552",0,1,866,11,5,1,"9e5f933",54,1
"562",-1,-1,0,5,4,1,"9e5f933",55,1
"572",1,1,915,4,4,1,"9e5f933",56,1
"582",-1,-1,0,4,3,1,"9e5f933",57,1
"592",0,1,917,3,7,1,"9e5f933",58,1
"602",-1,-1,0,7,9,1,"9e5f933",59,1
"614",0,0,806,9,9,1,"9e5f933",60,1
"622",-1,-1,0,9,15,1,"9e5f933",61,1
"632",1,1,1074,15,15,1,"9e5f933",62,1
"642",-1,-1,0,15,6,1,"9e5f933",63,1
"652",0,1,900,6,1,1,"9e5f933",64,1
"662",-1,-1,0,1,2,1,"9e5f933",65,1
"672",1,0,1113,2,13,1,"9e5f933",66,1
"682",-1,-1,0,13,13,1,"9e5f933",67,1
"692",1,0,997,13,14,1,"9e5f933",68,1
"702",-1,-1,0,14,14,1,"9e5f933",69,1
"714",0,1,1081,14,16,1,"9e5f933",70,1
"722",-1,-1,0,16,16,1,"9e5f933",71,1
"732",0,1,867,16,5,1,"9e5f933",72,1
"742",-1,-1,0,5,5,1,"9e5f933",73,1
"752",0,1,757,5,10,1,"9e5f933",74,1
"762",-1,-1,0,10,10,1,"9e5f933",75,1
"772",0,1,774,10,8,1,"9e5f933",76,1
"782",-1,-1,0,8,8,1,"9e5f933",77,1
"792",1,0,953,8,18,1,"9e5f933",78,1
"802",-1,-1,0,18,17,1,"9e5f933",79,1
"814",0,1,737,17,11,1,"9e5f933",80,1
"822",-1,-1,0,11,11,1,"9e5f933",81,1
"832",0,1,497,11,12,1,"9e5f933",82,1
"842",-1,-1,0,12,12,1,"9e5f933",83,1
"852",0,1,710,12,15,1,"9e5f933",84,1
"862",-1,-1,0,15,9,1,"9e5f933",85,1
"872",0,1,760,9,17,1,"9e5f933",86,1
"882",-1,-1,0,17,17,1,"9e5f933",87,1
"892",0,1,802,17,8,1,"9e5f933",88,1
"902",-1,-1,0,8,2,1,"9e5f933",89,1
"913",1,1,850,2,2,1,"9e5f933",90,1
"922",-1,-1,0,2,11,1,"9e5f933",91,1
"932",0,1,610,11,10,1,"9e5f933",92,1
"942",-1,-1,0,10,10,1,"9e5f933",93,1
"952",0,1,621,10,12,1,"9e5f933",94,1
"962",-1,-1,0,12,12,1,"9e5f933",95,1
"972",1,0,646,12,5,1,"9e5f933",96,1
"982",-1,-1,0,5,5,1,"9e5f933",97,1
"992",0,1,465,5,16,1,"9e5f933",98,1
"1002",-1,-1,0,16,16,1,"9e5f933",99,1
"1013",1,0,610,16,6,1,"9e5f933",100,1
"1022",-1,-1,0,6,6,1,"9e5f933",101,1
"1032",0,1,880,6,1,1,"9e5f933",102,1
"1042",-1,-1,0,1,13,1,"9e5f933",103,1
"1052",1,1,1159,13,13,1,"9e5f933",104,1
"1062",-1,-1,0,13,14,1,"9e5f933",105,1
"1072",1,1,1007,14,14,1,"9e5f933",106,1
"1082",-1,-1,0,14,7,1,"9e5f933",107,1
"1092",1,0,863,7,4,1,"9e5f933",108,1
"1102",-1,-1,0,4,18,1,"9e5f933",109,1
"1113",1,1,973,18,18,1,"9e5f933",110,1
"1122",-1,-1,0,18,3,1,"9e5f933",111,1
"1132",1,0,759,3,7,1,"9e5f933",112,1
"1142",-1,-1,0,7,7,1,"9e5f933",113,1
"1152",0,1,934,7,16,1,"9e5f933",114,1
"1162",-1,-1,0,16,16,1,"9e5f933",115,1
"1172",1,0,886,16,3,1,"9e5f933",116,1
"1182",-1,-1,0,3,3,1,"9e5f933",117,1
"1192",0,1,997,3,12,1,"9e5f933",118,1
"1202",-1,-1,0,12,10,1,"9e5f933",119,1
"1213",1,1,1042,10,10,1,"9e5f933",120,1
"1222",-1,-1,0,10,14,1,"9e5f933",121,1
"1232",1,1,1093,14,14,1,"9e5f933",122,1
"1242",-1,-1,0,14,1,1,"9e5f933",123,1
"1252",0,0,1167,1,1,1,"9e5f933",124,1
"1262",-1,-1,0,1,9,1,"9e5f933",125,1
"1272",0,1,1058,9,18,1,"9e5f933",126,1
"1282",-1,-1,0,18,5,1,"9e5f933",127,1
"1292",0,0,908,5,5,1,"9e5f933",128,1
"1302",-1,-1,0,5,11,1,"9e5f933",129,1
"1313",1,1,1055,11,11,1,"9e5f933",130,1
"1322",-1,-1,0,11,4,1,"9e5f933",131,1
"1332",1,1,850,4,4,1,"9e5f933",132,1
"1342",-1,-1,0,4,15,1,"9e5f933",133,1
"1352",1,1,673,15,15,1,"9e5f933",134,1
"1362",-1,-1,0,15,8,1,"9e5f933",135,1
"1372",0,1,950,8,2,1,"9e5f933",136,1
"1382",-1,-1,0,2,17,1,"9e5f933",137,1
"1392",0,1,961,17,13,1,"9e5f933",138,1
"1402",-1,-1,0,13,6,1,"9e5f933",139,1
"1413",0,1,663,6,16,1,"9e5f933",140,1
"1422",-1,-1,0,16,9,1,"9e5f933",141,1
"1432",0,1,800,9,5,1,"9e5f933",142,1
"1442",-1,-1,0,5,2,1,"9e5f933",143,1
"1452",0,1,1175,2,15,1,"9e5f933",144,1
"1462",-1,-1,0,15,10,1,"9e5f933",145,1
"1472",1,0,869,10,3,1,"9e5f933",146,1
"1482",-1,-1,0,3,12,1,"9e5f933",147,1
"1492",0,1,958,12,18,1,"9e5f933",148,1
"1502",-1,-1,0,18,8,1,"9e5f933",149,1
"1513",0,0,972,8,8,1,"9e5f933",150,1
"1522",-1,-1,0,8,17,1,"9e5f933",151,1
"1532",0,1,1054,17,1,1,"9e5f933",152,1
"1542",-1,-1,0,1,11,1,"9e5f933",153,1
"1552",1,0,1129,11,4,1,"9e5f933",154,1
"1562",-1,-1,0,4,7,1,"9e5f933",155,1
"1572",1,0,1121,7,6,1,"9e5f933",156,1
"1582",-1,-1,0,6,14,1,"9e5f933",157,1
"1592",0,1,1005,14,13,1,"9e5f933",158,1
"1602",-1,-1,0,13,6,1,"9e5f933",159,1
"1613",0,1,769,6,4,1,"9e5f933",160,1
"1622",-1,-1,0,4,3,1,"9e5f933",161,1
"1632",1,1,974,3,3,1,"9e5f933",162,1
"1642",-1,-1,0,3,5,1,"9e5f933",163,1
"1652",0,0,1248,5,5,1,"9e5f933",164,1
"1662",-1,-1,0,5,7,1,"9e5f933",165,1
"1672",1,1,1036,7,7,1,"9e5f933",166,1
"1682",-1,-1,0,7,15,1,"9e5f933",167,1
"1692",0,1,1241,15,8,1,"9e5f933",168,1
"1702",-1,-1,0,8,8,1,"9e5f933",169,1
"1713",0,1,1126,8,14,1,"9e5f933",170,1
"1722",-1,-1,0,14,14,1,"9e5f933",171,1
"1732",0,1,817,14,1,1,"9e5f933",172,1
"1742",-1,-1,0,1,17,1,"9e5f933",173,1
"1752",1,0,901,17,16,1,"9e5f933",174,1
"1762",-1,-1,0,16,16,1,"9e5f933",175,1
"1772",0,1,821,16,2,1,"9e5f933",176,1
"1782",-1,-1,0,2,9,1,"9e5f933",177,1
"1792",1,0,810,9,13,1,"9e5f933",178,1
"1802",-1,-1,0,13,18,1,"9e5f933",179,1
"1813",1,1,884,18,18,1,"9e5f933",180,1
"1822",-1,-1,0,18,12,1,"9e5f933",181,1
"1832",0,1,1062,12,10,1,"9e5f933",182,1
"1842",-1,-1,0,10,11,1,"9e5f933",183,1
"1852",1,1,754,11,11,1,"9e5f933",184,1
"1862",-1,-1,0,11,5,1,"9e5f933",185,1
"1872",1,1,805,5,5,1,"9e5f933",186,1
"1882",-1,-1,0,5,4,1,"9e5f933",187,1
"1892",0,0,662,4,4,1,"9e5f933",188,1
"1902",-1,-1,0,4,9,1,"9e5f933",189,1
"1913",0,1,902,9,18,1,"9e5f933",190,1
"1922",-1,-1,0,18,17,1,"9e5f933",191,1
"1932",1,1,700,17,17,1,"9e5f933",192,1
"1942",-1,-1,0,17,10,1,"9e5f933",193,1
"1952",1,0,839,10,14,1,"9e5f933",194,1
"1962",-1,-1,0,14,14,1,"9e5f933",195,1
"1972",0,1,891,14,8,1,"9e5f933",196,1
"1982",-1,-1,0,8,8,1,"9e5f933",197,1
"1992",0,1,809,8,15,1,"9e5f933",198,1
"2002",-1,-1,0,15,15,1,"9e5f933",199,1
"2013",0,1,733,15,11,1,"9e5f933",200,1
"2022",-1,-1,0,11,7,1,"9e5f933",201,1
"2032",1,0,913,7,3,1,"9e5f933",202,1
"2042",-1,-1,0,3,13,1,"9e5f933",203,1
"2052",1,1,928,13,13,1,"9e5f933",204,1
"2062",-1,-1,0,13,16,1,"9e5f933",205,1
"2072",1,1,820,16,16,1,"9e5f933",206,1
"2082",-1,-1,0,16,12,1,"9e5f933",207,1
"2092",0,1,803,12,6,1,"9e5f933",208,1
"2102",-1,-1,0,6,6,1,"9e5f933",209,1
"2113",0,1,854,6,1,1,"9e5f933",210,1
"2122",-1,-1,0,1,2,1,"9e5f933",211,1
"2132",1,1,777,2,2,1,"9e5f933",212,1
"2142",-1,-1,0,2,15,1,"9e5f933",213,1
"2152",1,1,823,15,15,1,"9e5f933",214,1
"2162",-1,-1,0,15,4,1,"9e5f933",215,1
"2172",1,1,649,4,4,1,"9e5f933",216,1
"2182",-1,-1,0,4,17,1,"9e5f933",217,1
"2192",1,0,1013,17,14,1,"9e5f933",218,1
"2202",-1,-1,0,14,14,1,"9e5f933",219,1
"2213",0,1,779,14,11,1,"9e5f933",220,1
"2222",-1,-1,0,11,11,1,"9e5f933",221,1
"2232",1,0,788,11,12,1,"9e5f933",222,1
"2242",-1,-1,0,12,18,1,"9e5f933",223,1
"2252",1,0,1154,18,8,1,"9e5f933",224,1
"2262",-1,-1,0,8,8,1,"9e5f933",225,1
"2272",0,1,1077,8,13,1,"9e5f933",226,1
"2282",-1,-1,0,13,13,1,"9e5f933",227,1
"2292",0,1,1373,13,3,1,"9e5f933",228,1
"2302",-1,-1,0,3,1,1,"9e5f933",229,1
"2313",0,1,882,1,5,1,"9e5f933",230,1
"2322",-1,-1,0,5,16,1,"9e5f933",231,1
"2332",1,1,1024,16,16,1,"9e5f933",232,1
"2342",-1,-1,0,16,2,1,"9e5f933",233,1
"2352",1,1,916,2,2,1,"9e5f933",234,1
"2362",-1,-1,0,2,6,1,"9e5f933",235,1
"2372",1,1,870,6,6,1,"9e5f933",236,1
"2382",-1,-1,0,6,7,1,"9e5f933",237,1
"2392",1,0,2047,7,10,1,"9e5f933",238,1
"2402",-1,-1,0,10,9,1,"9e5f933",239,1
"2413",1,1,1262,9,9,1,"9e5f933",240,1
"2422",-1,-1,0,9,6,1,"9e5f933",241,1
"2432",1,1,861,6,6,1,"9e5f933",242,1
"2442",-1,-1,0,6,13,1,"9e5f933",243,1
"2452",1,1,684,13,13,1,"9e5f933",244,1
"2462",-1,-1,0,13,3,1,"9e5f933",245,1
"2472",1,1,993,3,3,1,"9e5f933",246,1
"2482",-1,-1,0,3,16,1,"9e5f933",247,1
"2492",1,1,790,16,16,1,"9e5f933",248,1
"2502",-1,-1,0,16,14,1,"9e5f933",249,1
"2513",1,1,802,14,14,1,"9e5f933",250,1
"2522",-1,-1,0,14,9,1,"9e5f933",251,1
"2532",0,1,1047,9,11,1,"9e5f933",252,1
"2542",-1,-1,0,11,11,1,"9e5f933",253,1
"2552",1,0,1132,11,4,1,"9e5f933",254,1
"2562",-1,-1,0,4,7,1,"9e5f933",255,1
"2572",1,1,861,7,7,1,"9e5f933",256,1
"2582",-1,-1,0,7,2,1,"9e5f933",257,1
"2592",0,1,1043,2,5,1,"9e5f933",258,1
"2602",-1,-1,0,5,5,1,"9e5f933",259,1
"2613",0,1,1183,5,1,1,"9e5f933",260,1
"2622",-1,-1,0,1,1,1,"9e5f933",261,1
"2632",0,1,853,1,18,1,"9e5f933",262,1
"2642",-1,-1,0,18,18,1,"9e5f933",263,1
"2651",1,0,1067,18,12,1,"9e5f933",264,1
"2661",-1,-1,0,12,12,1,"9e5f933",265,1
"2671",0,1,918,12,15,1,"9e5f933",266,1
"2681",-1,-1,0,15,8,1,"9e5f933",267,1
"2691",1,1,974,8,8,1,"9e5f933",268,1
"2701",-1,-1,0,8,17,1,"9e5f933",269,1
"2711",1,0,1084,17,10,1,"9e5f933",270,1
"279",1,0,2054,0,5,1,"0ba0b64",1,1
"315",1,1,1397,5,5,1,"0ba0b64",2,1
"415",1,0,552,5,12,1,"0ba0b64",3,1
"515",1,1,1086,12,12,1,"0ba0b64",4,1
"615",0,1,880,12,3,1,"0ba0b64",5,1
"715",0,0,1283,3,3,1,"0ba0b64",6,1
"815",0,1,826,3,6,1,"0ba0b64",7,1
"914",0,1,1433,6,11,1,"0ba0b64",8,1
"1014",0,1,916,11,2,1,"0ba0b64",9,1
"1114",0,0,510,2,2,1,"0ba0b64",10,1
"1214",1,0,727,2,10,1,"0ba0b64",11,1
"1314",0,0,587,10,10,1,"0ba0b64",12,1
"1414",0,1,822,10,4,1,"0ba0b64",13,1
"1514",1,1,769,4,4,1,"0ba0b64",14,1
"1614",0,1,1166,4,15,1,"0ba0b64",15,1
"1714",1,1,1110,15,15,1,"0ba0b64",16,1
"1814",1,0,1015,15,14,1,"0ba0b64",17,1
"1914",1,1,626,14,14,1,"0ba0b64",18,1
"2014",0,1,543,14,1,1,"0ba0b64",19,1
"2114",1,0,717,1,18,1,"0ba0b64",20,1
"2214",0,1,985,18,7,1,"0ba0b64",21,1
"2314",1,1,858,7,7,1,"0ba0b64",22,1
"2414",1,0,905,7,13,1,"0ba0b64",23,1
"2514",1,1,1091,13,13,1,"0ba0b64",24,1
"2614",0,1,767,13,8,1,"0ba0b64",25,1
"2710",1,1,514,8,8,1,"0ba0b64",26,1
"283",0,1,498,8,9,1,"0ba0b64",27,1
"293",0,1,655,9,17,1,"0ba0b64",28,1
"303",1,0,662,17,16,1,"0ba0b64",29,1
"316",1,1,651,16,16,1,"0ba0b64",30,1
"323",1,0,914,16,14,1,"0ba0b64",31,1
"333",0,0,384,14,14,1,"0ba0b64",32,1
"343",1,0,242,14,12,1,"0ba0b64",33,1
"353",0,0,217,12,12,1,"0ba0b64",34,1
"363",1,0,569,12,10,1,"0ba0b64",35,1
"373",0,1,631,10,13,1,"0ba0b64",36,1
"383",1,0,460,13,7,1,"0ba0b64",37,1
"393",1,0,922,7,4,1,"0ba0b64",38,1
"403",0,1,613,4,16,1,"0ba0b64",39,1
"416",0,0,548,16,16,1,"0ba0b64",40,1
"423",1,0,788,16,15,1,"0ba0b64",41,1
"433",1,1,743,15,15,1,"0ba0b64",42,1
"443",1,0,657,15,9,1,"0ba0b64",43,1
"453",1,1,774,9,9,1,"0ba0b64",44,1
"463",0,1,1132,9,1,1,"0ba0b64",45,1
"473",0,1,1056,1,18,1,"0ba0b64",46,1
"483",1,1,1062,18,18,1,"0ba0b64",47,1
"493",0,1,1034,18,6,1,"0ba0b64",48,1
"503",0,1,975,6,8,1,"0ba0b64",49,1
"516",1,1,735,8,8,1,"0ba0b64",50,1
"523",0,1,1049,8,3,1,"0ba0b64",51,1
"533",1,1,885,3,3,1,"0ba0b64",52,1
"543",0,1,1088,3,2,1,"0ba0b64",53,1
"553",1,0,974,2,17,1,"0ba0b64",54,1
"563",0,1,682,17,11,1,"0ba0b64",55,1
"573",1,1,923,11,11,1,"0ba0b64",56,1
"583",1,0,867,11,5,1,"0ba0b64",57,1
"593",0,1,781,5,3,1,"0ba0b64",58,1
"603",0,1,1034,3,1,1,"0ba0b64",59,1
"616",1,1,842,1,1,1,"0ba0b64",60,1
"623",0,1,1682,1,18,1,"0ba0b64",61,1
"633",1,1,824,18,18,1,"0ba0b64",62,1
"643",0,1,770,18,14,1,"0ba0b64",63,1
"653",1,1,908,14,14,1,"0ba0b64",64,1
"663",0,1,878,14,6,1,"0ba0b64",65,1
"673",0,1,835,6,9,1,"0ba0b64",66,1
"683",1,0,612,9,4,1,"0ba0b64",67,1
"693",1,1,1049,4,4,1,"0ba0b64",68,1
"703",0,1,755,4,12,1,"0ba0b64",69,1
"716",1,1,2258,12,12,1,"0ba0b64",70,1
"723",0,1,944,12,17,1,"0ba0b64",71,1
"733",0,1,583,17,2,1,"0ba0b64",72,1
"743",0,0,1435,2,2,1,"0ba0b64",73,1
"753",0,1,974,2,7,1,"0ba0b64",74,1
"763",1,0,687,7,15,1,"0ba0b64",75,1
"773",1,1,812,15,15,1,"0ba0b64",76,1
"783",0,1,946,15,13,1,"0ba0b64",77,1
"793",1,1,564,13,13,1,"0ba0b64",78,1
"803",0,1,695,13,5,1,"0ba0b64",79,1
"816",0,1,746,5,8,1,"0ba0b64",80,1
"823",1,0,746,8,11,1,"0ba0b64",81,1
"833",0,1,617,11,10,1,"0ba0b64",82,1
"843",1,1,569,10,10,1,"0ba0b64",83,1
"853",1,0,743,10,16,1,"0ba0b64",84,1
"863",1,1,557,16,16,1,"0ba0b64",85,1
"873",1,0,579,16,17,1,"0ba0b64",86,1
"883",0,1,581,17,14,1,"0ba0b64",87,1
"893",0,1,644,14,1,1,"0ba0b64",88,1
"903",1,0,489,1,10,1,"0ba0b64",89,1
"915",1,1,483,10,10,1,"0ba0b64",90,1
"923",0,1,847,10,3,1,"0ba0b64",91,1
"933",0,0,865,3,3,1,"0ba0b64",92,1
"943",0,1,715,3,4,1,"0ba0b64",93,1
"953",0,1,680,4,2,1,"0ba0b64",94,1
"963",0,0,703,2,2,1,"0ba0b64",95,1
"973",1,0,924,2,18,1,"0ba0b64",96,1
"983",0,1,538,18,6,1,"0ba0b64",97,1
"993",1,1,959,6,6,1,"0ba0b64",98,1
"1003",0,1,694,6,13,1,"0ba0b64",99,1
"1015",1,1,771,13,13,1,"0ba0b64",100,1
"1023",1,0,728,13,7,1,"0ba0b64",101,1
"1033",0,1,614,7,9,1,"0ba0b64",102,1
"1043",1,1,855,9,9,1,"0ba0b64",103,1
"1053",0,1,516,9,12,1,"0ba0b64",104,1
"1063",1,1,674,12,12,1,"0ba0b64",105,1
"1073",0,1,769,12,5,1,"0ba0b64",106,1
"1083",1,0,753,5,8,1,"0ba0b64",107,1
"1093",1,1,698,8,8,1,"0ba0b64",108,1
"1103",0,1,632,8,15,1,"0ba0b64",109,1
"1115",0,0,1269,15,15,1,"0ba0b64",110,1
"1123",0,1,1766,15,16,1,"0ba0b64",111,1
"1133",0,1,660,16,11,1,"0ba0b64",112,1
"1143",1,0,699,11,2,1,"0ba0b64",113,1
"1153",1,1,802,2,2,1,"0ba0b64",114,1
"1163",0,1,1127,2,12,1,"0ba0b64",115,1
"1173",1,1,563,12,12,1,"0ba0b64",116,1
"1183",0,1,854,12,9,1,"0ba0b64",117,1
"1193",0,1,889,9,14,1,"0ba0b64",118,1
"1203",1,0,887,14,16,1,"0ba0b64",119,1
"1215",0,1,2038,16,11,1,"0ba0b64",120,1
"1223",1,1,791,11,11,1,"0ba0b64",121,1
"1233",0,1,540,11,7,1,"0ba0b64",122,1
"1243",1,1,763,7,7,1,"0ba0b64",123,1
"1253",1,0,622,7,4,1,"0ba0b64",124,1
"1263",1,1,648,4,4,1,"0ba0b64",125,1
"1273",0,1,638,4,8,1,"0ba0b64",126,1
"1283",-1,-1,0,8,8,1,"0ba0b64",127,1
"1293",0,1,277,8,10,1,"0ba0b64",128,1
"1303",1,1,586,10,10,1,"0ba0b64",129,1
"1315",1,0,799,10,15,1,"0ba0b64",130,1
"1323",0,1,608,15,18,1,"0ba0b64",131,1
"1333",1,1,527,18,18,1,"0ba0b64",132,1
"1343",0,1,936,18,5,1,"0ba0b64",133,1
"1353",1,0,616,5,17,1,"0ba0b64",134,1
"1363",1,1,750,17,17,1,"0ba0b64",135,1
"1373",1,0,813,17,13,1,"0ba0b64",136,1
"1383",0,0,654,13,13,1,"0ba0b64",137,1
"1393",1,0,632,13,3,1,"0ba0b64",138,1
"1403",1,0,451,3,6,1,"0ba0b64",139,1
"1415",0,1,598,6,1,1,"0ba0b64",140,1
"1423",0,0,605,1,1,1,"0ba0b64",141,1
"1433",0,1,782,1,12,1,"0ba0b64",142,1
"1443",1,1,522,12,12,1,"0ba0b64",143,1
"1453",1,0,575,12,18,1,"0ba0b64",144,1
"1463",1,1,658,18,18,1,"0ba0b64",145,1
"1473",0,1,518,18,7,1,"0ba0b64",146,1
"1483",1,1,669,7,7,1,"0ba0b64",147,1
"1493",0,1,639,7,14,1,"0ba0b64",148,1
"1503",0,0,737,14,14,1,"0ba0b64",149,1
"1515",1,0,486,14,6,1,"0ba0b64",150,1
"1523",1,1,513,6,6,1,"0ba0b64",151,1
"1533",0,1,579,6,2,1,"0ba0b64",152,1
"1543",0,1,685,2,11,1,"0ba0b64",153,1
"1553",0,1,574,11,10,1,"0ba0b64",154,1
"1563",1,1,449,10,10,1,"0ba0b64",155,1
"1573",1,0,729,10,3,1,"0ba0b64",156,1
"1583",0,0,885,3,3,1,"0ba0b64",157,1
"1593",1,0,610,3,16,1,"0ba0b64",158,1
"1603",0,1,668,16,1,1,"0ba0b64",159,1
"1615",0,1,549,1,4,1,"0ba0b64",160,1
"1623",0,1,1115,4,5,1,"0ba0b64",161,1
"1633",0,0,798,5,5,1,"0ba0b64",162,1
"1643",0,1,820,5,17,1,"0ba0b64",163,1
"1653",1,0,1051,17,15,1,"0ba0b64",164,1
"1663",1,1,679,15,15,1,"0ba0b64",165,1
"1673",0,1,447,15,8,1,"0ba0b64",166,1
"1683",1,0,638,8,13,1,"0ba0b64",167,1
"1693",1,0,600,13,9,1,"0ba0b64",168,1
"1703",0,1,1131,9,10,1,"0ba0b64",169,1
"1715",1,1,616,10,10,1,"0ba0b64",170,1
"1723",0,1,1331,10,5,1,"0ba0b64",171,1
"1733",0,1,1175,5,7,1,"0ba0b64",172,1
"1743",0,1,816,7,8,1,"0ba0b64",173,1
"1753",0,1,623,8,15,1,"0ba0b64",174,1
"1763",1,1,647,15,15,1,"0ba0b64",175,1
"1773",1,0,724,15,14,1,"0ba0b64",176,1
"1783",0,1,891,14,6,1,"0ba0b64",177,1
"1793",0,1,560,6,12,1,"0ba0b64",178,1
"1803",0,0,609,12,12,1,"0ba0b64",179,1
"1815",0,1,696,12,17,1,"0ba0b64",180,1
"1823",0,0,699,17,17,1,"0ba0b64",181,1
"1833",0,1,1209,17,4,1,"0ba0b64",182,1
"1843",1,1,791,4,4,1,"0ba0b64",183,1
"1853",0,1,1540,4,16,1,"0ba0b64",184,1
"1863",1,1,520,16,16,1,"0ba0b64",185,1
"1873",0,1,578,16,9,1,"0ba0b64",186,1
"1883",0,1,608,9,11,1,"0ba0b64",187,1
"1893",0,1,615,11,1,1,"0ba0b64",188,1
"1903",1,1,780,1,1,1,"0ba0b64",189,1
"1915",0,1,674,1,18,1,"0ba0b64",190,1
"1923",1,1,733,18,18,1,"0ba0b64",191,1
"1933",0,1,515,18,2,1,"0ba0b64",192,1
"1943",0,1,714,2,3,1,"0ba0b64",193,1
"1953",1,0,801,3,13,1,"0ba0b64",194,1
"1963",0,1,786,13,1,1,"0ba0b64",195,1
"1973",0,0,828,1,1,1,"0ba0b64",196,1
"1983",0,1,498,1,16,1,"0ba0b64",197,1
"1993",0,1,638,16,7,1,"0ba0b64",198,1
"2003",1,0,630,7,9,1,"0ba0b64",199,1
"2015",1,1,483,9,9,1,"0ba0b64",200,1
"2023",0,1,488,9,17,1,"0ba0b64",201,1
"2033",1,1,553,17,17,1,"0ba0b64",202,1
"2043",0,1,556,17,8,1,"0ba0b64",203,1
"2053",0,0,541,8,8,1,"0ba0b64",204,1
"2063",0,1,1451,8,13,1,"0ba0b64",205,1
"2073",1,0,722,13,4,1,"0ba0b64",206,1
"2083",0,1,676,4,15,1,"0ba0b64",207,1
"2093",1,1,402,15,15,1,"0ba0b64",208,1
"2103",0,1,759,15,14,1,"0ba0b64",209,1
"2115",1,1,718,14,14,1,"0ba0b64",210,1
"2123",0,1,552,14,2,1,"0ba0b64",211,1
"2133",0,1,597,2,5,1,"0ba0b64",212,1
"2143",1,0,553,5,11,1,"0ba0b64",213,1
"2153",0,1,356,11,18,1,"0ba0b64",214,1
"2163",0,1,898,18,3,1,"0ba0b64",215,1
"2173",1,0,767,3,6,1,"0ba0b64",216,1
"2183",0,1,1951,6,12,1,"0ba0b64",217,1
"2193",0,0,1175,12,12,1,"0ba0b64",218,1
"2203",0,1,460,12,10,1,"0ba0b64",219,1
"2215",0,1,545,10,1,1,"0ba0b64",220,1
"2223",1,1,582,1,1,1,"0ba0b64",221,1
"2233",0,1,592,1,14,1,"0ba0b64",222,1
"2243",0,1,480,14,18,1,"0ba0b64",223,1
"2253",0,1,1139,18,15,1,"0ba0b64",224,1
"2263",0,1,968,15,12,1,"0ba0b64",225,1
"2273",1,1,838,12,12,1,"0ba0b64",226,1
"2283",0,1,569,12,7,1,"0ba0b64",227,1
"2293",1,0,903,7,4,1,"0ba0b64",228,1
"2303",0,1,431,4,9,1,"0ba0b64",229,1
"2315",0,0,614,9,9,1,"0ba0b64",230,1
"2323",0,1,511,9,11,1,"0ba0b64",231,1
"2333",0,1,930,11,5,1,"0ba0b64",232,1
"2343",0,1,723,5,17,1,"0ba0b64",233,1
"2353",0,1,1498,17,8,1,"0ba0b64",234,1
"2363",-1,0,1336,8,8,1,"0ba0b64",235,1
"2373",0,1,356,8,2,1,"0ba0b64",236,1
"2383",1,1,801,2,2,1,"0ba0b64",237,1
"2393",0,1,576,2,10,1,"0ba0b64",238,1
"2403",1,0,863,10,16,1,"0ba0b64",239,1
"2415",0,1,596,16,13,1,"0ba0b64",240,1
"2423",0,1,748,13,3,1,"0ba0b64",241,1
"2433",0,0,523,3,3,1,"0ba0b64",242,1
"2443",1,0,737,3,6,1,"0ba0b64",243,1
"2453",1,1,690,6,6,1,"0ba0b64",244,1
"2463",0,0,491,6,6,1,"0ba0b64",245,1
"2473",0,1,694,6,9,1,"0ba0b64",246,1
"2483",0,0,747,9,9,1,"0ba0b64",247,1
"2493",-1,0,687,9,15,1,"0ba0b64",248,1
"2503",1,0,315,15,7,1,"0ba0b64",249,1
"2515",-1,0,348,7,7,1,"0ba0b64",250,1
"2523",1,0,515,7,2,1,"0ba0b64",251,1
"2533",0,0,243,2,2,1,"0ba0b64",252,1
"2543",0,1,582,2,17,1,"0ba0b64",253,1
"2553",1,1,685,17,17,1,"0ba0b64",254,1
"2563",1,0,849,17,3,1,"0ba0b64",255,1
"2573",1,1,1195,3,3,1,"0ba0b64",256,1
"2583",1,0,1277,3,14,1,"0ba0b64",257,1
"2593",0,1,634,14,8,1,"0ba0b64",258,1
"2603",1,1,1015,8,8,1,"0ba0b64",259,1
"2615",0,1,846,8,16,1,"0ba0b64",260,1
"2623",0,0,2477,16,16,1,"0ba0b64",261,1
"2633",0,1,2173,16,13,1,"0ba0b64",262,1
"2643",1,0,1322,13,11,1,"0ba0b64",263,1
"2652",0,0,835,11,11,1,"0ba0b64",264,1
"2662",0,1,752,11,1,1,"0ba0b64",265,1
"2672",0,0,927,1,1,1,"0ba0b64",266,1
"2682",0,1,550,1,12,1,"0ba0b64",267,1
"2692",1,1,477,12,12,1,"0ba0b64",268,1
"2702",0,1,508,12,4,1,"0ba0b64",269,1
"2712",0,1,736,4,10,1,"0ba0b64",270,1
"2721",0,1,851,10,18,1,"0ba0b64",271,1
"2731",1,0,494,18,5,1,"0ba0b64",272,1
"2741",1,1,774,5,5,1,"0ba0b64",273,1
"280",-1,-1,0,0,12,1,"17e70a3",1,1
"317",-1,-1,0,12,14,1,"17e70a3",2,1
"417",-1,-1,0,14,14,1,"17e70a3",3,1
"517",0,1,2510,14,18,1,"17e70a3",4,1
"617",0,1,1971,18,3,1,"17e70a3",5,1
"717",-1,-1,0,3,11,1,"17e70a3",6,1
"817",-1,-1,0,11,11,1,"17e70a3",7,1
"916",-1,-1,0,11,17,1,"17e70a3",8,1
"1016",-1,-1,0,17,17,1,"17e70a3",9,1
"1116",-1,-1,0,17,10,1,"17e70a3",10,1
"1216",-1,-1,0,10,10,1,"17e70a3",11,1
"1316",-1,-1,0,10,4,1,"17e70a3",12,1
"1416",1,0,2205,4,7,1,"17e70a3",13,1
"1516",1,1,1219,7,7,1,"17e70a3",14,1
"1616",0,1,1323,7,5,1,"17e70a3",15,1
"1716",0,1,1854,5,13,1,"17e70a3",16,1
"1816",0,1,864,13,1,1,"17e70a3",17,1
"1916",0,1,830,1,8,1,"17e70a3",18,1
"2016",0,0,808,8,8,1,"17e70a3",19,1
"2116",-1,-1,0,8,9,1,"17e70a3",20,1
"2216",1,0,2047,9,16,1,"17e70a3",21,1
"2316",0,1,1736,16,6,1,"17e70a3",22,1
"2416",-1,-1,0,6,2,1,"17e70a3",23,1
"2516",1,0,1112,2,15,1,"17e70a3",24,1
"2616",0,0,2169,15,15,1,"17e70a3",25,1
"2713",1,0,1423,15,14,1,"17e70a3",26,1
"284",1,1,1010,14,14,1,"17e70a3",27,1
"294",1,0,1784,14,11,1,"17e70a3",28,1
"304",1,0,1855,11,17,1,"17e70a3",29,1
"318",0,1,2371,17,6,1,"17e70a3",30,1
"324",0,0,1339,6,6,1,"17e70a3",31,1
"334",-1,-1,0,6,16,1,"17e70a3",32,1
"344",-1,-1,0,16,16,1,"17e70a3",33,1
"354",-1,-1,0,16,5,1,"17e70a3",34,1
"364",1,1,2160,5,5,1,"17e70a3",35,1
"374",-1,-1,0,5,13,1,"17e70a3",36,1
"384",0,0,2484,13,13,1,"17e70a3",37,1
"394",1,0,1485,13,2,1,"17e70a3",38,1
"404",1,1,1224,2,2,1,"17e70a3",39,1
"418",1,0,2393,2,4,1,"17e70a3",40,1
"424",0,1,818,4,15,1,"17e70a3",41,1
"434",1,0,1490,15,12,1,"17e70a3",42,1
"444",0,0,906,12,12,1,"17e70a3",43,1
"454",1,0,1394,12,10,1,"17e70a3",44,1
"464",1,0,1764,10,18,1,"17e70a3",45,1
"474",0,0,1990,18,18,1,"17e70a3",46,1
"484",1,0,2348,18,3,1,"17e70a3",47,1
"494",-1,-1,0,3,7,1,"17e70a3",48,1
"504",1,1,1368,7,7,1,"17e70a3",49,1
"518",-1,-1,0,7,8,1,"17e70a3",50,1
"524",-1,-1,0,8,9,1,"17e70a3",51,1
"534",1,0,650,9,1,1,"17e70a3",52,1
"544",0,0,1564,1,1,1,"17e70a3",53,1
"554",0,1,2002,1,5,1,"17e70a3",54,1
"564",0,1,1544,5,10,1,"17e70a3",55,1
"574",0,0,1238,10,10,1,"17e70a3",56,1
"584",-1,-1,0,10,11,1,"17e70a3",57,1
"594",1,1,836,11,11,1,"17e70a3",58,1
"604",-1,-1,0,11,1,1,"17e70a3",59,1
"618",1,1,1408,1,1,1,"17e70a3",60,1
"624",1,0,1965,1,3,1,"17e70a3",61,1
"634",0,0,1076,3,3,1,"17e70a3",62,1
"644",1,0,1774,3,7,1,"17e70a3",63,1
"654",-1,-1,0,7,15,1,"17e70a3",64,1
"664",1,1,1083,15,15,1,"17e70a3",65,1
"674",-1,-1,0,15,9,1,"17e70a3",66,1
"684",-1,-1,0,9,9,1,"17e70a3",67,1
"694",1,0,1784,9,17,1,"17e70a3",68,1
"704",1,0,1033,17,12,1,"17e70a3",69,1
"718",1,1,1887,12,12,1,"17e70a3",70,1
"724",-1,-1,0,12,6,1,"17e70a3",71,1
"734",1,1,956,6,6,1,"17e70a3",72,1
"744",-1,-1,0,6,4,1,"17e70a3",73,1
"754",-1,-1,0,4,4,1,"17e70a3",74,1
"764",0,1,397,4,2,1,"17e70a3",75,1
"774",-1,-1,0,2,13,1,"17e70a3",76,1
"784",0,0,993,13,13,1,"17e70a3",77,1
"794",1,0,1397,13,16,1,"17e70a3",78,1
"804",0,1,924,16,14,1,"17e70a3",79,1
"818",-1,-1,0,14,18,1,"17e70a3",80,1
"824",1,1,2142,18,18,1,"17e70a3",81,1
"834",1,0,2079,18,8,1,"17e70a3",82,1
"844",0,0,1706,8,8,1,"17e70a3",83,1
"854",1,0,2240,8,6,1,"17e70a3",84,1
"864",1,0,1693,6,15,1,"17e70a3",85,1
"874",-1,-1,0,15,15,1,"17e70a3",86,1
"884",1,0,1678,15,17,1,"17e70a3",87,1
"894",0,0,2200,17,17,1,"17e70a3",88,1
"904",0,1,2460,17,3,1,"17e70a3",89,1
"917",0,1,1478,3,7,1,"17e70a3",90,1
"924",-1,-1,0,7,5,1,"17e70a3",91,1
"934",0,0,1022,5,5,1,"17e70a3",92,1
"944",0,1,1979,5,13,1,"17e70a3",93,1
"954",-1,-1,0,13,8,1,"17e70a3",94,1
"964",-1,-1,0,8,8,1,"17e70a3",95,1
"974",0,1,436,8,14,1,"17e70a3",96,1
"984",0,1,2395,14,18,1,"17e70a3",97,1
"994",-1,-1,0,18,16,1,"17e70a3",98,1
"1004",1,0,1332,16,12,1,"17e70a3",99,1
"1017",0,0,1075,12,12,1,"17e70a3",100,1
"1024",1,0,1996,12,11,1,"17e70a3",101,1
"1034",1,0,1143,11,9,1,"17e70a3",102,1
"1044",0,1,878,9,2,1,"17e70a3",103,1
"1054",0,1,1677,2,1,1,"17e70a3",104,1
"1064",0,1,1903,1,4,1,"17e70a3",105,1
"1074",1,0,1815,4,10,1,"17e70a3",106,1
"1084",0,0,1814,10,10,1,"17e70a3",107,1
"1094",1,0,836,10,9,1,"17e70a3",108,1
"1104",0,0,1457,9,9,1,"17e70a3",109,1
"1117",0,1,507,9,13,1,"17e70a3",110,1
"1124",0,0,988,13,13,1,"17e70a3",111,1
"1134",0,1,913,13,12,1,"17e70a3",112,1
"1144",-1,-1,0,12,12,1,"17e70a3",113,1
"1154",1,0,2077,12,6,1,"17e70a3",114,1
"1164",1,1,1280,6,6,1,"17e70a3",115,1
"1174",0,1,1333,6,8,1,"17e70a3",116,1
"1184",0,1,1086,8,1,1,"17e70a3",117,1
"1194",0,0,1376,1,1,1,"17e70a3",118,1
"1204",0,1,705,1,16,1,"17e70a3",119,1
"1217",0,0,1087,16,16,1,"17e70a3",120,1
"1224",0,1,1061,16,18,1,"17e70a3",121,1
"1234",1,1,1440,18,18,1,"17e70a3",122,1
"1244",1,0,1193,18,3,1,"17e70a3",123,1
"1254",1,0,566,3,15,1,"17e70a3",124,1
"1264",1,0,745,15,5,1,"17e70a3",125,1
"1274",0,1,522,5,10,1,"17e70a3",126,1
"1284",0,0,847,10,10,1,"17e70a3",127,1
"1294",0,1,635,10,2,1,"17e70a3",128,1
"1304",0,0,1230,2,2,1,"17e70a3",129,1
"1317",1,0,926,2,7,1,"17e70a3",130,1
"1324",1,0,502,7,17,1,"17e70a3",131,1
"1334",0,1,820,17,4,1,"17e70a3",132,1
"1344",0,0,903,4,4,1,"17e70a3",133,1
"1354",0,1,962,4,14,1,"17e70a3",134,1
"1364",0,1,946,14,11,1,"17e70a3",135,1
"1374",1,0,813,11,7,1,"17e70a3",136,1
"1384",1,0,716,7,4,1,"17e70a3",137,1
"1394",0,1,578,4,15,1,"17e70a3",138,1
"1404",0,1,544,15,1,1,"17e70a3",139,1
"1417",1,0,814,1,6,1,"17e70a3",140,1
"1424",0,1,661,6,9,1,"17e70a3",141,1
"1434",1,0,1027,9,11,1,"17e70a3",142,1
"1444",1,0,666,11,12,1,"17e70a3",143,1
"1454",0,0,599,12,12,1,"17e70a3",144,1
"1464",1,0,701,12,16,1,"17e70a3",145,1
"1474",0,1,685,16,17,1,"17e70a3",146,1
"1484",0,0,718,17,17,1,"17e70a3",147,1
"1494",1,0,1033,17,5,1,"17e70a3",148,1
"1504",0,0,679,5,5,1,"17e70a3",149,1
"1517",0,1,395,5,2,1,"17e70a3",150,1
"1524",0,1,1071,2,18,1,"17e70a3",151,1
"1534",1,0,830,18,13,1,"17e70a3",152,1
"1544",0,1,750,13,8,1,"17e70a3",153,1
"1554",0,0,460,8,8,1,"17e70a3",154,1
"1564",0,1,444,8,10,1,"17e70a3",155,1
"1574",1,0,820,10,3,1,"17e70a3",156,1
"1584",0,0,683,3,3,1,"17e70a3",157,1
"1594",0,1,486,3,14,1,"17e70a3",158,1
"1604",0,0,657,14,14,1,"17e70a3",159,1
"1617",0,1,765,14,7,1,"17e70a3",160,1
"1624",0,0,785,7,7,1,"17e70a3",161,1
"1634",1,0,1732,7,13,1,"17e70a3",162,1
"1644",1,1,676,13,13,1,"17e70a3",163,1
"1654",1,0,1657,13,11,1,"17e70a3",164,1
"1664",0,1,638,11,17,1,"17e70a3",165,1
"1674",0,0,1259,17,17,1,"17e70a3",166,1
"1684",0,1,877,17,16,1,"17e70a3",167,1
"1694",0,0,1070,16,16,1,"17e70a3",168,1
"1704",1,0,731,16,14,1,"17e70a3",169,1
"1717",1,1,385,14,14,1,"17e70a3",170,1
"1724",1,0,497,14,3,1,"17e70a3",171,1
"1734",1,0,373,3,10,1,"17e70a3",172,1
"1744",1,1,401,10,10,1,"17e70a3",173,1
"1754",1,0,509,10,5,1,"17e70a3",174,1
"1764",0,0,546,5,5,1,"17e70a3",175,1
"1774",0,1,355,5,2,1,"17e70a3",176,1
"1784",0,1,373,2,8,1,"17e70a3",177,1
"1794",0,0,715,8,8,1,"17e70a3",178,1
"1804",0,1,390,8,4,1,"17e70a3",179,1
"1817",0,0,1542,4,4,1,"17e70a3",180,1
"1824",0,1,1034,4,9,1,"17e70a3",181,1
"1834",1,1,729,9,9,1,"17e70a3",182,1
"1844",1,0,910,9,12,1,"17e70a3",183,1
"1854",1,1,968,12,12,1,"17e70a3",184,1
"1864",0,1,1113,12,6,1,"17e70a3",185,1
"1874",0,0,2116,6,6,1,"17e70a3",186,1
"1884",0,1,1768,6,15,1,"17e70a3",187,1
"1894",1,0,1417,15,18,1,"17e70a3",188,1
"1904",1,1,915,18,18,1,"17e70a3",189,1
"1917",0,1,779,18,1,1,"17e70a3",190,1
"1924",1,1,395,1,1,1,"17e70a3",191,1
"1934",0,1,540,1,5,1,"17e70a3",192,1
"1944",1,1,555,5,5,1,"17e70a3",193,1
"1954",0,1,419,5,2,1,"17e70a3",194,1
"1964",1,0,344,2,18,1,"17e70a3",195,1
"1974",1,1,400,18,18,1,"17e70a3",196,1
"1984",0,1,358,18,14,1,"17e70a3",197,1
"1994",0,1,557,14,11,1,"17e70a3",198,1
"2004",1,0,352,11,10,1,"17e70a3",199,1
"2017",1,0,347,10,17,1,"17e70a3",200,1
"2024",1,1,313,17,17,1,"17e70a3",201,1
"2034",0,1,360,17,13,1,"17e70a3",202,1
"2044",0,1,491,13,12,1,"17e70a3",203,1
"2054",0,0,579,12,12,1,"17e70a3",204,1
"2064",1,0,1641,12,4,1,"17e70a3",205,1
"2074",0,0,525,4,4,1,"17e70a3",206,1
"2084",0,1,372,4,6,1,"17e70a3",207,1
"2094",0,1,689,6,1,1,"17e70a3",208,1
"2104",1,1,434,1,1,1,"17e70a3",209,1
"2117",1,0,403,1,7,1,"17e70a3",210,1
"2124",1,0,339,7,16,1,"17e70a3",211,1
"2134",1,1,326,16,16,1,"17e70a3",212,1
"2144",1,0,313,16,8,1,"17e70a3",213,1
"2154",1,0,289,8,9,1,"17e70a3",214,1
"2164",0,1,479,9,3,1,"17e70a3",215,1
"2174",0,1,321,3,15,1,"17e70a3",216,1
"2184",0,0,665,15,15,1,"17e70a3",217,1
"2194",1,0,1645,15,5,1,"17e70a3",218,1
"2204",1,0,1187,5,3,1,"17e70a3",219,1
"2217",1,1,670,3,3,1,"17e70a3",220,1
"2224",0,1,1401,3,13,1,"17e70a3",221,1
"2234",-1,-1,0,13,13,1,"17e70a3",222,1
"2244",0,1,668,13,9,1,"17e70a3",223,1
"2254",1,0,1244,9,6,1,"17e70a3",224,1
"2264",1,1,896,6,6,1,"17e70a3",225,1
"2274",-1,-1,0,6,14,1,"17e70a3",226,1
"2284",0,1,845,14,10,1,"17e70a3",227,1
"2294",0,0,1082,10,10,1,"17e70a3",228,1
"2304",1,0,669,10,12,1,"17e70a3",229,1
"2317",1,1,355,12,12,1,"17e70a3",230,1
"2324",0,1,513,12,15,1,"17e70a3",231,1
"2334",0,0,519,15,15,1,"17e70a3",232,1
"2344",1,0,1572,15,17,1,"17e70a3",233,1
"2354",1,0,1743,17,8,1,"17e70a3",234,1
"2364",0,1,1016,8,7,1,"17e70a3",235,1
"2374",0,1,437,7,2,1,"17e70a3",236,1
"2384",0,1,763,2,1,1,"17e70a3",237,1
"2394",0,1,483,1,4,1,"17e70a3",238,1
"2404",-1,-1,0,4,4,1,"17e70a3",239,1
"2417",-1,-1,0,4,18,1,"17e70a3",240,1
"2424",1,1,368,18,18,1,"17e70a3",241,1
"2434",1,0,872,18,16,1,"17e70a3",242,1
"2444",1,1,556,16,16,1,"17e70a3",243,1
"2454",1,0,1878,16,11,1,"17e70a3",244,1
"2464",1,0,1414,11,8,1,"17e70a3",245,1
"2474",0,0,932,8,8,1,"17e70a3",246,1
"2484",1,0,609,8,2,1,"17e70a3",247,1
"2494",1,1,297,2,2,1,"17e70a3",248,1
"2504",1,0,556,2,13,1,"17e70a3",249,1
"2517",0,0,385,13,13,1,"17e70a3",250,1
"2524",0,1,1986,13,9,1,"17e70a3",251,1
"2534",-1,-1,0,9,9,1,"17e70a3",252,1
"2544",-1,-1,0,9,10,1,"17e70a3",253,1
"2554",0,1,849,10,7,1,"17e70a3",254,1
"2564",0,1,432,7,4,1,"17e70a3",255,1
"2574",0,1,916,4,6,1,"17e70a3",256,1
"2584",0,1,1296,6,5,1,"17e70a3",257,1
"2594",0,1,1020,5,17,1,"17e70a3",258,1
"2604",0,1,1308,17,15,1,"17e70a3",259,1
"2617",0,0,969,15,15,1,"17e70a3",260,1
"2624",0,1,1069,15,11,1,"17e70a3",261,1
"2634",0,1,721,11,1,1,"17e70a3",262,1
"2644",0,0,701,1,1,1,"17e70a3",263,1
"2653",0,1,1404,1,14,1,"17e70a3",264,1
"2663",0,0,1557,14,14,1,"17e70a3",265,1
"2673",-1,-1,0,14,3,1,"17e70a3",266,1
"2683",1,0,539,3,16,1,"17e70a3",267,1
"2693",0,0,696,16,16,1,"17e70a3",268,1
"2703",1,0,1792,16,18,1,"17e70a3",269,1
"2714",0,1,1496,18,12,1,"17e70a3",270,1
"2722",-1,-1,0,12,12,1,"17e70a3",271,1
"285",-1,-1,0,0,15,1,"18d3da3",1,1
"319",1,1,1100,15,15,1,"18d3da3",2,1
"419",1,0,900,15,3,1,"18d3da3",3,1
"519",1,1,1000,3,3,1,"18d3da3",4,1
"619",0,1,700,3,13,1,"18d3da3",5,1
"719",1,1,1000,13,13,1,"18d3da3",6,1
"819",1,0,800,13,7,1,"18d3da3",7,1
"918",0,1,900,7,8,1,"18d3da3",8,1
"1018",0,1,900,8,4,1,"18d3da3",9,1
"1118",0,0,1300,4,4,1,"18d3da3",10,1
"1218",0,1,1000,4,12,1,"18d3da3",11,1
"1318",0,1,1000,12,6,1,"18d3da3",12,1
"1418",0,1,800,6,14,1,"18d3da3",13,1
"1518",1,1,1000,14,14,1,"18d3da3",14,1
"1618",0,1,1000,14,17,1,"18d3da3",15,1
"1718",1,1,1100,17,17,1,"18d3da3",16,1
"1818",0,1,700,17,9,1,"18d3da3",17,1
"1918",0,0,1700,9,9,1,"18d3da3",18,1
"2018",1,0,2500,9,10,1,"18d3da3",19,1
"2118",0,0,1500,10,10,1,"18d3da3",20,1
"2218",0,1,1700,10,1,1,"18d3da3",21,1
"2318",0,1,800,1,2,1,"18d3da3",22,1
"2418",0,1,700,2,5,1,"18d3da3",23,1
"2518",0,0,900,5,5,1,"18d3da3",24,1
"2618",0,1,700,5,18,1,"18d3da3",25,1
"2715",0,1,800,18,16,1,"18d3da3",26,1
"286",0,1,600,16,11,1,"18d3da3",27,1
"295",1,1,1300,11,11,1,"18d3da3",28,1
"305",0,1,1900,11,9,1,"18d3da3",29,1
"3110",0,1,800,9,2,1,"18d3da3",30,1
"325",0,0,1100,2,2,1,"18d3da3",31,1
"335",0,1,600,2,4,1,"18d3da3",32,1
"345",1,1,800,4,4,1,"18d3da3",33,1
"355",0,1,1100,4,13,1,"18d3da3",34,1
"365",0,1,1100,13,5,1,"18d3da3",35,1
"375",0,0,700,5,5,1,"18d3da3",36,1
"385",0,1,1100,5,16,1,"18d3da3",37,1
"395",1,1,1100,16,16,1,"18d3da3",38,1
"405",0,1,1000,16,1,1,"18d3da3",39,1
"4110",1,1,900,1,1,1,"18d3da3",40,1
"425",0,1,1500,1,12,1,"18d3da3",41,1
"435",1,0,800,12,11,1,"18d3da3",42,1
"445",1,1,1000,11,11,1,"18d3da3",43,1
"455",0,1,1100,11,6,1,"18d3da3",44,1
"465",0,1,800,6,8,1,"18d3da3",45,1
"475",1,1,800,8,8,1,"18d3da3",46,1
"485",0,1,900,8,10,1,"18d3da3",47,1
"495",1,1,1100,10,10,1,"18d3da3",48,1
"505",0,1,1800,10,14,1,"18d3da3",49,1
"5110",0,1,900,14,18,1,"18d3da3",50,1
"525",1,1,500,18,18,1,"18d3da3",51,1
"535",0,1,1000,18,7,1,"18d3da3",52,1
"545",0,1,1100,7,3,1,"18d3da3",53,1
"555",1,1,1000,3,3,1,"18d3da3",54,1
"565",1,0,700,3,15,1,"18d3da3",55,1
"575",1,1,1000,15,15,1,"18d3da3",56,1
"585",1,0,800,15,17,1,"18d3da3",57,1
"595",1,1,900,17,17,1,"18d3da3",58,1
"605",0,1,600,17,5,1,"18d3da3",59,1
"6110",0,0,700,5,5,1,"18d3da3",60,1
"625",0,1,300,5,17,1,"18d3da3",61,1
"635",0,0,600,17,17,1,"18d3da3",62,1
"645",0,1,900,17,8,1,"18d3da3",63,1
"655",1,1,800,8,8,1,"18d3da3",64,1
"665",0,1,700,8,16,1,"18d3da3",65,1
"675",1,1,700,16,16,1,"18d3da3",66,1
"685",0,1,700,16,1,1,"18d3da3",67,1
"695",0,0,1200,1,1,1,"18d3da3",68,1
"705",1,0,700,1,4,1,"18d3da3",69,1
"7110",1,1,800,4,4,1,"18d3da3",70,1
"725",0,1,700,4,2,1,"18d3da3",71,1
"735",0,1,800,2,11,1,"18d3da3",72,1
"745",0,1,1400,11,12,1,"18d3da3",73,1
"755",0,1,1400,12,6,1,"18d3da3",74,1
"765",1,1,900,6,6,1,"18d3da3",75,1
"775",0,1,700,6,9,1,"18d3da3",76,1
"785",0,1,600,9,3,1,"18d3da3",77,1
"795",1,0,1100,3,10,1,"18d3da3",78,1
"805",1,1,600,10,10,1,"18d3da3",79,1
"8110",1,0,900,10,15,1,"18d3da3",80,1
"825",1,1,700,15,15,1,"18d3da3",81,1
"835",0,1,500,15,18,1,"18d3da3",82,1
"845",1,1,700,18,18,1,"18d3da3",83,1
"855",0,1,600,18,14,1,"18d3da3",84,1
"865",1,0,1100,14,13,1,"18d3da3",85,1
"875",1,0,1300,13,7,1,"18d3da3",86,1
"885",1,1,1000,7,7,1,"18d3da3",87,1
"895",0,1,1000,7,17,1,"18d3da3",88,1
"905",1,1,1000,17,17,1,"18d3da3",89,1
"919",0,1,1200,17,11,1,"18d3da3",90,1
"925",0,0,800,11,11,1,"18d3da3",91,1
"935",1,0,800,11,8,1,"18d3da3",92,1
"945",1,1,700,8,8,1,"18d3da3",93,1
"955",0,1,400,8,3,1,"18d3da3",94,1
"965",0,1,900,3,16,1,"18d3da3",95,1
"975",1,1,800,16,16,1,"18d3da3",96,1
"985",0,1,600,16,12,1,"18d3da3",97,1
"995",1,1,1000,12,12,1,"18d3da3",98,1
"1005",0,1,600,12,14,1,"18d3da3",99,1
"1019",1,1,900,14,14,1,"18d3da3",100,1
"1025",1,0,700,14,9,1,"18d3da3",101,1
"1035",1,0,500,9,13,1,"18d3da3",102,1
"1045",0,1,800,13,4,1,"18d3da3",103,1
"1055",0,1,700,4,6,1,"18d3da3",104,1
"1065",0,1,700,6,5,1,"18d3da3",105,1
"1075",1,0,500,5,15,1,"18d3da3",106,1
"1085",1,1,900,15,15,1,"18d3da3",107,1
"1095",0,1,600,15,18,1,"18d3da3",108,1
"1105",0,1,700,18,7,1,"18d3da3",109,1
"1119",1,1,1000,7,7,1,"18d3da3",110,1
"1125",0,1,900,7,1,1,"18d3da3",111,1
"1135",1,1,800,1,1,1,"18d3da3",112,1
"1145",0,1,900,1,10,1,"18d3da3",113,1
"1155",0,0,900,10,10,1,"18d3da3",114,1
"1165",0,1,900,10,2,1,"18d3da3",115,1
"1175",0,1,900,2,15,1,"18d3da3",116,1
"1185",0,1,900,15,16,1,"18d3da3",117,1
"1195",1,1,600,16,16,1,"18d3da3",118,1
"1205",0,1,700,16,1,1,"18d3da3",119,1
"1219",1,0,800,1,13,1,"18d3da3",120,1
"1225",1,0,800,13,7,1,"18d3da3",121,1
"1235",1,1,900,7,7,1,"18d3da3",122,1
"1245",1,0,800,7,4,1,"18d3da3",123,1
"1255",0,1,900,4,6,1,"18d3da3",124,1
"1265",1,1,800,6,6,1,"18d3da3",125,1
"1275",0,1,600,6,9,1,"18d3da3",126,1
"1285",1,1,700,9,9,1,"18d3da3",127,1
"1295",1,0,900,9,14,1,"18d3da3",128,1
"1305",0,1,1000,14,5,1,"18d3da3",129,1
"1319",1,1,1300,5,5,1,"18d3da3",130,1
"1325",0,1,800,5,8,1,"18d3da3",131,1
"1335",0,1,600,8,3,1,"18d3da3",132,1
"1345",1,1,600,3,3,1,"18d3da3",133,1
"1355",0,1,500,3,2,1,"18d3da3",134,1
"1365",0,1,600,2,12,1,"18d3da3",135,1
"1375",1,1,800,12,12,1,"18d3da3",136,1
"1385",0,1,600,12,18,1,"18d3da3",137,1
"1395",0,0,1800,18,18,1,"18d3da3",138,1
"1405",0,1,1100,18,17,1,"18d3da3",139,1
"1419",1,1,1000,17,17,1,"18d3da3",140,1
"1425",0,1,800,17,10,1,"18d3da3",141,1
"1435",1,1,800,10,10,1,"18d3da3",142,1
"1445",0,1,800,10,11,1,"18d3da3",143,1
"1455",0,1,600,11,3,1,"18d3da3",144,1
"1465",0,0,1200,3,3,1,"18d3da3",145,1
"1475",-1,-1,0,3,9,1,"18d3da3",146,1
"1485",1,0,1300,9,2,1,"18d3da3",147,1
"1495",0,1,900,2,13,1,"18d3da3",148,1
"1505",1,1,2100,13,13,1,"18d3da3",149,1
"1519",0,1,900,13,16,1,"18d3da3",150,1
"1525",0,1,600,16,7,1,"18d3da3",151,1
"1535",1,1,600,7,7,1,"18d3da3",152,1
"1545",0,1,600,7,8,1,"18d3da3",153,1
"1555",0,1,1300,8,5,1,"18d3da3",154,1
"1565",1,1,800,5,5,1,"18d3da3",155,1
"1575",0,1,800,5,18,1,"18d3da3",156,1
"1585",1,1,1200,18,18,1,"18d3da3",157,1
"1595",0,1,1200,18,1,1,"18d3da3",158,1
"1605",0,1,1000,1,4,1,"18d3da3",159,1
"1619",1,1,700,4,4,1,"18d3da3",160,1
"1625",0,1,500,4,12,1,"18d3da3",161,1
"1635",0,1,600,12,14,1,"18d3da3",162,1
"1645",1,0,700,14,15,1,"18d3da3",163,1
"1655",0,1,800,15,6,1,"18d3da3",164,1
"1665",0,0,1000,6,6,1,"18d3da3",165,1
"1675",0,1,1300,6,10,1,"18d3da3",166,1
"1685",1,1,500,10,10,1,"18d3da3",167,1
"1695",0,1,600,10,17,1,"18d3da3",168,1
"1705",0,1,700,17,11,1,"18d3da3",169,1
"1719",0,1,600,11,9,1,"18d3da3",170,1
"1725",1,1,600,9,9,1,"18d3da3",171,1
"1735",0,1,500,9,15,1,"18d3da3",172,1
"1745",0,1,600,15,8,1,"18d3da3",173,1
"1755",1,0,800,8,2,1,"18d3da3",174,1
"1765",1,1,800,2,2,1,"18d3da3",175,1
"1775",0,1,500,2,18,1,"18d3da3",176,1
"1785",1,1,500,18,18,1,"18d3da3",177,1
"1795",0,1,600,18,1,1,"18d3da3",178,1
"1805",0,0,1300,1,1,1,"18d3da3",179,1
"1819",0,1,600,1,14,1,"18d3da3",180,1
"1825",1,1,800,14,14,1,"18d3da3",181,1
"1835",0,1,700,14,17,1,"18d3da3",182,1
"1845",1,1,500,17,17,1,"18d3da3",183,1
"1855",1,0,500,17,6,1,"18d3da3",184,1
"1865",1,0,700,6,10,1,"18d3da3",185,1
"1875",0,1,600,10,12,1,"18d3da3",186,1
"1885",0,1,500,12,13,1,"18d3da3",187,1
"1895",1,1,400,13,13,1,"18d3da3",188,1
"1905",0,1,700,13,4,1,"18d3da3",189,1
"1919",1,1,900,4,4,1,"18d3da3",190,1
"1925",0,1,600,4,7,1,"18d3da3",191,1
"1935",0,1,600,7,5,1,"18d3da3",192,1
"1945",1,1,600,5,5,1,"18d3da3",193,1
"1955",0,1,700,5,11,1,"18d3da3",194,1
"1965",1,1,600,11,11,1,"18d3da3",195,1
"1975",0,1,400,11,16,1,"18d3da3",196,1
"1985",1,1,600,16,16,1,"18d3da3",197,1
"1995",1,0,600,16,3,1,"18d3da3",198,1
"2005",1,0,500,3,16,1,"18d3da3",199,1
"2019",1,1,600,16,16,1,"18d3da3",200,1
"2025",0,1,400,16,5,1,"18d3da3",201,1
"2035",1,1,400,5,5,1,"18d3da3",202,1
"2045",0,1,600,5,11,1,"18d3da3",203,1
"2055",1,1,500,11,11,1,"18d3da3",204,1
"2065",0,1,500,11,1,1,"18d3da3",205,1
"2075",1,1,500,1,1,1,"18d3da3",206,1
"2085",0,1,700,1,8,1,"18d3da3",207,1
"2095",0,1,700,8,12,1,"18d3da3",208,1
"2105",1,1,900,12,12,1,"18d3da3",209,1
"2119",0,1,900,12,17,1,"18d3da3",210,1
"2125",1,1,700,17,17,1,"18d3da3",211,1
"2135",0,1,700,17,4,1,"18d3da3",212,1
"2145",-1,NA,NA,NA,NA,NA,"18d3da3",213,1
"287",-1,-1,0,0,18,1,"173d9d9",1,1
"320",-1,0,1555,18,11,1,"173d9d9",2,1
"420",-1,0,1510,11,14,1,"173d9d9",3,1
"520",-1,0,823,14,14,1,"173d9d9",4,1
"620",-1,0,921,14,4,1,"173d9d9",5,1
"720",-1,-1,0,4,7,1,"173d9d9",6,1
"820",-1,0,996,7,7,1,"173d9d9",7,1
"920",-1,0,781,7,9,1,"173d9d9",8,1
"1020",-1,-1,0,9,6,1,"173d9d9",9,1
"1120",-1,0,930,6,5,1,"173d9d9",10,1
"1220",-1,-1,0,5,5,1,"173d9d9",11,1
"1320",-1,0,1261,5,13,1,"173d9d9",12,1
"1420",-1,0,1151,13,17,1,"173d9d9",13,1
"1520",-1,-1,0,17,17,1,"173d9d9",14,1
"1620",-1,0,891,17,3,1,"173d9d9",15,1
"1720",-1,0,1373,3,3,1,"173d9d9",16,1
"1820",-1,0,1511,3,12,1,"173d9d9",17,1
"1920",-1,0,1648,12,12,1,"173d9d9",18,1
"2020",-1,0,1018,12,8,1,"173d9d9",19,1
"2120",-1,0,1283,8,8,1,"173d9d9",20,1
"2219",-1,0,1206,8,1,1,"173d9d9",21,1
"2319",-1,0,1063,1,1,1,"173d9d9",22,1
"2419",-1,-1,0,1,2,1,"173d9d9",23,1
"2519",-1,0,891,2,15,1,"173d9d9",24,1
"2619",-1,-1,0,15,10,1,"173d9d9",25,1
"2716",-1,0,943,10,16,1,"173d9d9",26,1
"288",-1,0,808,16,16,1,"173d9d9",27,1
"296",-1,0,778,16,7,1,"173d9d9",28,1
"306",-1,0,1501,7,3,1,"173d9d9",29,1
"3111",-1,0,1078,3,3,1,"173d9d9",30,1
"326",-1,0,697,3,11,1,"173d9d9",31,1
"336",-1,-1,0,11,11,1,"173d9d9",32,1
"346",-1,0,1252,11,18,1,"173d9d9",33,1
"356",-1,0,2343,18,1,1,"173d9d9",34,1
"366",-1,-1,0,1,14,1,"173d9d9",35,1
"376",-1,-1,0,14,5,1,"173d9d9",36,1
"386",-1,0,700,5,16,1,"173d9d9",37,1
"396",-1,0,2006,16,2,1,"173d9d9",38,1
"406",-1,-1,0,2,13,1,"173d9d9",39,1
"4111",-1,-1,0,13,8,1,"173d9d9",40,1
"426",-1,-1,0,8,17,1,"173d9d9",41,1
"436",-1,0,1227,17,9,1,"173d9d9",42,1
"446",-1,0,1181,9,9,1,"173d9d9",43,1
"456",-1,-1,0,9,4,1,"173d9d9",44,1
"466",-1,0,841,4,10,1,"173d9d9",45,1
"476",-1,0,1058,10,10,1,"173d9d9",46,1
"486",-1,-1,0,10,6,1,"173d9d9",47,1
"496",-1,-1,0,6,12,1,"173d9d9",48,1
"506",-1,-1,0,12,12,1,"173d9d9",49,1
"5111",-1,-1,0,12,15,1,"173d9d9",50,1
"526",-1,-1,0,15,17,1,"173d9d9",51,1
"536",-1,-1,0,17,4,1,"173d9d9",52,1
"546",-1,-1,0,4,8,1,"173d9d9",53,1
"556",-1,-1,0,8,11,1,"173d9d9",54,1
"566",-1,-1,0,11,5,1,"173d9d9",55,1
"576",-1,-1,0,5,15,1,"173d9d9",56,1
"586",-1,-1,0,15,15,1,"173d9d9",57,1
"596",-1,-1,0,15,12,1,"173d9d9",58,1
"606",-1,-1,0,12,12,1,"173d9d9",59,1
"6111",-1,-1,0,12,18,1,"173d9d9",60,1
"626",-1,-1,0,18,18,1,"173d9d9",61,1
"636",-1,-1,0,18,3,1,"173d9d9",62,1
"646",-1,-1,0,3,6,1,"173d9d9",63,1
"656",-1,-1,0,6,13,1,"173d9d9",64,1
"666",-1,-1,0,13,13,1,"173d9d9",65,1
"676",-1,-1,0,13,9,1,"173d9d9",66,1
"686",-1,-1,0,9,7,1,"173d9d9",67,1
"696",-1,-1,0,7,7,1,"173d9d9",68,1
"706",-1,-1,0,7,10,1,"173d9d9",69,1
"7111",-1,-1,0,10,10,1,"173d9d9",70,1
"726",-1,-1,0,10,2,1,"173d9d9",71,1
"736",-1,-1,0,2,2,1,"173d9d9",72,1
"746",-1,0,812,2,16,1,"173d9d9",73,1
"756",-1,-1,0,16,16,1,"173d9d9",74,1
"766",-1,0,895,16,1,1,"173d9d9",75,1
"776",-1,0,1241,1,1,1,"173d9d9",76,1
"786",-1,0,499,1,14,1,"173d9d9",77,1
"796",-1,0,765,14,14,1,"173d9d9",78,1
"806",-1,0,1424,14,11,1,"173d9d9",79,1
"8111",-1,0,769,11,11,1,"173d9d9",80,1
"826",-1,0,706,11,7,1,"173d9d9",81,1
"836",-1,-1,0,7,7,1,"173d9d9",82,1
"846",-1,0,1234,7,9,1,"173d9d9",83,1
"856",-1,-1,0,9,9,1,"173d9d9",84,1
"866",-1,0,1642,9,4,1,"173d9d9",85,1
"876",-1,0,812,4,8,1,"173d9d9",86,1
"886",-1,0,1046,8,5,1,"173d9d9",87,1
"896",-1,0,1175,5,5,1,"173d9d9",88,1
"906",-1,0,1833,5,15,1,"173d9d9",89,1
"9110",-1,0,1410,15,2,1,"173d9d9",90,1
"926",-1,0,860,2,2,1,"173d9d9",91,1
"936",-1,-1,0,2,3,1,"173d9d9",92,1
"946",-1,-1,0,3,3,1,"173d9d9",93,1
"956",-1,0,898,3,13,1,"173d9d9",94,1
"966",-1,0,587,13,10,1,"173d9d9",95,1
"976",-1,0,1494,10,10,1,"173d9d9",96,1
"986",-1,0,1519,10,17,1,"173d9d9",97,1
"996",-1,0,553,17,1,1,"173d9d9",98,1
"1006",-1,-1,0,1,1,1,"173d9d9",99,1
"10110",-1,-1,0,1,6,1,"173d9d9",100,1
"1026",-1,-1,0,6,6,1,"173d9d9",101,1
"1036",-1,-1,0,6,16,1,"173d9d9",102,1
"1046",-1,-1,0,16,16,1,"173d9d9",103,1
"1056",-1,0,909,16,18,1,"173d9d9",104,1
"1066",-1,0,903,18,14,1,"173d9d9",105,1
"1076",-1,-1,0,14,14,1,"173d9d9",106,1
"1086",-1,-1,0,14,12,1,"173d9d9",107,1
"1096",-1,0,924,12,12,1,"173d9d9",108,1
"1106",-1,0,550,12,7,1,"173d9d9",109,1
"11110",-1,0,919,7,7,1,"173d9d9",110,1
"1126",-1,0,841,7,18,1,"173d9d9",111,1
"1136",-1,0,1339,18,18,1,"173d9d9",112,1
"1146",-1,0,541,18,13,1,"173d9d9",113,1
"1156",-1,0,1503,13,13,1,"173d9d9",114,1
"1166",-1,0,704,13,14,1,"173d9d9",115,1
"1176",-1,0,1275,14,9,1,"173d9d9",116,1
"1186",-1,0,1196,9,9,1,"173d9d9",117,1
"1196",-1,0,734,9,6,1,"173d9d9",118,1
"1206",-1,0,752,6,6,1,"173d9d9",119,1
"12110",-1,0,562,6,16,1,"173d9d9",120,1
"1226",-1,0,628,16,11,1,"173d9d9",121,1
"1236",-1,0,1550,11,15,1,"173d9d9",122,1
"1246",-1,-1,0,15,3,1,"173d9d9",123,1
"1256",-1,0,768,3,3,1,"173d9d9",124,1
"1266",-1,0,458,3,12,1,"173d9d9",125,1
"1276",-1,-1,0,12,12,1,"173d9d9",126,1
"1286",-1,-1,0,12,10,1,"173d9d9",127,1
"1296",-1,0,1433,10,10,1,"173d9d9",128,1
"1306",-1,0,490,10,2,1,"173d9d9",129,1
"13110",-1,0,1028,2,2,1,"173d9d9",130,1
"1326",-1,0,1094,2,5,1,"173d9d9",131,1
"1336",-1,0,2247,5,5,1,"173d9d9",132,1
"1346",-1,0,729,5,4,1,"173d9d9",133,1
"1356",-1,0,620,4,4,1,"173d9d9",134,1
"1366",-1,0,549,4,17,1,"173d9d9",135,1
"1376",-1,0,1023,17,17,1,"173d9d9",136,1
"1386",-1,0,521,17,1,1,"173d9d9",137,1
"1396",-1,-1,0,1,1,1,"173d9d9",138,1
"1406",-1,0,1157,1,8,1,"173d9d9",139,1
"14110",-1,0,1639,8,1,1,"173d9d9",140,1
"1426",-1,0,968,1,8,1,"173d9d9",141,1
"1436",-1,0,635,8,18,1,"173d9d9",142,1
"1446",-1,0,933,18,18,1,"173d9d9",143,1
"1456",-1,0,526,18,14,1,"173d9d9",144,1
"1466",-1,0,1143,14,13,1,"173d9d9",145,1
"1476",-1,0,938,13,13,1,"173d9d9",146,1
"1486",-1,0,771,13,10,1,"173d9d9",147,1
"1496",-1,0,733,10,10,1,"173d9d9",148,1
"1506",-1,-1,0,10,3,1,"173d9d9",149,1
"15110",-1,-1,0,3,3,1,"173d9d9",150,1
"1526",-1,-1,0,3,4,1,"173d9d9",151,1
"1536",-1,-1,0,4,17,1,"173d9d9",152,1
"1546",-1,0,1038,17,16,1,"173d9d9",153,1
"1556",-1,0,1183,16,12,1,"173d9d9",154,1
"1566",-1,0,1705,12,9,1,"173d9d9",155,1
"1576",-1,0,612,9,9,1,"173d9d9",156,1
"1586",-1,0,1197,9,15,1,"173d9d9",157,1
"1596",-1,-1,0,15,6,1,"173d9d9",158,1
"1606",-1,0,1305,6,6,1,"173d9d9",159,1
"16110",-1,0,506,6,2,1,"173d9d9",160,1
"1626",-1,0,1388,2,11,1,"173d9d9",161,1
"1636",-1,0,1365,11,11,1,"173d9d9",162,1
"1646",-1,0,712,11,5,1,"173d9d9",163,1
"1656",-1,0,585,5,5,1,"173d9d9",164,1
"1666",-1,0,692,5,7,1,"173d9d9",165,1
"1676",-1,0,1094,7,7,1,"173d9d9",166,1
"1686",-1,0,800,7,3,1,"173d9d9",167,1
"1696",-1,0,824,3,1,1,"173d9d9",168,1
"1706",-1,0,1579,1,1,1,"173d9d9",169,1
"17110",-1,0,812,1,8,1,"173d9d9",170,1
"1726",-1,0,743,8,8,1,"173d9d9",171,1
"1736",-1,0,1352,8,6,1,"173d9d9",172,1
"1746",-1,0,699,6,6,1,"173d9d9",173,1
"1756",-1,0,676,6,2,1,"173d9d9",174,1
"1766",-1,-1,0,2,2,1,"173d9d9",175,1
"1776",-1,0,703,2,14,1,"173d9d9",176,1
"1786",-1,0,1177,14,14,1,"173d9d9",177,1
"1796",-1,0,1044,14,10,1,"173d9d9",178,1
"1806",-1,-1,0,10,10,1,"173d9d9",179,1
"18110",-1,-1,0,10,12,1,"173d9d9",180,1
"1826",-1,-1,0,12,4,1,"173d9d9",181,1
"1836",-1,-1,0,4,4,1,"173d9d9",182,1
"1846",-1,-1,0,4,9,1,"173d9d9",183,1
"1856",-1,-1,0,9,9,1,"173d9d9",184,1
"1866",-1,-1,0,9,15,1,"173d9d9",185,1
"1876",-1,-1,0,15,15,1,"173d9d9",186,1
"1886",-1,-1,0,15,18,1,"173d9d9",187,1
"1896",-1,-1,0,18,18,1,"173d9d9",188,1
"1906",-1,-1,0,18,11,1,"173d9d9",189,1
"19110",-1,-1,0,11,16,1,"173d9d9",190,1
"1926",-1,-1,0,16,16,1,"173d9d9",191,1
"1936",-1,-1,0,16,7,1,"173d9d9",192,1
"1946",-1,-1,0,7,5,1,"173d9d9",193,1
"1956",-1,-1,0,5,13,1,"173d9d9",194,1
"1966",-1,-1,0,13,17,1,"173d9d9",195,1
"1976",-1,-1,0,17,17,1,"173d9d9",196,1
"1986",-1,-1,0,17,17,1,"173d9d9",197,1
"1996",-1,-1,0,17,17,1,"173d9d9",198,1
"2006",-1,-1,0,17,18,1,"173d9d9",199,1
"20110",-1,-1,0,18,18,1,"173d9d9",200,1
"2026",-1,-1,0,18,6,1,"173d9d9",201,1
"2036",-1,-1,0,6,9,1,"173d9d9",202,1
"2046",-1,-1,0,9,9,1,"173d9d9",203,1
"2056",-1,-1,0,9,3,1,"173d9d9",204,1
"2066",-1,-1,0,3,3,1,"173d9d9",205,1
"2076",-1,-1,0,3,7,1,"173d9d9",206,1
"2086",-1,-1,0,7,12,1,"173d9d9",207,1
"2096",-1,-1,0,12,12,1,"173d9d9",208,1
"2106",-1,-1,0,12,16,1,"173d9d9",209,1
"21110",-1,-1,0,16,14,1,"173d9d9",210,1
"2126",-1,-1,0,14,14,1,"173d9d9",211,1
"2136",-1,-1,0,14,5,1,"173d9d9",212,1
"2146",-1,-1,0,5,8,1,"173d9d9",213,1
"2155",-1,-1,0,8,11,1,"173d9d9",214,1
"2165",-1,-1,0,11,11,1,"173d9d9",215,1
"2175",-1,-1,0,11,2,1,"173d9d9",216,1
"2185",-1,-1,0,2,2,1,"173d9d9",217,1
"2195",-1,-1,0,2,13,1,"173d9d9",218,1
"2205",-1,-1,0,13,13,1,"173d9d9",219,1
"22110",-1,-1,0,13,10,1,"173d9d9",220,1
"2225",-1,-1,0,10,1,1,"173d9d9",221,1
"2235",-1,-1,0,1,15,1,"173d9d9",222,1
"2245",-1,-1,0,15,4,1,"173d9d9",223,1
"2255",-1,-1,0,4,7,1,"173d9d9",224,1
"2265",-1,-1,0,7,7,1,"173d9d9",225,1
"2275",-1,-1,0,7,3,1,"173d9d9",226,1
"2285",-1,-1,0,3,3,1,"173d9d9",227,1
"2295",-1,-1,0,3,8,1,"173d9d9",228,1
"2305",-1,-1,0,8,8,1,"173d9d9",229,1
"23110",-1,-1,0,8,10,1,"173d9d9",230,1
"2325",-1,-1,0,10,10,1,"173d9d9",231,1
"2335",-1,-1,0,10,5,1,"173d9d9",232,1
"2345",-1,-1,0,5,6,1,"173d9d9",233,1
"2355",-1,-1,0,6,6,1,"173d9d9",234,1
"2365",-1,-1,0,6,11,1,"173d9d9",235,1
"2375",-1,-1,0,11,12,1,"173d9d9",236,1
"2385",-1,-1,0,12,18,1,"173d9d9",237,1
"2395",-1,-1,0,18,16,1,"173d9d9",238,1
"2405",-1,-1,0,16,16,1,"173d9d9",239,1
"24110",-1,-1,0,16,4,1,"173d9d9",240,1
"2425",-1,-1,0,4,4,1,"173d9d9",241,1
"2435",-1,-1,0,4,13,1,"173d9d9",242,1
"2445",-1,-1,0,13,1,1,"173d9d9",243,1
"2455",-1,-1,0,1,9,1,"173d9d9",244,1
"2465",-1,-1,0,9,15,1,"173d9d9",245,1
"2475",-1,-1,0,15,15,1,"173d9d9",246,1
"2485",-1,-1,0,15,2,1,"173d9d9",247,1
"2495",-1,-1,0,2,2,1,"173d9d9",248,1
"2505",-1,-1,0,2,17,1,"173d9d9",249,1
"25110",-1,-1,0,17,17,1,"173d9d9",250,1
"2525",-1,-1,0,17,14,1,"173d9d9",251,1
"2535",-1,-1,0,14,14,1,"173d9d9",252,1
"2545",-1,-1,0,14,9,1,"173d9d9",253,1
"2555",-1,-1,0,9,16,1,"173d9d9",254,1
"2565",-1,-1,0,16,14,1,"173d9d9",255,1
"2575",-1,-1,0,14,15,1,"173d9d9",256,1
"2585",-1,-1,0,15,5,1,"173d9d9",257,1
"2595",-1,-1,0,5,5,1,"173d9d9",258,1
"2605",-1,-1,0,5,2,1,"173d9d9",259,1
"26110",-1,-1,0,2,2,1,"173d9d9",260,1
"2625",-1,-1,0,2,17,1,"173d9d9",261,1
"2635",-1,-1,0,17,6,1,"173d9d9",262,1
"2645",-1,-1,0,6,6,1,"173d9d9",263,1
"2654",-1,-1,0,6,1,1,"173d9d9",264,1
"2664",-1,-1,0,1,1,1,"173d9d9",265,1
"2674",-1,-1,0,1,11,1,"173d9d9",266,1
"2684",-1,-1,0,11,4,1,"173d9d9",267,1
"2694",-1,-1,0,4,12,1,"173d9d9",268,1
"2704",-1,-1,0,12,12,1,"173d9d9",269,1
"2717",-1,-1,0,12,7,1,"173d9d9",270,1
"2723",-1,0,1548,7,13,1,"173d9d9",271,1
"2732",-1,0,974,13,10,1,"173d9d9",272,1
"2742",-1,0,840,10,10,1,"173d9d9",273,1
"2751",-1,0,993,10,8,1,"173d9d9",274,1
"2761",-1,0,1107,8,3,1,"173d9d9",275,1
"2771",-1,0,900,3,18,1,"173d9d9",276,1
"289",-1,-1,0,0,9,1,"1dc293a",1,1
"327",0,1,679,9,15,1,"1dc293a",2,1
"427",0,1,1005,15,2,1,"1dc293a",3,1
"527",1,1,1224,2,2,1,"1dc293a",4,1
"627",0,1,686,2,7,1,"1dc293a",5,1
"727",0,1,990,7,11,1,"1dc293a",6,1
"827",1,0,1527,11,5,1,"1dc293a",7,1
"927",0,1,653,5,14,1,"1dc293a",8,1
"1027",1,0,1716,14,13,1,"1dc293a",9,1
"1127",0,1,1383,13,1,1,"1dc293a",10,1
"1227",0,1,773,1,18,1,"1dc293a",11,1
"1327",0,1,690,18,4,1,"1dc293a",12,1
"1427",0,1,995,4,16,1,"1dc293a",13,1
"1527",1,0,1584,16,17,1,"1dc293a",14,1
"1627",1,0,1269,17,10,1,"1dc293a",15,1
"1727",1,1,1054,10,10,1,"1dc293a",16,1
"1827",0,1,520,10,12,1,"1dc293a",17,1
"1927",0,1,1212,12,6,1,"1dc293a",18,1
"2027",1,0,808,6,3,1,"1dc293a",19,1
"2127",1,1,931,3,3,1,"1dc293a",20,1
"2220",0,1,558,3,8,1,"1dc293a",21,1
"2320",0,1,1154,8,16,1,"1dc293a",22,1
"2420",1,1,792,16,16,1,"1dc293a",23,1
"2520",1,0,882,16,15,1,"1dc293a",24,1
"2620",1,1,572,15,15,1,"1dc293a",25,1
"2718",0,1,626,15,5,1,"1dc293a",26,1
"2810",1,1,1616,5,5,1,"1dc293a",27,1
"297",0,1,639,5,14,1,"1dc293a",28,1
"307",1,1,783,14,14,1,"1dc293a",29,1
"3112",0,1,751,14,6,1,"1dc293a",30,1
"328",1,1,740,6,6,1,"1dc293a",31,1
"337",1,0,629,6,17,1,"1dc293a",32,1
"347",1,1,552,17,17,1,"1dc293a",33,1
"357",0,1,671,17,11,1,"1dc293a",34,1
"367",0,1,1454,11,8,1,"1dc293a",35,1
"377",0,1,1999,8,3,1,"1dc293a",36,1
"387",1,0,941,3,13,1,"1dc293a",37,1
"397",0,1,1509,13,10,1,"1dc293a",38,1
"407",1,1,1483,10,10,1,"1dc293a",39,1
"4112",0,1,1288,10,7,1,"1dc293a",40,1
"428",0,1,702,7,12,1,"1dc293a",41,1
"437",0,1,1662,12,4,1,"1dc293a",42,1
"447",0,1,1442,4,2,1,"1dc293a",43,1
"457",1,1,1694,2,2,1,"1dc293a",44,1
"467",0,1,1136,2,1,1,"1dc293a",45,1
"477",0,1,937,1,18,1,"1dc293a",46,1
"487",0,1,1046,18,9,1,"1dc293a",47,1
"497",0,1,758,9,17,1,"1dc293a",48,1
"507",0,1,928,17,2,1,"1dc293a",49,1
"5112",0,1,1506,2,14,1,"1dc293a",50,1
"528",0,1,792,14,18,1,"1dc293a",51,1
"537",1,1,1075,18,18,1,"1dc293a",52,1
"547",0,1,796,18,10,1,"1dc293a",53,1
"557",1,1,1421,10,10,1,"1dc293a",54,1
"567",0,1,656,10,5,1,"1dc293a",55,1
"577",0,1,1183,5,3,1,"1dc293a",56,1
"587",0,1,1197,3,13,1,"1dc293a",57,1
"597",-1,-1,0,13,13,1,"1dc293a",58,1
"607",0,1,1480,13,11,1,"1dc293a",59,1
"6112",1,1,940,11,11,1,"1dc293a",60,1
"628",0,1,938,11,7,1,"1dc293a",61,1
"637",0,1,1200,7,15,1,"1dc293a",62,1
"647",1,1,815,15,15,1,"1dc293a",63,1
"657",0,1,888,15,8,1,"1dc293a",64,1
"667",1,1,1091,8,8,1,"1dc293a",65,1
"677",0,1,999,8,1,1,"1dc293a",66,1
"687",1,1,811,1,1,1,"1dc293a",67,1
"697",0,1,899,1,16,1,"1dc293a",68,1
"707",0,1,761,16,9,1,"1dc293a",69,1
"7112",1,1,933,9,9,1,"1dc293a",70,1
"728",1,0,980,9,4,1,"1dc293a",71,1
"737",1,1,1304,4,4,1,"1dc293a",72,1
"747",0,1,1656,4,6,1,"1dc293a",73,1
"757",1,1,995,6,6,1,"1dc293a",74,1
"767",0,1,550,6,12,1,"1dc293a",75,1
"777",0,1,656,12,10,1,"1dc293a",76,1
"787",0,1,864,10,5,1,"1dc293a",77,1
"797",0,1,1080,5,17,1,"1dc293a",78,1
"807",0,1,1015,17,1,1,"1dc293a",79,1
"8112",1,1,1019,1,1,1,"1dc293a",80,1
"828",0,1,1017,1,18,1,"1dc293a",81,1
"837",0,1,1336,18,8,1,"1dc293a",82,1
"847",1,1,1545,8,8,1,"1dc293a",83,1
"857",0,1,1165,8,12,1,"1dc293a",84,1
"867",0,1,778,12,14,1,"1dc293a",85,1
"877",1,1,1204,14,14,1,"1dc293a",86,1
"887",0,1,1726,14,3,1,"1dc293a",87,1
"897",0,1,1898,3,13,1,"1dc293a",88,1
"907",1,1,982,13,13,1,"1dc293a",89,1
"9111",1,0,913,13,4,1,"1dc293a",90,1
"928",1,1,1099,4,4,1,"1dc293a",91,1
"937",0,1,1106,4,9,1,"1dc293a",92,1
"947",0,1,850,9,16,1,"1dc293a",93,1
"957",1,1,1248,16,16,1,"1dc293a",94,1
"967",-1,-1,0,16,11,1,"1dc293a",95,1
"977",1,1,1252,11,11,1,"1dc293a",96,1
"987",0,1,1103,11,2,1,"1dc293a",97,1
"997",0,1,1126,2,7,1,"1dc293a",98,1
"1007",0,1,1036,7,15,1,"1dc293a",99,1
"10111",1,1,507,15,15,1,"1dc293a",100,1
"1028",0,1,942,15,6,1,"1dc293a",101,1
"1037",1,1,680,6,6,1,"1dc293a",102,1
"1047",0,1,1172,6,4,1,"1dc293a",103,1
"1057",1,1,1043,4,4,1,"1dc293a",104,1
"1067",0,1,1635,4,18,1,"1dc293a",105,1
"1077",0,1,1530,18,2,1,"1dc293a",106,1
"1087",1,1,1671,2,2,1,"1dc293a",107,1
"1097",0,1,1501,2,6,1,"1dc293a",108,1
"1107",0,1,1349,6,14,1,"1dc293a",109,1
"11111",1,1,953,14,14,1,"1dc293a",110,1
"1128",0,1,1072,14,11,1,"1dc293a",111,1
"1137",0,1,1215,11,9,1,"1dc293a",112,1
"1147",1,1,1773,9,9,1,"1dc293a",113,1
"1157",0,1,824,9,10,1,"1dc293a",114,1
"1167",1,1,768,10,10,1,"1dc293a",115,1
"1177",0,1,713,10,3,1,"1dc293a",116,1
"1187",1,1,679,3,3,1,"1dc293a",117,1
"1197",0,1,1669,3,7,1,"1dc293a",118,1
"1207",0,1,915,7,15,1,"1dc293a",119,1
"12111",1,1,488,15,15,1,"1dc293a",120,1
"1228",0,1,1253,15,12,1,"1dc293a",121,1
"1237",1,1,751,12,12,1,"1dc293a",122,1
"1247",0,1,1242,12,8,1,"1dc293a",123,1
"1257",0,1,1137,8,1,1,"1dc293a",124,1
"1267",1,1,1381,1,1,1,"1dc293a",125,1
"1277",0,1,1009,1,5,1,"1dc293a",126,1
"1287",1,1,703,5,5,1,"1dc293a",127,1
"1297",0,1,1590,5,17,1,"1dc293a",128,1
"1307",1,1,550,17,17,1,"1dc293a",129,1
"13111",0,1,1009,17,13,1,"1dc293a",130,1
"1328",1,1,868,13,13,1,"1dc293a",131,1
"1337",0,1,538,13,16,1,"1dc293a",132,1
"1347",1,1,678,16,16,1,"1dc293a",133,1
"1357",0,1,1370,16,9,1,"1dc293a",134,1
"1367",0,1,1315,9,16,1,"1dc293a",135,1
"1377",1,1,586,16,16,1,"1dc293a",136,1
"1387",0,1,1100,16,10,1,"1dc293a",137,1
"1397",0,1,1019,10,3,1,"1dc293a",138,1
"1407",1,1,651,3,3,1,"1dc293a",139,1
"14111",0,1,1096,3,7,1,"1dc293a",140,1
"1428",0,1,1016,7,14,1,"1dc293a",141,1
"1437",0,1,782,14,18,1,"1dc293a",142,1
"1447",1,1,524,18,18,1,"1dc293a",143,1
"1457",0,1,729,18,17,1,"1dc293a",144,1
"1467",1,1,569,17,17,1,"1dc293a",145,1
"1477",0,1,1286,17,15,1,"1dc293a",146,1
"1487",1,1,927,15,15,1,"1dc293a",147,1
"1497",0,1,906,15,2,1,"1dc293a",148,1
"1507",0,1,1239,2,6,1,"1dc293a",149,1
"15111",1,1,708,6,6,1,"1dc293a",150,1
"1528",0,1,697,6,11,1,"1dc293a",151,1
"1537",0,1,1205,11,5,1,"1dc293a",152,1
"1547",0,1,1038,5,4,1,"1dc293a",153,1
"1557",1,1,765,4,4,1,"1dc293a",154,1
"1567",0,1,1238,4,1,1,"1dc293a",155,1
"1577",0,1,909,1,13,1,"1dc293a",156,1
"1587",0,1,1107,13,8,1,"1dc293a",157,1
"1597",1,1,1031,8,8,1,"1dc293a",158,1
"1607",0,1,1519,8,12,1,"1dc293a",159,1
"16111",0,1,1455,12,10,1,"1dc293a",160,1
"1628",1,1,641,10,10,1,"1dc293a",161,1
"1637",0,1,997,10,18,1,"1dc293a",162,1
"1647",0,1,939,18,15,1,"1dc293a",163,1
"1657",1,1,538,15,15,1,"1dc293a",164,1
"1667",0,1,844,15,3,1,"1dc293a",165,1
"1677",0,1,799,3,11,1,"1dc293a",166,1
"1687",1,1,1152,11,11,1,"1dc293a",167,1
"1697",1,0,604,11,12,1,"1dc293a",168,1
"1707",0,1,1008,12,14,1,"1dc293a",169,1
"17111",0,1,837,14,6,1,"1dc293a",170,1
"1728",0,1,1295,6,16,1,"1dc293a",171,1
"1737",0,1,1164,16,2,1,"1dc293a",172,1
"1747",0,1,1007,2,7,1,"1dc293a",173,1
"1757",1,0,950,7,9,1,"1dc293a",174,1
"1767",1,1,916,9,9,1,"1dc293a",175,1
"1777",0,1,735,9,5,1,"1dc293a",176,1
"1787",0,1,829,5,13,1,"1dc293a",177,1
"1797",0,1,960,13,8,1,"1dc293a",178,1
"1807",0,1,1134,8,17,1,"1dc293a",179,1
"18111",0,1,803,17,1,1,"1dc293a",180,1
"1828",1,0,785,1,4,1,"1dc293a",181,1
"1837",1,1,995,4,4,1,"1dc293a",182,1
"1847",0,1,2104,4,16,1,"1dc293a",183,1
"1857",1,1,637,16,16,1,"1dc293a",184,1
"1867",0,1,1091,16,6,1,"1dc293a",185,1
"1877",0,1,1062,6,12,1,"1dc293a",186,1
"1887",1,1,869,12,12,1,"1dc293a",187,1
"1897",0,1,1373,12,18,1,"1dc293a",188,1
"1907",0,1,1372,18,13,1,"1dc293a",189,1
"19111",1,0,1216,13,14,1,"1dc293a",190,1
"1928",0,1,905,14,4,1,"1dc293a",191,1
"1937",1,1,842,4,4,1,"1dc293a",192,1
"1947",1,0,1379,4,1,1,"1dc293a",193,1
"1957",1,1,865,1,1,1,"1dc293a",194,1
"1967",0,1,1038,1,7,1,"1dc293a",195,1
"1977",1,1,567,7,7,1,"1dc293a",196,1
"1987",0,1,756,7,3,1,"1dc293a",197,1
"1997",0,1,894,3,10,1,"1dc293a",198,1
"2007",0,1,977,10,9,1,"1dc293a",199,1
"20111",0,1,883,9,5,1,"1dc293a",200,1
"2028",0,1,656,5,11,1,"1dc293a",201,1
"2037",0,1,594,11,15,1,"1dc293a",202,1
"2047",1,1,976,15,15,1,"1dc293a",203,1
"2057",0,1,1978,15,17,1,"1dc293a",204,1
"2067",1,1,746,17,17,1,"1dc293a",205,1
"2077",0,1,895,17,8,1,"1dc293a",206,1
"2087",1,1,837,8,8,1,"1dc293a",207,1
"2097",1,0,1096,8,2,1,"1dc293a",208,1
"2107",1,1,827,2,2,1,"1dc293a",209,1
"21111",0,1,705,2,11,1,"1dc293a",210,1
"2128",1,1,1004,11,11,1,"1dc293a",211,1
"2137",0,1,855,11,18,1,"1dc293a",212,1
"2147",0,1,688,18,1,1,"1dc293a",213,1
"2156",1,1,790,1,1,1,"1dc293a",214,1
"2166",0,1,992,1,5,1,"1dc293a",215,1
"2176",1,1,1186,5,5,1,"1dc293a",216,1
"2186",0,1,745,5,14,1,"1dc293a",217,1
"2196",1,0,671,14,15,1,"1dc293a",218,1
"2206",1,1,1064,15,15,1,"1dc293a",219,1
"22111",1,0,1145,15,10,1,"1dc293a",220,1
"2226",0,1,565,10,2,1,"1dc293a",221,1
"2236",0,1,685,2,17,1,"1dc293a",222,1
"2246",0,1,928,17,4,1,"1dc293a",223,1
"2256",1,1,790,4,4,1,"1dc293a",224,1
"2266",0,1,913,4,3,1,"1dc293a",225,1
"2276",0,1,655,3,13,1,"1dc293a",226,1
"2286",0,1,594,13,6,1,"1dc293a",227,1
"2296",1,1,813,6,6,1,"1dc293a",228,1
"2306",0,1,1201,6,7,1,"1dc293a",229,1
"23111",0,1,1369,7,16,1,"1dc293a",230,1
"2326",0,1,1007,16,12,1,"1dc293a",231,1
"2336",1,1,980,12,12,1,"1dc293a",232,1
"2346",0,1,1003,12,9,1,"1dc293a",233,1
"2356",1,1,846,9,9,1,"1dc293a",234,1
"2366",0,1,852,9,8,1,"1dc293a",235,1
"2376",0,1,824,8,12,1,"1dc293a",236,1
"2386",0,1,1031,12,18,1,"1dc293a",237,1
"2396",0,1,729,18,1,1,"1dc293a",238,1
"2406",1,1,664,1,1,1,"1dc293a",239,1
"24111",0,1,854,1,8,1,"1dc293a",240,1
"2426",1,1,681,8,8,1,"1dc293a",241,1
"2436",0,1,1296,8,17,1,"1dc293a",242,1
"2446",0,1,665,17,11,1,"1dc293a",243,1
"2456",0,1,627,11,14,1,"1dc293a",244,1
"2466",0,1,652,14,2,1,"1dc293a",245,1
"2476",0,1,559,2,10,1,"1dc293a",246,1
"2486",1,1,792,10,10,1,"1dc293a",247,1
"2496",0,1,722,10,4,1,"1dc293a",248,1
"2506",0,1,821,4,7,1,"1dc293a",249,1
"25111",1,1,1250,7,7,1,"1dc293a",250,1
"2526",0,1,623,7,5,1,"1dc293a",251,1
"2536",0,1,497,5,15,1,"1dc293a",252,1
"2546",1,1,594,15,15,1,"1dc293a",253,1
"2556",0,1,727,15,9,1,"1dc293a",254,1
"2566",0,1,812,9,6,1,"1dc293a",255,1
"2576",1,1,894,6,6,1,"1dc293a",256,1
"2586",1,0,1051,6,16,1,"1dc293a",257,1
"2596",1,1,917,16,16,1,"1dc293a",258,1
"2606",0,1,736,16,13,1,"1dc293a",259,1
"26111",0,1,890,13,3,1,"1dc293a",260,1
"2626",1,1,731,3,3,1,"1dc293a",261,1
"290",-1,-1,0,0,18,1,"10573a7",1,1
"329",0,1,1248,18,17,1,"10573a7",2,1
"429",0,1,1534,17,5,1,"10573a7",3,1
"529",1,0,1101,5,2,1,"10573a7",4,1
"629",1,1,2154,2,2,1,"10573a7",5,1
"729",0,1,748,2,6,1,"10573a7",6,1
"829",0,1,1601,6,10,1,"10573a7",7,1
"929",1,0,1344,10,16,1,"10573a7",8,1
"1029",-1,-1,0,16,16,1,"10573a7",9,1
"1129",0,1,1424,16,9,1,"10573a7",10,1
"1229",0,1,1927,9,3,1,"10573a7",11,1
"1329",0,1,893,3,12,1,"10573a7",12,1
"1429",0,1,872,12,14,1,"10573a7",13,1
"1529",1,1,781,14,14,1,"10573a7",14,1
"1629",0,1,1043,14,11,1,"10573a7",15,1
"1729",1,0,1045,11,1,1,"10573a7",16,1
"1829",0,0,1868,1,1,1,"10573a7",17,1
"1929",0,1,809,1,15,1,"10573a7",18,1
"2029",1,0,1437,15,7,1,"10573a7",19,1
"2129",0,0,1785,7,7,1,"10573a7",20,1
"2227",1,0,1768,7,13,1,"10573a7",21,1
"2327",1,1,1351,13,13,1,"10573a7",22,1
"2427",0,1,901,13,4,1,"10573a7",23,1
"2527",0,1,1478,4,8,1,"10573a7",24,1
"2627",1,1,1046,8,8,1,"10573a7",25,1
"2719",0,1,1398,8,5,1,"10573a7",26,1
"2811",0,1,1520,5,9,1,"10573a7",27,1
"298",1,1,1568,9,9,1,"10573a7",28,1
"308",0,1,1138,9,3,1,"10573a7",29,1
"3113",1,1,1535,3,3,1,"10573a7",30,1
"3210",0,1,1380,3,1,1,"10573a7",31,1
"338",1,1,1461,1,1,1,"10573a7",32,1
"348",0,1,1128,1,16,1,"10573a7",33,1
"358",1,1,1353,16,16,1,"10573a7",34,1
"368",0,1,1163,16,2,1,"10573a7",35,1
"378",0,1,1759,2,12,1,"10573a7",36,1
"388",1,1,1093,12,12,1,"10573a7",37,1
"398",0,1,1096,12,13,1,"10573a7",38,1
"408",0,1,1458,13,8,1,"10573a7",39,1
"4113",1,1,2301,8,8,1,"10573a7",40,1
"4210",0,1,994,8,14,1,"10573a7",41,1
"438",0,1,929,14,11,1,"10573a7",42,1
"448",1,1,936,11,11,1,"10573a7",43,1
"458",0,1,1466,11,4,1,"10573a7",44,1
"468",1,1,1387,4,4,1,"10573a7",45,1
"478",0,1,1210,4,18,1,"10573a7",46,1
"488",1,1,1072,18,18,1,"10573a7",47,1
"498",0,1,925,18,17,1,"10573a7",48,1
"508",1,0,932,17,6,1,"10573a7",49,1
"5113",0,1,1515,6,7,1,"10573a7",50,1
"5210",1,0,892,7,15,1,"10573a7",51,1
"538",1,0,1521,15,10,1,"10573a7",52,1
"548",-1,-1,0,10,10,1,"10573a7",53,1
"558",0,1,1216,10,4,1,"10573a7",54,1
"568",1,1,1153,4,4,1,"10573a7",55,1
"578",0,1,1131,4,3,1,"10573a7",56,1
"588",0,1,1004,3,17,1,"10573a7",57,1
"598",1,1,2060,17,17,1,"10573a7",58,1
"608",0,1,1433,17,9,1,"10573a7",59,1
"6113",0,1,1315,9,11,1,"10573a7",60,1
"6210",-1,-1,0,11,11,1,"10573a7",61,1
"638",1,0,896,11,8,1,"10573a7",62,1
"648",0,1,1353,8,12,1,"10573a7",63,1
"658",0,1,1052,12,18,1,"10573a7",64,1
"668",1,1,940,18,18,1,"10573a7",65,1
"678",0,1,810,18,2,1,"10573a7",66,1
"688",1,1,1035,2,2,1,"10573a7",67,1
"698",0,1,734,2,13,1,"10573a7",68,1
"708",1,1,1070,13,13,1,"10573a7",69,1
"7113",0,1,1528,13,14,1,"10573a7",70,1
"7210",0,1,1106,14,5,1,"10573a7",71,1
"738",1,1,1093,5,5,1,"10573a7",72,1
"748",0,1,1110,5,10,1,"10573a7",73,1
"758",1,1,1035,10,10,1,"10573a7",74,1
"768",0,1,1116,10,6,1,"10573a7",75,1
"778",1,1,1075,6,6,1,"10573a7",76,1
"788",1,0,1627,6,15,1,"10573a7",77,1
"798",0,1,887,15,1,1,"10573a7",78,1
"808",1,1,854,1,1,1,"10573a7",79,1
"8113",0,1,825,1,7,1,"10573a7",80,1
"8210",0,1,852,7,16,1,"10573a7",81,1
"838",1,1,741,16,16,1,"10573a7",82,1
"848",1,0,876,16,14,1,"10573a7",83,1
"858",1,1,590,14,14,1,"10573a7",84,1
"868",0,1,1148,14,17,1,"10573a7",85,1
"878",0,1,923,17,7,1,"10573a7",86,1
"888",0,1,1079,7,4,1,"10573a7",87,1
"898",0,1,955,4,5,1,"10573a7",88,1
"908",1,1,690,5,5,1,"10573a7",89,1
"9112",0,1,760,5,3,1,"10573a7",90,1
"9210",1,1,862,3,3,1,"10573a7",91,1
"938",0,1,678,3,13,1,"10573a7",92,1
"948",1,1,782,13,13,1,"10573a7",93,1
"958",0,1,796,13,11,1,"10573a7",94,1
"968",1,0,801,11,12,1,"10573a7",95,1
"978",1,1,1009,12,12,1,"10573a7",96,1
"988",0,1,628,12,2,1,"10573a7",97,1
"998",0,1,828,2,10,1,"10573a7",98,1
"1008",0,1,1009,10,18,1,"10573a7",99,1
"10112",1,1,875,18,18,1,"10573a7",100,1
"10210",0,1,778,18,8,1,"10573a7",101,1
"1038",0,1,841,8,15,1,"10573a7",102,1
"1048",0,1,802,15,1,1,"10573a7",103,1
"1058",0,0,1228,1,1,1,"10573a7",104,1
"1068",1,0,1007,1,9,1,"10573a7",105,1
"1078",0,1,903,9,6,1,"10573a7",106,1
"1088",1,1,912,6,6,1,"10573a7",107,1
"1098",1,0,2203,6,16,1,"10573a7",108,1
"1108",0,1,975,16,15,1,"10573a7",109,1
"11112",1,1,795,15,15,1,"10573a7",110,1
"11210",0,1,884,15,8,1,"10573a7",111,1
"1138",0,1,790,8,18,1,"10573a7",112,1
"1148",0,1,702,18,10,1,"10573a7",113,1
"1158",1,1,800,10,10,1,"10573a7",114,1
"1168",0,1,1581,10,17,1,"10573a7",115,1
"1178",0,1,766,17,5,1,"10573a7",116,1
"1188",1,1,859,5,5,1,"10573a7",117,1
"1198",0,1,1057,5,3,1,"10573a7",118,1
"1208",1,1,860,3,3,1,"10573a7",119,1
"12112",1,0,745,3,6,1,"10573a7",120,1
"12210",1,1,1248,6,6,1,"10573a7",121,1
"1238",0,1,782,6,14,1,"10573a7",122,1
"1248",1,0,1730,14,9,1,"10573a7",123,1
"1258",1,1,1634,9,9,1,"10573a7",124,1
"1268",0,1,798,9,4,1,"10573a7",125,1
"1278",0,0,2184,4,4,1,"10573a7",126,1
"1288",0,1,973,4,16,1,"10573a7",127,1
"1298",0,1,667,16,12,1,"10573a7",128,1
"1308",1,1,688,12,12,1,"10573a7",129,1
"13112",1,0,623,12,2,1,"10573a7",130,1
"13210",1,1,1851,2,2,1,"10573a7",131,1
"1338",0,1,786,2,13,1,"10573a7",132,1
"1348",1,1,857,13,13,1,"10573a7",133,1
"1358",0,1,706,13,7,1,"10573a7",134,1
"1368",0,0,846,7,7,1,"10573a7",135,1
"1378",0,1,1049,7,1,1,"10573a7",136,1
"1388",1,1,955,1,1,1,"10573a7",137,1
"1398",0,1,1027,1,11,1,"10573a7",138,1
"1408",0,1,742,11,6,1,"10573a7",139,1
"14112",0,1,760,6,8,1,"10573a7",140,1
"14210",0,0,1282,8,8,1,"10573a7",141,1
"1438",1,0,643,8,5,1,"10573a7",142,1
"1448",0,0,955,5,5,1,"10573a7",143,1
"1458",0,1,930,5,10,1,"10573a7",144,1
"1468",0,1,1321,10,11,1,"10573a7",145,1
"1478",0,1,1117,11,17,1,"10573a7",146,1
"1488",0,1,1181,17,4,1,"10573a7",147,1
"1498",1,0,1480,4,14,1,"10573a7",148,1
"1508",0,0,1050,14,14,1,"10573a7",149,1
"15112",0,1,918,14,2,1,"10573a7",150,1
"15210",1,1,1617,2,2,1,"10573a7",151,1
"1538",0,1,578,2,15,1,"10573a7",152,1
"1548",1,0,884,15,3,1,"10573a7",153,1
"1558",0,0,1763,3,3,1,"10573a7",154,1
"1568",0,1,826,3,18,1,"10573a7",155,1
"1578",0,1,771,18,9,1,"10573a7",156,1
"1588",0,1,937,9,16,1,"10573a7",157,1
"1598",0,1,754,16,13,1,"10573a7",158,1
"1608",0,1,1977,13,1,1,"10573a7",159,1
"16112",1,1,781,1,1,1,"10573a7",160,1
"16210",0,1,1171,1,12,1,"10573a7",161,1
"1638",0,1,744,12,7,1,"10573a7",162,1
"1648",0,0,1135,7,7,1,"10573a7",163,1
"1658",0,1,1049,7,14,1,"10573a7",164,1
"1668",0,1,802,14,5,1,"10573a7",165,1
"1678",0,1,876,5,15,1,"10573a7",166,1
"1688",0,1,710,15,11,1,"10573a7",167,1
"1698",0,1,712,11,13,1,"10573a7",168,1
"1708",1,0,735,13,10,1,"10573a7",169,1
"17112",1,1,960,10,10,1,"10573a7",170,1
"17210",0,1,767,10,9,1,"10573a7",171,1
"1738",1,1,1793,9,9,1,"10573a7",172,1
"1748",0,1,880,9,1,1,"10573a7",173,1
"1758",0,0,1840,1,1,1,"10573a7",174,1
"1768",0,1,832,1,18,1,"10573a7",175,1
"1778",1,1,961,18,18,1,"10573a7",176,1
"1788",0,1,638,18,3,1,"10573a7",177,1
"1798",0,1,960,3,2,1,"10573a7",178,1
"1808",0,1,1478,2,7,1,"10573a7",179,1
"18112",0,1,776,7,12,1,"10573a7",180,1
"18210",1,0,731,12,8,1,"10573a7",181,1
"1838",1,1,1344,8,8,1,"10573a7",182,1
"1848",0,1,947,8,16,1,"10573a7",183,1
"1858",1,1,816,16,16,1,"10573a7",184,1
"1868",0,1,1876,16,6,1,"10573a7",185,1
"1878",0,1,1212,6,17,1,"10573a7",186,1
"1888",0,1,836,17,4,1,"10573a7",187,1
"1898",1,1,1773,4,4,1,"10573a7",188,1
"1908",1,1,1349,4,4,1,"10573a7",189,1
"19112",0,1,704,4,18,1,"10573a7",190,1
"19210",1,1,1182,18,18,1,"10573a7",191,1
"1938",0,1,632,18,3,1,"10573a7",192,1
"1948",1,1,1737,3,3,1,"10573a7",193,1
"1958",0,1,891,3,13,1,"10573a7",194,1
"1968",0,1,674,13,2,1,"10573a7",195,1
"1978",0,1,1062,2,11,1,"10573a7",196,1
"1988",1,1,738,11,11,1,"10573a7",197,1
"1998",0,1,1616,11,14,1,"10573a7",198,1
"2008",1,1,738,14,14,1,"10573a7",199,1
"20112",0,1,1357,14,6,1,"10573a7",200,1
"20210",0,1,957,6,1,1,"10573a7",201,1
"2038",1,1,752,1,1,1,"10573a7",202,1
"2048",0,1,911,1,16,1,"10573a7",203,1
"2058",0,1,880,16,7,1,"10573a7",204,1
"2068",0,1,932,7,8,1,"10573a7",205,1
"2078",0,1,687,8,15,1,"10573a7",206,1
"2088",0,1,820,15,5,1,"10573a7",207,1
"2098",1,1,744,5,5,1,"10573a7",208,1
"2108",0,1,859,5,10,1,"10573a7",209,1
"21112",1,0,794,10,17,1,"10573a7",210,1
"21210",0,1,865,17,12,1,"10573a7",211,1
"2138",1,1,739,12,12,1,"10573a7",212,1
"2148",0,1,1344,12,9,1,"10573a7",213,1
"2157",0,1,929,9,3,1,"10573a7",214,1
"2167",1,0,1154,3,17,1,"10573a7",215,1
"2177",1,0,713,17,6,1,"10573a7",216,1
"2187",1,1,1537,6,6,1,"10573a7",217,1
"2197",0,1,873,6,10,1,"10573a7",218,1
"2207",0,1,2027,10,15,1,"10573a7",219,1
"22112",0,1,877,15,4,1,"10573a7",220,1
"2228",0,1,1516,4,9,1,"10573a7",221,1
"2237",0,0,1492,9,9,1,"10573a7",222,1
"2247",0,1,1030,9,13,1,"10573a7",223,1
"2257",0,1,782,13,7,1,"10573a7",224,1
"2267",1,1,722,7,7,1,"10573a7",225,1
"2277",0,1,727,7,1,1,"10573a7",226,1
"2287",1,1,1024,1,1,1,"10573a7",227,1
"2297",0,1,822,1,12,1,"10573a7",228,1
"2307",0,1,1248,12,2,1,"10573a7",229,1
"23112",1,1,823,2,2,1,"10573a7",230,1
"2328",0,1,719,2,16,1,"10573a7",231,1
"2337",0,0,1675,16,16,1,"10573a7",232,1
"2347",0,1,912,16,14,1,"10573a7",233,1
"2357",1,1,622,14,14,1,"10573a7",234,1
"2367",0,1,866,14,18,1,"10573a7",235,1
"2377",1,1,794,18,18,1,"10573a7",236,1
"2387",0,1,1302,18,8,1,"10573a7",237,1
"2397",1,1,692,8,8,1,"10573a7",238,1
"2407",1,0,1373,8,5,1,"10573a7",239,1
"24112",0,1,769,5,11,1,"10573a7",240,1
"2428",0,0,1460,11,11,1,"10573a7",241,1
"2437",0,1,810,11,4,1,"10573a7",242,1
"2447",1,1,627,4,4,1,"10573a7",243,1
"2457",0,1,767,4,3,1,"10573a7",244,1
"2467",1,1,866,3,3,1,"10573a7",245,1
"2477",1,0,785,3,7,1,"10573a7",246,1
"2487",0,1,792,7,12,1,"10573a7",247,1
"2497",0,1,1004,12,9,1,"10573a7",248,1
"2507",1,1,1080,9,9,1,"10573a7",249,1
"25112",0,1,768,9,16,1,"10573a7",250,1
"2528",1,0,628,16,11,1,"10573a7",251,1
"2537",1,0,981,11,18,1,"10573a7",252,1
"2547",0,1,1212,18,1,1,"10573a7",253,1
"2557",0,1,1121,1,6,1,"10573a7",254,1
"2567",0,1,1707,6,14,1,"10573a7",255,1
"2577",1,0,688,14,13,1,"10573a7",256,1
"2587",1,1,1895,13,13,1,"10573a7",257,1
"2597",1,0,1294,13,15,1,"10573a7",258,1
"2607",1,1,1404,15,15,1,"10573a7",259,1
"26112",1,0,2079,15,10,1,"10573a7",260,1
"2628",0,1,867,10,5,1,"10573a7",261,1
"2636",0,1,1187,5,17,1,"10573a7",262,1
"2646",1,1,807,17,17,1,"10573a7",263,1
"2655",0,1,715,17,8,1,"10573a7",264,1
"2665",1,0,1594,8,2,1,"10573a7",265,1
"299",1,0,1082,0,14,1,"1c7653e",1,1
"330",1,1,1407,14,14,1,"1c7653e",2,1
"430",0,1,530,14,3,1,"1c7653e",3,1
"530",1,0,522,3,11,1,"1c7653e",4,1
"630",1,1,416,11,11,1,"1c7653e",5,1
"730",0,1,653,11,10,1,"1c7653e",6,1
"830",0,1,292,10,2,1,"1c7653e",7,1
"930",1,1,94,2,2,1,"1c7653e",8,1
"1030",1,0,269,2,16,1,"1c7653e",9,1
"1130",1,1,537,16,16,1,"1c7653e",10,1
"1230",0,1,301,16,18,1,"1c7653e",11,1
"1330",0,1,498,18,6,1,"1c7653e",12,1
"1430",0,1,299,6,5,1,"1c7653e",13,1
"1530",1,1,317,5,5,1,"1c7653e",14,1
"1630",1,0,326,5,1,1,"1c7653e",15,1
"1730",0,0,309,1,1,1,"1c7653e",16,1
"1830",0,1,296,1,12,1,"1c7653e",17,1
"1930",0,1,188,12,8,1,"1c7653e",18,1
"2030",0,1,21,8,17,1,"1c7653e",19,1
"2130",1,1,382,17,17,1,"1c7653e",20,1
"2229",1,0,339,17,9,1,"1c7653e",21,1
"2329",0,0,2254,9,9,1,"1c7653e",22,1
"2429",1,0,150,9,7,1,"1c7653e",23,1
"2529",1,1,467,7,7,1,"1c7653e",24,1
"2629",0,1,280,7,15,1,"1c7653e",25,1
"2720",0,1,422,15,4,1,"1c7653e",26,1
"2812",1,0,340,4,13,1,"1c7653e",27,1
"2910",1,1,863,13,13,1,"1c7653e",28,1
"309",1,0,883,13,10,1,"1c7653e",29,1
"3114",1,0,542,10,13,1,"1c7653e",30,1
"3211",1,1,425,13,13,1,"1c7653e",31,1
"339",0,1,510,13,17,1,"1c7653e",32,1
"349",0,0,1272,17,17,1,"1c7653e",33,1
"359",0,1,327,17,5,1,"1c7653e",34,1
"369",1,1,374,5,5,1,"1c7653e",35,1
"379",0,1,679,5,6,1,"1c7653e",36,1
"389",1,1,486,6,6,1,"1c7653e",37,1
"399",0,1,1325,6,8,1,"1c7653e",38,1
"409",0,0,1298,8,8,1,"1c7653e",39,1
"4114",0,1,470,8,18,1,"1c7653e",40,1
"4211",1,1,757,18,18,1,"1c7653e",41,1
"439",0,1,1918,18,14,1,"1c7653e",42,1
"449",1,0,425,14,12,1,"1c7653e",43,1
"459",1,0,809,12,4,1,"1c7653e",44,1
"469",1,0,325,4,9,1,"1c7653e",45,1
"479",1,1,439,9,9,1,"1c7653e",46,1
"489",0,1,1018,9,2,1,"1c7653e",47,1
"499",0,0,1537,2,2,1,"1c7653e",48,1
"509",0,1,1474,2,11,1,"1c7653e",49,1
"5114",1,0,801,11,1,1,"1c7653e",50,1
"5211",-1,-1,0,1,1,1,"1c7653e",51,1
"539",0,1,1384,1,15,1,"1c7653e",52,1
"549",1,1,2211,15,15,1,"1c7653e",53,1
"559",-1,-1,0,15,3,1,"1c7653e",54,1
"569",0,1,452,3,7,1,"1c7653e",55,1
"579",0,1,585,7,16,1,"1c7653e",56,1
"589",1,1,838,16,16,1,"1c7653e",57,1
"599",-1,-1,0,16,14,1,"1c7653e",58,1
"609",1,0,1682,14,17,1,"1c7653e",59,1
"6114",0,1,936,17,5,1,"1c7653e",60,1
"6211",0,1,1041,5,7,1,"1c7653e",61,1
"639",1,1,427,7,7,1,"1c7653e",62,1
"649",0,1,1926,7,13,1,"1c7653e",63,1
"659",-1,-1,0,13,12,1,"1c7653e",64,1
"669",0,1,577,12,11,1,"1c7653e",65,1
"679",1,0,502,11,9,1,"1c7653e",66,1
"689",1,1,665,9,9,1,"1c7653e",67,1
"699",0,1,449,9,1,1,"1c7653e",68,1
"709",0,0,726,1,1,1,"1c7653e",69,1
"7114",0,1,614,1,18,1,"1c7653e",70,1
"7211",1,0,1411,18,4,1,"1c7653e",71,1
"739",1,0,2170,4,15,1,"1c7653e",72,1
"749",0,0,2229,15,15,1,"1c7653e",73,1
"759",-1,-1,0,15,3,1,"1c7653e",74,1
"769",0,0,1356,3,3,1,"1c7653e",75,1
"779",1,0,839,3,6,1,"1c7653e",76,1
"789",1,0,623,6,10,1,"1c7653e",77,1
"799",1,0,776,10,8,1,"1c7653e",78,1
"809",1,1,556,8,8,1,"1c7653e",79,1
"8114",0,1,614,8,16,1,"1c7653e",80,1
"8211",-1,-1,0,16,2,1,"1c7653e",81,1
"839",-1,-1,0,2,2,1,"1c7653e",82,1
"849",-1,-1,0,2,9,1,"1c7653e",83,1
"859",0,1,1461,9,13,1,"1c7653e",84,1
"869",-1,-1,0,13,8,1,"1c7653e",85,1
"879",-1,-1,0,8,8,1,"1c7653e",86,1
"889",-1,-1,0,8,11,1,"1c7653e",87,1
"899",-1,-1,0,11,11,1,"1c7653e",88,1
"909",1,0,543,11,2,1,"1c7653e",89,1
"9113",0,0,1569,2,2,1,"1c7653e",90,1
"9211",-1,-1,0,2,1,1,"1c7653e",91,1
"939",0,0,1189,1,1,1,"1c7653e",92,1
"949",-1,-1,0,1,7,1,"1c7653e",93,1
"959",-1,-1,0,7,10,1,"1c7653e",94,1
"969",1,0,447,10,12,1,"1c7653e",95,1
"979",0,0,172,12,12,1,"1c7653e",96,1
"989",0,1,323,12,3,1,"1c7653e",97,1
"999",-1,-1,0,3,3,1,"1c7653e",98,1
"1009",0,1,269,3,16,1,"1c7653e",99,1
"10113",0,1,414,16,6,1,"1c7653e",100,1
"10211",-1,-1,0,6,4,1,"1c7653e",101,1
"1039",-1,-1,0,4,5,1,"1c7653e",102,1
"1049",0,0,1870,5,5,1,"1c7653e",103,1
"1059",-1,-1,0,5,17,1,"1c7653e",104,1
"1069",0,1,2172,17,18,1,"1c7653e",105,1
"1079",-1,-1,0,18,18,1,"1c7653e",106,1
"1089",-1,-1,0,18,15,1,"1c7653e",107,1
"1099",-1,-1,0,15,14,1,"1c7653e",108,1
"1109",0,0,707,14,14,1,"1c7653e",109,1
"11113",0,1,563,14,5,1,"1c7653e",110,1
"11211",1,1,1606,5,5,1,"1c7653e",111,1
"1139",-1,-1,0,5,13,1,"1c7653e",112,1
"1149",-1,-1,0,13,10,1,"1c7653e",113,1
"1159",-1,-1,0,10,10,1,"1c7653e",114,1
"1169",0,1,2008,10,2,1,"1c7653e",115,1
"1179",-1,-1,0,2,9,1,"1c7653e",116,1
"1189",0,0,2404,9,9,1,"1c7653e",117,1
"1199",1,0,2489,9,16,1,"1c7653e",118,1
"1209",-1,-1,0,16,16,1,"1c7653e",119,1
"12113",0,1,230,16,14,1,"1c7653e",120,1
"12211",1,1,230,14,14,1,"1c7653e",121,1
"1239",0,1,404,14,15,1,"1c7653e",122,1
"1249",0,0,663,15,15,1,"1c7653e",123,1
"1259",1,0,1031,15,7,1,"1c7653e",124,1
"1269",1,0,439,7,8,1,"1c7653e",125,1
"1279",1,0,466,8,4,1,"1c7653e",126,1
"1289",1,0,95,4,11,1,"1c7653e",127,1
"1299",1,1,498,11,11,1,"1c7653e",128,1
"1309",0,1,994,11,17,1,"1c7653e",129,1
"13113",0,0,672,17,17,1,"1c7653e",130,1
"13211",0,1,1160,17,1,1,"1c7653e",131,1
"1339",1,1,712,1,1,1,"1c7653e",132,1
"1349",1,0,839,1,18,1,"1c7653e",133,1
"1359",1,1,533,18,18,1,"1c7653e",134,1
"1369",0,1,609,18,3,1,"1c7653e",135,1
"1379",1,0,841,3,6,1,"1c7653e",136,1
"1389",1,1,822,6,6,1,"1c7653e",137,1
"1399",0,1,1081,6,12,1,"1c7653e",138,1
"1409",1,0,1086,12,16,1,"1c7653e",139,1
"14113",1,1,950,16,16,1,"1c7653e",140,1
"14211",1,0,473,16,3,1,"1c7653e",141,1
"1439",1,1,636,3,3,1,"1c7653e",142,1
"1449",0,1,756,3,7,1,"1c7653e",143,1
"1459",1,1,667,7,7,1,"1c7653e",144,1
"1469",0,1,1265,7,2,1,"1c7653e",145,1
"1479",0,1,1841,2,11,1,"1c7653e",146,1
"1489",1,1,1107,11,11,1,"1c7653e",147,1
"1499",0,1,1381,11,12,1,"1c7653e",148,1
"1509",1,1,734,12,12,1,"1c7653e",149,1
"15113",0,1,972,12,4,1,"1c7653e",150,1
"15211",1,1,690,4,4,1,"1c7653e",151,1
"1539",1,0,1441,4,9,1,"1c7653e",152,1
"1549",1,1,991,9,9,1,"1c7653e",153,1
"1559",0,1,711,9,5,1,"1c7653e",154,1
"1569",0,1,1697,5,17,1,"1c7653e",155,1
"1579",-1,-1,0,17,17,1,"1c7653e",156,1
"1589",0,1,634,17,10,1,"1c7653e",157,1
"1599",1,1,1038,10,10,1,"1c7653e",158,1
"1609",0,1,1724,10,8,1,"1c7653e",159,1
"16113",1,0,1492,8,13,1,"1c7653e",160,1
"16211",1,1,768,13,13,1,"1c7653e",161,1
"1639",0,1,770,13,18,1,"1c7653e",162,1
"1649",0,1,1340,18,14,1,"1c7653e",163,1
"1659",1,0,497,14,15,1,"1c7653e",164,1
"1669",1,0,1819,15,6,1,"1c7653e",165,1
"1679",0,1,1594,6,1,1,"1c7653e",166,1
"1689",0,0,1826,1,1,1,"1c7653e",167,1
"1699",1,0,710,1,17,1,"1c7653e",168,1
"1709",1,1,408,17,17,1,"1c7653e",169,1
"17113",1,0,1249,17,14,1,"1c7653e",170,1
"17211",0,1,635,14,12,1,"1c7653e",171,1
"1739",0,1,2166,12,15,1,"1c7653e",172,1
"1749",0,1,1062,15,9,1,"1c7653e",173,1
"1759",1,1,859,9,9,1,"1c7653e",174,1
"1769",0,1,939,9,18,1,"1c7653e",175,1
"1779",0,1,1784,18,6,1,"1c7653e",176,1
"1789",0,1,1366,6,1,1,"1c7653e",177,1
"1799",1,1,1579,1,1,1,"1c7653e",178,1
"1809",0,1,1269,1,8,1,"1c7653e",179,1
"18113",0,1,846,8,13,1,"1c7653e",180,1
"18211",1,1,1200,13,13,1,"1c7653e",181,1
"1839",1,0,1689,13,7,1,"1c7653e",182,1
"1849",-1,-1,0,7,7,1,"1c7653e",183,1
"1859",0,1,441,7,10,1,"1c7653e",184,1
"1869",0,0,678,10,10,1,"1c7653e",185,1
"1879",1,0,664,10,3,1,"1c7653e",186,1
"1889",0,1,608,3,4,1,"1c7653e",187,1
"1899",0,1,958,4,16,1,"1c7653e",188,1
"1909",0,0,918,16,16,1,"1c7653e",189,1
"19113",0,1,753,16,5,1,"1c7653e",190,1
"19211",0,1,771,5,2,1,"1c7653e",191,1
"1939",1,1,451,2,2,1,"1c7653e",192,1
"1949",0,1,761,2,11,1,"1c7653e",193,1
"1959",0,0,648,11,11,1,"1c7653e",194,1
"1969",0,1,799,11,9,1,"1c7653e",195,1
"1979",0,1,677,9,18,1,"1c7653e",196,1
"1989",1,1,425,18,18,1,"1c7653e",197,1
"1999",0,1,689,18,1,1,"1c7653e",198,1
"2009",1,1,429,1,1,1,"1c7653e",199,1
"20113",0,1,807,1,16,1,"1c7653e",200,1
"20211",0,0,612,16,16,1,"1c7653e",201,1
"2039",0,1,1041,16,8,1,"1c7653e",202,1
"2049",1,0,1010,8,12,1,"1c7653e",203,1
"2059",1,1,786,12,12,1,"1c7653e",204,1
"2069",0,1,724,12,5,1,"1c7653e",205,1
"2079",1,1,923,5,5,1,"1c7653e",206,1
"2089",0,1,892,5,2,1,"1c7653e",207,1
"2099",0,1,879,2,11,1,"1c7653e",208,1
"2109",0,1,675,11,4,1,"1c7653e",209,1
"21113",1,1,751,4,4,1,"1c7653e",210,1
"21211",1,0,744,4,15,1,"1c7653e",211,1
"2139",0,1,331,15,14,1,"1c7653e",212,1
"2149",0,0,396,14,14,1,"1c7653e",213,1
"2158",1,0,432,14,17,1,"1c7653e",214,1
"2168",1,1,643,17,17,1,"1c7653e",215,1
"2178",1,0,855,17,3,1,"1c7653e",216,1
"2188",0,1,554,3,13,1,"1c7653e",217,1
"2198",0,1,758,13,7,1,"1c7653e",218,1
"2208",0,0,531,7,7,1,"1c7653e",219,1
"22113",1,0,331,7,6,1,"1c7653e",220,1
"22210",1,1,464,6,6,1,"1c7653e",221,1
"2238",0,1,511,6,10,1,"1c7653e",222,1
"2248",1,1,870,10,10,1,"1c7653e",223,1
"2258",1,1,455,10,10,1,"1c7653e",224,1
"2268",0,1,612,10,2,1,"1c7653e",225,1
"2278",0,1,798,2,15,1,"1c7653e",226,1
"2288",0,0,657,15,15,1,"1c7653e",227,1
"2298",1,0,402,15,14,1,"1c7653e",228,1
"2308",1,1,439,14,14,1,"1c7653e",229,1
"23113",1,0,1158,14,8,1,"1c7653e",230,1
"23210",0,0,356,8,8,1,"1c7653e",231,1
"2338",1,0,527,8,6,1,"1c7653e",232,1
"2348",1,1,707,6,6,1,"1c7653e",233,1
"2358",1,0,622,6,3,1,"1c7653e",234,1
"2368",0,1,1232,3,16,1,"1c7653e",235,1
"2378",1,1,871,16,16,1,"1c7653e",236,1
"2388",0,1,1194,16,13,1,"1c7653e",237,1
"2398",1,0,1151,13,12,1,"1c7653e",238,1
"2408",1,1,692,12,12,1,"1c7653e",239,1
"24113",0,1,926,12,9,1,"1c7653e",240,1
"24210",0,0,1168,9,9,1,"1c7653e",241,1
"2438",0,1,1145,9,11,1,"1c7653e",242,1
"2448",1,0,773,11,5,1,"1c7653e",243,1
"2458",1,1,987,5,5,1,"1c7653e",244,1
"2468",1,0,1426,5,1,1,"1c7653e",245,1
"2478",0,1,907,1,4,1,"1c7653e",246,1
"2488",1,1,1102,4,4,1,"1c7653e",247,1
"2498",0,1,1139,4,17,1,"1c7653e",248,1
"2508",1,0,652,17,7,1,"1c7653e",249,1
"25113",1,1,1287,7,7,1,"1c7653e",250,1
"25210",1,0,1020,7,18,1,"1c7653e",251,1
"2538",0,1,1329,18,4,1,"1c7653e",252,1
"2548",0,1,2394,4,15,1,"1c7653e",253,1
"2558",0,1,1195,15,2,1,"1c7653e",254,1
"2568",1,1,654,2,2,1,"1c7653e",255,1
"2578",0,1,768,2,13,1,"1c7653e",256,1
"2588",0,1,1684,13,8,1,"1c7653e",257,1
"2598",1,0,2445,8,14,1,"1c7653e",258,1
"2608",0,0,422,14,14,1,"1c7653e",259,1
"26113",0,1,40,14,1,1,"1c7653e",260,1
"26210",0,0,373,1,1,1,"1c7653e",261,1
"2637",0,1,371,1,17,1,"1c7653e",262,1
"2647",1,1,1321,17,17,1,"1c7653e",263,1
"2656",-1,-1,0,17,5,1,"1c7653e",264,1
"2666",0,0,1208,5,5,1,"1c7653e",265,1
"2675",1,0,2486,5,3,1,"1c7653e",266,1
"2685",-1,-1,0,3,3,1,"1c7653e",267,1
"2695",0,1,289,3,16,1,"1c7653e",268,1
"2705",1,0,362,16,6,1,"1c7653e",269,1
"27110",1,1,800,6,6,1,"1c7653e",270,1
"2724",0,1,585,6,10,1,"1c7653e",271,1
"2733",1,1,1119,10,10,1,"1c7653e",272,1
"2743",0,1,1632,10,7,1,"1c7653e",273,1
"2752",1,1,1183,7,7,1,"1c7653e",274,1
"2762",0,1,807,7,11,1,"1c7653e",275,1
"2772",0,1,762,11,12,1,"1c7653e",276,1
"2781",1,0,336,12,9,1,"1c7653e",277,1
"2791",1,1,897,9,9,1,"1c7653e",278,1
"2801",0,1,710,9,18,1,"1c7653e",279,1
"2100",1,0,1218,0,14,1,"18850a6",1,1
"340",1,1,97,14,14,1,"18850a6",2,1
"440",1,0,684,14,17,1,"18850a6",3,1
"540",1,0,939,17,18,1,"18850a6",4,1
"640",1,1,1562,18,18,1,"18850a6",5,1
"740",0,1,1397,18,1,1,"18850a6",6,1
"840",1,0,1904,1,7,1,"18850a6",7,1
"940",1,0,1077,7,12,1,"18850a6",8,1
"1040",1,1,1700,12,12,1,"18850a6",9,1
