"","keys","accuracy","rt","Fimg","feature_index","subID","trialNum","run"
"2",1,0,534,36,1,"adfa595",1,1
"3",1,0,615,32,1,"adfa595",2,1
"4",2,0,721,4,1,"adfa595",3,1
"5",2,1,1340,29,1,"adfa595",4,1
"6",2,0,676,3,1,"adfa595",5,1
"7",1,1,694,17,1,"adfa595",6,1
"8",1,0,449,19,1,"adfa595",7,1
"9",2,0,298,9,1,"adfa595",8,1
"10",1,0,1140,28,1,"adfa595",9,1
"11",2,0,391,16,1,"adfa595",10,1
"12",1,0,721,35,1,"adfa595",11,1
"13",2,0,1081,15,1,"adfa595",12,1
"14",2,1,643,34,1,"adfa595",13,1
"15",2,0,1806,7,1,"adfa595",14,1
"16",1,1,1023,1,1,"adfa595",15,1
"17",1,1,936,2,1,"adfa595",16,1
"18",2,0,722,8,1,"adfa595",17,1
"19",1,0,292,21,1,"adfa595",18,1
"20",2,0,589,12,1,"adfa595",19,1
"21",1,1,248,11,1,"adfa595",20,1
"22",1,0,290,23,1,"adfa595",21,1
"23",2,0,276,10,1,"adfa595",22,1
"24",1,0,92,27,1,"adfa595",23,1
"25",1,0,1030,25,1,"adfa595",24,1
"26",2,1,337,26,1,"adfa595",25,1
"27",2,1,794,18,1,"adfa595",26,1
"28",2,1,299,30,1,"adfa595",27,1
"29",2,0,814,5,1,"adfa595",28,1
"30",1,1,191,6,1,"adfa595",29,1
"31",2,0,776,14,1,"adfa595",30,1
"32",1,0,338,31,1,"adfa595",31,1
"33",1,1,796,13,1,"adfa595",32,1
"34",1,0,613,20,1,"adfa595",33,1
"35",2,1,1328,22,1,"adfa595",34,1
"36",2,1,833,24,1,"adfa595",35,1
"37",2,1,1067,33,1,"adfa595",36,1
"38",1,0,727,36,1,"adfa595",37,1
"39",2,1,1088,32,1,"adfa595",38,1
"40",2,0,273,4,1,"adfa595",39,1
"41",1,0,347,29,1,"adfa595",40,1
"42",1,1,453,3,1,"adfa595",41,1
"43",2,0,1038,17,1,"adfa595",42,1
"44",2,1,600,19,1,"adfa595",43,1
"45",2,0,1282,9,1,"adfa595",44,1
"46",1,0,852,28,1,"adfa595",45,1
"47",1,1,701,16,1,"adfa595",46,1
"48",1,0,647,35,1,"adfa595",47,1
"49",1,1,281,15,1,"adfa595",48,1
"50",1,0,2075,34,1,"adfa595",49,1
"51",2,0,1005,7,1,"adfa595",50,1
"52",1,1,311,1,1,"adfa595",51,1
"53",1,1,359,2,1,"adfa595",52,1
"54",2,0,306,8,1,"adfa595",53,1
"55",1,0,443,21,1,"adfa595",54,1
"56",2,0,356,12,1,"adfa595",55,1
"57",2,0,214,11,1,"adfa595",56,1
"58",1,0,321,23,1,"adfa595",57,1
"59",1,1,682,10,1,"adfa595",58,1
"60",2,1,1011,27,1,"adfa595",59,1
"61",NA,-1,0,25,1,"adfa595",60,1
"62",2,1,16,26,1,"adfa595",61,1
"63",1,1,2288,18,1,"adfa595",62,1
"64",2,1,2044,30,1,"adfa595",63,1
"65",2,0,1741,5,1,"adfa595",64,1
"66",1,1,391,6,1,"adfa595",65,1
"67",1,1,296,14,1,"adfa595",66,1
"68",2,1,849,31,1,"adfa595",67,1
"69",1,1,1020,13,1,"adfa595",68,1
"70",2,1,996,20,1,"adfa595",69,1
"71",2,1,2478,22,1,"adfa595",70,1
"72",2,1,673,24,1,"adfa595",71,1
"73",2,1,267,33,1,"adfa595",72,1
"74",1,0,212,29,1,"adfa595",73,1
"75",2,1,262,32,1,"adfa595",74,1
"76",2,1,272,23,1,"adfa595",75,1
"77",2,0,314,2,1,"adfa595",76,1
"78",1,0,131,35,1,"adfa595",77,1
"79",2,1,301,27,1,"adfa595",78,1
"80",2,0,287,13,1,"adfa595",79,1
"81",1,1,233,15,1,"adfa595",80,1
"82",1,0,211,30,1,"adfa595",81,1
"83",2,1,413,31,1,"adfa595",82,1
"84",1,1,615,9,1,"adfa595",83,1
"85",1,0,280,21,1,"adfa595",84,1
"86",1,1,481,8,1,"adfa595",85,1
"87",2,0,1388,12,1,"adfa595",86,1
"88",1,0,1525,28,1,"adfa595",87,1
"89",1,0,839,25,1,"adfa595",88,1
"90",1,1,688,1,1,"adfa595",89,1
"91",2,0,988,3,1,"adfa595",90,1
"92",2,0,1316,10,1,"adfa595",91,1
"93",1,0,374,36,1,"adfa595",92,1
"94",1,0,448,34,1,"adfa595",93,1
"95",1,1,211,14,1,"adfa595",94,1
"96",NA,-1,0,22,1,"adfa595",95,1
"97",2,1,2110,19,1,"adfa595",96,1
"98",1,1,1553,7,1,"adfa595",97,1
"99",1,0,1114,24,1,"adfa595",98,1
"100",1,1,1347,6,1,"adfa595",99,1
"101",1,1,820,11,1,"adfa595",100,1
"102",1,0,1151,33,1,"adfa595",101,1
"103",2,0,1064,16,1,"adfa595",102,1
"104",2,1,986,20,1,"adfa595",103,1
"105",1,1,964,5,1,"adfa595",104,1
"106",2,1,687,26,1,"adfa595",105,1
"107",2,1,1048,18,1,"adfa595",106,1
"108",1,1,298,17,1,"adfa595",107,1
"109",1,1,402,4,1,"adfa595",108,1
"110",1,1,326,14,1,"adfa595",109,1
"111",1,0,590,26,1,"adfa595",110,1
"112",1,1,695,7,1,"adfa595",111,1
"113",2,0,739,1,1,"adfa595",112,1
"114",2,0,812,6,1,"adfa595",113,1
"115",1,1,1143,2,1,"adfa595",114,1
"116",1,0,905,27,1,"adfa595",115,1
"117",1,0,658,32,1,"adfa595",116,1
"118",1,1,635,4,1,"adfa595",117,1
"119",2,1,749,35,1,"adfa595",118,1
"120",1,0,631,25,1,"adfa595",119,1
"121",1,0,704,36,1,"adfa595",120,1
"122",1,0,337,21,1,"adfa595",121,1
"123",2,1,1076,22,1,"adfa595",122,1
"124",1,0,1093,31,1,"adfa595",123,1
"125",1,1,751,12,1,"adfa595",124,1
"126",1,1,634,5,1,"adfa595",125,1
"127",2,0,331,17,1,"adfa595",126,1
"128",1,1,694,11,1,"adfa595",127,1
"129",1,0,2070,30,1,"adfa595",128,1
"130",1,0,969,28,1,"adfa595",129,1
"131",2,0,818,3,1,"adfa595",130,1
"132",1,1,1340,13,1,"adfa595",131,1
"133",1,0,1358,24,1,"adfa595",132,1
"134",1,1,1112,8,1,"adfa595",133,1
"135",2,1,609,34,1,"adfa595",134,1
"136",1,0,627,33,1,"adfa595",135,1
"137",2,1,701,23,1,"adfa595",136,1
"138",2,1,456,20,1,"adfa595",137,1
"139",2,0,944,15,1,"adfa595",138,1
"140",1,1,706,9,1,"adfa595",139,1
"141",1,1,973,10,1,"adfa595",140,1
"142",2,0,951,16,1,"adfa595",141,1
"143",1,0,1343,29,1,"adfa595",142,1
"144",1,1,778,18,1,"adfa595",143,1
"145",1,0,1238,19,1,"adfa595",144,1
"146",2,1,1318,34,1,"adfa595",145,1
"147",1,1,753,16,1,"adfa595",146,1
"148",1,0,729,19,1,"adfa595",147,1
"149",2,0,204,17,1,"adfa595",148,1
"150",1,1,1334,9,1,"adfa595",149,1
"151",1,0,1974,22,1,"adfa595",150,1
"152",NA,-1,0,33,1,"adfa595",151,1
"153",2,1,2035,36,1,"adfa595",152,1
"154",NA,-1,0,2,1,"adfa595",153,1
"155",1,0,1454,24,1,"adfa595",154,1
"156",2,1,1753,28,1,"adfa595",155,1
"157",1,1,2114,4,1,"adfa595",156,1
"158",2,1,2028,35,1,"adfa595",157,1
"159",2,0,2166,7,1,"adfa595",158,1
"160",1,0,1447,32,1,"adfa595",159,1
"161",NA,-1,0,23,1,"adfa595",160,1
"162",2,1,2010,31,1,"adfa595",161,1
"163",NA,-1,0,6,1,"adfa595",162,1
"164",1,0,510,26,1,"adfa595",163,1
"165",1,0,1313,21,1,"adfa595",164,1
"166",1,0,1521,25,1,"adfa595",165,1
"167",1,1,1948,14,1,"adfa595",166,1
"168",2,0,1478,1,1,"adfa595",167,1
"169",1,0,1111,29,1,"adfa595",168,1
"170",1,1,1858,11,1,"adfa595",169,1
"171",2,0,1068,8,1,"adfa595",170,1
"172",2,0,796,15,1,"adfa595",171,1
"173",1,0,294,30,1,"adfa595",172,1
"174",1,1,272,5,1,"adfa595",173,1
"175",1,1,227,10,1,"adfa595",174,1
"176",1,1,171,13,1,"adfa595",175,1
"177",1,0,2157,27,1,"adfa595",176,1
"178",2,0,1889,3,1,"adfa595",177,1
"179",1,1,1034,12,1,"adfa595",178,1
"180",2,1,667,20,1,"adfa595",179,1
"181",2,1,236,18,1,"adfa595",180,1
"182",2,1,278,18,1,"adfa595",181,1
"183",2,0,351,5,1,"adfa595",182,1
"184",1,1,241,11,1,"adfa595",183,1
"185",2,1,346,26,1,"adfa595",184,1
"186",1,1,614,17,1,"adfa595",185,1
"187",2,0,1263,7,1,"adfa595",186,1
"188",2,1,1975,21,1,"adfa595",187,1
"189",1,0,2371,20,1,"adfa595",188,1
"190",NA,-1,0,15,1,"adfa595",189,1
"191",1,0,1119,36,1,"adfa595",190,1
"192",1,0,1039,31,1,"adfa595",191,1
"193",2,1,1658,34,1,"adfa595",192,1
"194",1,1,771,12,1,"adfa595",193,1
"195",2,1,724,24,1,"adfa595",194,1
"196",1,1,1623,13,1,"adfa595",195,1
"197",1,0,681,22,1,"adfa595",196,1
"198",1,0,602,25,1,"adfa595",197,1
"199",2,0,1660,9,1,"adfa595",198,1
"200",2,0,622,2,1,"adfa595",199,1
"201",2,1,856,33,1,"adfa595",200,1
"202",1,1,1185,8,1,"adfa595",201,1
"203",1,0,498,35,1,"adfa595",202,1
"204",2,1,445,19,1,"adfa595",203,1
"205",1,0,496,27,1,"adfa595",204,1
"206",2,1,665,32,1,"adfa595",205,1
"207",1,1,226,10,1,"adfa595",206,1
"208",NA,-1,0,3,1,"adfa595",207,1
"209",2,0,319,6,1,"adfa595",208,1
"210",2,1,551,23,1,"adfa595",209,1
"211",2,0,281,4,1,"adfa595",210,1
"212",1,0,163,30,1,"adfa595",211,1
"213",2,0,14,14,1,"adfa595",212,1
"214",1,0,543,28,1,"adfa595",213,1
"215",1,0,585,29,1,"adfa595",214,1
"216",1,1,1011,1,1,"adfa595",215,1
"217",2,0,580,16,1,"adfa595",216,1
"218",2,1,1294,27,1,"adfa595",217,1
"219",1,1,1080,1,1,"adfa595",218,1
"220",1,0,459,20,1,"adfa595",219,1
"221",1,0,403,31,1,"adfa595",220,1
"222",2,1,797,28,1,"adfa595",221,1
"223",1,0,1479,34,1,"adfa595",222,1
"224",1,1,2256,5,1,"adfa595",223,1
"225",1,1,2108,18,1,"adfa595",224,1
"226",NA,-1,0,19,1,"adfa595",225,1
"227",2,0,1303,9,1,"adfa595",226,1
"228",1,1,2112,16,1,"adfa595",227,1
"229",1,1,753,8,1,"adfa595",228,1
"230",1,0,764,30,1,"adfa595",229,1
"231",1,1,620,10,1,"adfa595",230,1
"232",NA,-1,0,6,1,"adfa595",231,1
"233",1,0,2114,23,1,"adfa595",232,1
"234",NA,-1,0,35,1,"adfa595",233,1
"235",1,1,413,2,1,"adfa595",234,1
"236",1,1,1702,4,1,"adfa595",235,1
"237",1,1,1104,12,1,"adfa595",236,1
"238",1,1,674,13,1,"adfa595",237,1
"239",1,0,523,24,1,"adfa595",238,1
"240",1,0,573,26,1,"adfa595",239,1
"241",1,0,680,33,1,"adfa595",240,1
"242",1,1,313,3,1,"adfa595",241,1
"243",1,1,1466,11,1,"adfa595",242,1
"244",1,1,1229,17,1,"adfa595",243,1
"245",2,0,726,7,1,"adfa595",244,1
"246",1,1,1023,14,1,"adfa595",245,1
"247",1,0,1706,36,1,"adfa595",246,1
"248",1,0,987,22,1,"adfa595",247,1
"249",2,1,420,21,1,"adfa595",248,1
"250",1,0,815,32,1,"adfa595",249,1
"251",1,1,289,15,1,"adfa595",250,1
"252",1,0,1578,25,1,"adfa595",251,1
"253",1,0,1781,29,1,"adfa595",252,1
"254",1,1,1406,2,1,"adfa595",253,1
"255",1,0,1615,24,1,"adfa595",254,1
"256",1,0,1626,25,1,"adfa595",255,1
"257",2,0,1573,6,1,"adfa595",256,1
"258",1,1,1910,9,1,"adfa595",257,1
"259",1,1,2175,7,1,"adfa595",258,1
"260",1,0,977,29,1,"adfa595",259,1
"261",2,1,955,27,1,"adfa595",260,1
"262",1,1,237,18,1,"adfa595",261,1
"263",NA,-1,0,32,1,"adfa595",262,1
"264",NA,-1,0,21,1,"adfa595",263,1
"265",NA,-1,0,3,1,"adfa595",264,1
"266",NA,-1,0,10,1,"adfa595",265,1
"267",1,1,1628,14,1,"adfa595",266,1
"268",2,1,909,26,1,"adfa595",267,1
"269",2,1,1111,23,1,"adfa595",268,1
"270",1,1,2242,4,1,"adfa595",269,1
"271",1,0,1930,30,1,"adfa595",270,1
"272",2,0,2005,15,1,"adfa595",271,1
"273",2,0,1446,1,1,"adfa595",272,1
"274",1,1,944,12,1,"adfa595",273,1
"275",1,1,98,5,1,"adfa595",274,1
"276",2,1,1068,20,1,"adfa595",275,1
"277",2,0,1014,11,1,"adfa595",276,1
"278",2,1,264,19,1,"adfa595",277,1
"279",2,0,240,17,1,"adfa595",278,1
"280",1,0,219,34,1,"adfa595",279,1
"281",1,0,300,36,1,"adfa595",280,1
"282",2,0,247,8,1,"adfa595",281,1
"283",1,1,319,16,1,"adfa595",282,1
"284",1,1,434,13,1,"adfa595",283,1
"285",1,0,220,31,1,"adfa595",284,1
"286",2,1,262,28,1,"adfa595",285,1
"287",2,1,247,35,1,"adfa595",286,1
"288",2,1,322,33,1,"adfa595",287,1
"289",2,1,235,22,1,"adfa595",288,1
"290",1,1,926,16,1,"16008a6",1,1
"310",1,1,1009,10,1,"16008a6",2,1
"410",1,1,1114,15,1,"16008a6",3,1
"510",2,0,759,11,1,"16008a6",4,1
"610",1,1,774,17,1,"16008a6",5,1
"710",1,0,1061,29,1,"16008a6",6,1
"810",1,0,1581,30,1,"16008a6",7,1
"910",2,0,1515,5,1,"16008a6",8,1
"1010",1,0,1998,22,1,"16008a6",9,1
"1110",1,1,1782,12,1,"16008a6",10,1
"1210",1,0,1334,36,1,"16008a6",11,1
"1310",1,0,2502,23,1,"16008a6",12,1
"1410",2,1,1131,27,1,"16008a6",13,1
"1510",2,0,804,14,1,"16008a6",14,1
"1610",1,0,1481,28,1,"16008a6",15,1
"1710",1,1,1778,7,1,"16008a6",16,1
"1810",2,0,715,13,1,"16008a6",17,1
"1910",1,0,1483,25,1,"16008a6",18,1
"2010",1,0,1176,24,1,"16008a6",19,1
"2110",2,0,1391,2,1,"16008a6",20,1
"2210",1,0,1118,34,1,"16008a6",21,1
"2310",1,0,1228,21,1,"16008a6",22,1
"2410",1,0,1859,19,1,"16008a6",23,1
"2510",2,0,1725,9,1,"16008a6",24,1
"2610",2,0,484,1,1,"16008a6",25,1
"2710",2,1,1326,32,1,"16008a6",26,1
"2810",1,1,1563,8,1,"16008a6",27,1
"291",NA,-1,0,26,1,"16008a6",28,1
"301",2,1,933,31,1,"16008a6",29,1
"311",2,1,897,20,1,"16008a6",30,1
"321",1,0,1431,33,1,"16008a6",31,1
"331",1,1,2030,18,1,"16008a6",32,1
"341",1,0,1392,35,1,"16008a6",33,1
"351",1,1,1818,6,1,"16008a6",34,1
"361",1,1,1330,3,1,"16008a6",35,1
"371",2,0,982,4,1,"16008a6",36,1
"381",1,1,892,16,1,"16008a6",37,1
"391",1,1,1351,10,1,"16008a6",38,1
"401",1,1,1447,15,1,"16008a6",39,1
"411",2,0,1023,11,1,"16008a6",40,1
"421",1,1,977,17,1,"16008a6",41,1
"431",1,0,2007,29,1,"16008a6",42,1
"441",2,1,891,30,1,"16008a6",43,1
"451",2,0,1230,5,1,"16008a6",44,1
"461",2,1,2157,22,1,"16008a6",45,1
"471",1,1,831,12,1,"16008a6",46,1
"481",1,0,630,36,1,"16008a6",47,1
"491",1,0,1044,23,1,"16008a6",48,1
"501",1,0,699,27,1,"16008a6",49,1
"511",1,1,1273,14,1,"16008a6",50,1
"521",2,1,943,28,1,"16008a6",51,1
"531",2,0,763,7,1,"16008a6",52,1
"541",2,0,1171,13,1,"16008a6",53,1
"551",2,1,793,25,1,"16008a6",54,1
"561",2,1,1155,24,1,"16008a6",55,1
"571",2,0,806,2,1,"16008a6",56,1
"581",1,0,1980,34,1,"16008a6",57,1
"591",1,0,1539,21,1,"16008a6",58,1
"601",2,1,771,19,1,"16008a6",59,1
"611",1,1,654,9,1,"16008a6",60,1
"621",2,0,977,1,1,"16008a6",61,1
"631",1,0,1375,32,1,"16008a6",62,1
"641",1,1,1195,8,1,"16008a6",63,1
"651",2,1,1144,26,1,"16008a6",64,1
"661",1,0,1489,31,1,"16008a6",65,1
"671",2,1,857,20,1,"16008a6",66,1
"681",1,0,1892,33,1,"16008a6",67,1
"691",2,1,1062,18,1,"16008a6",68,1
"701",1,0,2035,35,1,"16008a6",69,1
"711",2,0,628,6,1,"16008a6",70,1
"721",1,1,1526,3,1,"16008a6",71,1
"731",1,1,1001,4,1,"16008a6",72,1
"741",2,1,2378,22,1,"16008a6",73,1
"751",1,1,921,6,1,"16008a6",74,1
"761",2,1,1128,26,1,"16008a6",75,1
"771",2,1,1054,35,1,"16008a6",76,1
"781",1,1,1791,5,1,"16008a6",77,1
"791",2,1,1251,25,1,"16008a6",78,1
"801",2,0,890,1,1,"16008a6",79,1
"811",2,1,1524,29,1,"16008a6",80,1
"821",1,1,1109,8,1,"16008a6",81,1
"831",1,1,688,9,1,"16008a6",82,1
"841",1,0,2359,31,1,"16008a6",83,1
"851",2,1,908,33,1,"16008a6",84,1
"861",1,1,1174,3,1,"16008a6",85,1
"871",2,0,1740,13,1,"16008a6",86,1
"881",1,0,795,36,1,"16008a6",87,1
"891",2,1,915,27,1,"16008a6",88,1
"901",2,1,699,21,1,"16008a6",89,1
"911",2,0,2339,4,1,"16008a6",90,1
"921",2,0,779,16,1,"16008a6",91,1
"931",1,0,1016,28,1,"16008a6",92,1
"941",2,1,770,34,1,"16008a6",93,1
"951",2,1,966,24,1,"16008a6",94,1
"961",1,0,945,30,1,"16008a6",95,1
"971",1,0,1250,32,1,"16008a6",96,1
"981",1,0,1605,20,1,"16008a6",97,1
"991",1,1,1019,17,1,"16008a6",98,1
"1001",2,1,1828,19,1,"16008a6",99,1
"1011",1,1,854,15,1,"16008a6",100,1
"1021",2,0,1096,10,1,"16008a6",101,1
"1031",1,1,1280,7,1,"16008a6",102,1
"1041",1,0,2407,23,1,"16008a6",103,1
"1051",1,1,880,18,1,"16008a6",104,1
"1061",1,1,1936,14,1,"16008a6",105,1
"1071",2,0,2137,12,1,"16008a6",106,1
"1081",2,0,2416,11,1,"16008a6",107,1
"1091",1,1,625,2,1,"16008a6",108,1
"1101",1,1,2089,15,1,"16008a6",109,1
"1111",2,1,2118,26,1,"16008a6",110,1
"1121",2,1,925,27,1,"16008a6",111,1
"1131",1,0,1064,29,1,"16008a6",112,1
"1141",2,0,1816,1,1,"16008a6",113,1
"1151",NA,-1,0,23,1,"16008a6",114,1
"1161",2,0,1098,4,1,"16008a6",115,1
"1171",1,1,1164,13,1,"16008a6",116,1
"1181",1,0,2016,20,1,"16008a6",117,1
"1191",2,1,1064,31,1,"16008a6",118,1
"1201",2,0,994,14,1,"16008a6",119,1
"1211",1,0,1537,21,1,"16008a6",120,1
"1221",2,1,1568,36,1,"16008a6",121,1
"1231",2,0,1123,12,1,"16008a6",122,1
"1241",1,1,1213,16,1,"16008a6",123,1
"1251",1,1,1893,11,1,"16008a6",124,1
"1261",2,1,1438,18,1,"16008a6",125,1
"1271",1,0,917,25,1,"16008a6",126,1
"1281",1,0,1060,30,1,"16008a6",127,1
"1291",2,0,1594,5,1,"16008a6",128,1
"1301",2,0,969,3,1,"16008a6",129,1
"1311",1,1,890,17,1,"16008a6",130,1
"1321",NA,-1,0,33,1,"16008a6",131,1
"1331",2,0,818,9,1,"16008a6",132,1
"1341",2,0,1617,6,1,"16008a6",133,1
"1351",2,1,1034,35,1,"16008a6",134,1
"1361",NA,-1,0,32,1,"16008a6",135,1
"1371",2,0,776,2,1,"16008a6",136,1
"1381",1,1,595,7,1,"16008a6",137,1
"1391",1,0,674,34,1,"16008a6",138,1
"1401",1,0,1214,19,1,"16008a6",139,1
"1411",2,0,669,10,1,"16008a6",140,1
"1421",1,0,1986,28,1,"16008a6",141,1
"1431",1,0,1214,22,1,"16008a6",142,1
"1441",2,0,1010,8,1,"16008a6",143,1
"1451",1,0,2399,24,1,"16008a6",144,1
"1461",1,1,1467,4,1,"16008a6",145,1
"1471",2,1,1816,25,1,"16008a6",146,1
"1481",1,1,1629,8,1,"16008a6",147,1
"1491",1,1,1225,7,1,"16008a6",148,1
"1501",2,1,745,20,1,"16008a6",149,1
"1511",1,0,1392,28,1,"16008a6",150,1
"1521",2,1,1034,35,1,"16008a6",151,1
"1531",1,0,736,23,1,"16008a6",152,1
"1541",2,0,570,9,1,"16008a6",153,1
"1551",1,1,947,1,1,"16008a6",154,1
"1561",1,0,1668,33,1,"16008a6",155,1
"1571",2,0,1003,17,1,"16008a6",156,1
"1581",1,1,2270,16,1,"16008a6",157,1
"1591",1,1,1845,10,1,"16008a6",158,1
"1601",1,1,1774,15,1,"16008a6",159,1
"1611",1,1,1145,13,1,"16008a6",160,1
"1621",2,1,1093,26,1,"16008a6",161,1
"1631",NA,-1,0,14,1,"16008a6",162,1
"1641",1,0,1405,30,1,"16008a6",163,1
"1651",1,0,814,32,1,"16008a6",164,1
"1661",2,0,815,6,1,"16008a6",165,1
"1671",1,0,737,27,1,"16008a6",166,1
"1681",1,0,1234,29,1,"16008a6",167,1
"1691",2,1,1057,24,1,"16008a6",168,1
"1701",1,1,573,11,1,"16008a6",169,1
"1711",1,0,1133,34,1,"16008a6",170,1
"1721",2,1,1104,18,1,"16008a6",171,1
"1731",1,0,938,36,1,"16008a6",172,1
"1741",1,1,749,5,1,"16008a6",173,1
"1751",1,0,1131,19,1,"16008a6",174,1
"1761",2,0,2479,12,1,"16008a6",175,1
"1771",1,0,1781,31,1,"16008a6",176,1
"1781",2,0,1424,2,1,"16008a6",177,1
"1791",1,0,811,21,1,"16008a6",178,1
"1801",1,1,558,3,1,"16008a6",179,1
"1811",1,0,983,22,1,"16008a6",180,1
"1821",2,0,1053,2,1,"16008a6",181,1
"1831",1,1,939,1,1,"16008a6",182,1
"1841",1,1,1131,16,1,"16008a6",183,1
"1851",1,1,1066,13,1,"16008a6",184,1
"1861",1,0,754,33,1,"16008a6",185,1
"1871",1,0,1751,32,1,"16008a6",186,1
"1881",1,0,1541,23,1,"16008a6",187,1
"1891",1,0,900,36,1,"16008a6",188,1
"1901",2,1,772,28,1,"16008a6",189,1
"1911",2,0,872,8,1,"16008a6",190,1
"1921",1,1,957,14,1,"16008a6",191,1
"1931",1,1,1107,11,1,"16008a6",192,1
"1941",2,1,936,27,1,"16008a6",193,1
"1951",2,1,797,19,1,"16008a6",194,1
"1961",2,0,1360,12,1,"16008a6",195,1
"1971",1,0,1820,34,1,"16008a6",196,1
"1981",2,1,813,22,1,"16008a6",197,1
"1991",1,1,941,17,1,"16008a6",198,1
"2001",2,1,678,30,1,"16008a6",199,1
"2011",2,1,894,20,1,"16008a6",200,1
"2021",2,1,1516,31,1,"16008a6",201,1
"2031",2,1,690,29,1,"16008a6",202,1
"2041",1,0,819,35,1,"16008a6",203,1
"2051",2,0,771,5,1,"16008a6",204,1
"2061",1,1,1235,15,1,"16008a6",205,1
"2071",2,1,933,24,1,"16008a6",206,1
"2081",1,1,1492,7,1,"16008a6",207,1
"2091",2,0,773,9,1,"16008a6",208,1
"2101",1,1,1709,10,1,"16008a6",209,1
"2111",2,0,1336,4,1,"16008a6",210,1
"2121",1,1,1068,6,1,"16008a6",211,1
"2131",1,0,1117,26,1,"16008a6",212,1
"2141",2,1,1121,18,1,"16008a6",213,1
"2151",1,1,1217,3,1,"16008a6",214,1
"2161",2,1,857,21,1,"16008a6",215,1
"2171",2,1,814,25,1,"16008a6",216,1
"2181",2,1,1145,24,1,"16008a6",217,1
"2191",2,0,789,11,1,"16008a6",218,1
"2201",2,1,1050,21,1,"16008a6",219,1
"2211",2,0,1224,9,1,"16008a6",220,1
"2221",2,0,936,2,1,"16008a6",221,1
"2231",2,1,1665,32,1,"16008a6",222,1
"2241",1,0,954,35,1,"16008a6",223,1
"2251",2,1,820,25,1,"16008a6",224,1
"2261",1,1,1696,15,1,"16008a6",225,1
"2271",1,1,1487,3,1,"16008a6",226,1
"2281",2,1,1573,20,1,"16008a6",227,1
"2291",2,1,1214,31,1,"16008a6",228,1
"2301",1,1,2197,8,1,"16008a6",229,1
"2311",2,0,1427,5,1,"16008a6",230,1
"2321",1,0,862,30,1,"16008a6",231,1
"2331",1,1,1093,13,1,"16008a6",232,1
"2341",2,1,946,23,1,"16008a6",233,1
"2351",1,1,808,17,1,"16008a6",234,1
"2361",1,0,918,34,1,"16008a6",235,1
"2371",2,1,1349,29,1,"16008a6",236,1
"2381",2,1,804,36,1,"16008a6",237,1
"2391",1,1,1172,16,1,"16008a6",238,1
"2401",2,0,659,1,1,"16008a6",239,1
"2411",2,0,727,4,1,"16008a6",240,1
"2421",2,1,877,18,1,"16008a6",241,1
"2431",1,1,881,7,1,"16008a6",242,1
"2441",1,0,1227,19,1,"16008a6",243,1
"2451",2,1,395,33,1,"16008a6",244,1
"2461",1,0,1273,28,1,"16008a6",245,1
"2471",2,1,1731,22,1,"16008a6",246,1
"2481",NA,-1,0,26,1,"16008a6",247,1
"2491",1,1,1419,12,1,"16008a6",248,1
"2501",NA,-1,0,6,1,"16008a6",249,1
"2511",1,0,690,27,1,"16008a6",250,1
"2521",2,0,834,14,1,"16008a6",251,1
"2531",1,1,946,10,1,"16008a6",252,1
"2541",1,0,1232,26,1,"16008a6",253,1
"2551",2,0,686,1,1,"16008a6",254,1
"2561",1,0,702,34,1,"16008a6",255,1
"2571",2,0,849,4,1,"16008a6",256,1
"2581",1,0,1018,28,1,"16008a6",257,1
"2591",1,0,638,24,1,"16008a6",258,1
"2601",2,0,498,10,1,"16008a6",259,1
"2611",1,0,840,36,1,"16008a6",260,1
"2621",1,1,2199,6,1,"16008a6",261,1
"2631",2,1,872,21,1,"16008a6",262,1
"2641",1,1,1393,9,1,"16008a6",263,1
"2651",2,1,1064,30,1,"16008a6",264,1
"2661",1,1,1669,13,1,"16008a6",265,1
"2671",2,1,1071,35,1,"16008a6",266,1
"2681",2,1,1188,22,1,"16008a6",267,1
"2691",2,0,1613,12,1,"16008a6",268,1
"2701",1,1,1025,3,1,"16008a6",269,1
"2711",1,1,1528,8,1,"16008a6",270,1
"2721",2,1,875,19,1,"16008a6",271,1
"2731",2,0,1230,14,1,"16008a6",272,1
"2741",1,0,787,33,1,"16008a6",273,1
"2751",2,1,1305,18,1,"16008a6",274,1
"2761",1,0,1113,31,1,"16008a6",275,1
"2771",1,0,1042,25,1,"16008a6",276,1
"2781",1,0,2117,29,1,"16008a6",277,1
"2791",2,0,1064,16,1,"16008a6",278,1
"2801",2,1,572,23,1,"16008a6",279,1
"2811",2,1,962,27,1,"16008a6",280,1
"2821",2,0,943,5,1,"16008a6",281,1
"2831",1,1,817,7,1,"16008a6",282,1
"2841",1,1,1146,2,1,"16008a6",283,1
"2851",2,1,827,20,1,"16008a6",284,1
"2861",2,1,1054,32,1,"16008a6",285,1
"2871",1,1,776,15,1,"16008a6",286,1
"2881",1,1,1120,17,1,"16008a6",287,1
"2891",2,0,634,11,1,"16008a6",288,1
"292",1,1,1217,3,1,"1ce8744",1,1
"312",2,1,390,32,1,"1ce8744",2,1
"412",1,1,479,6,1,"1ce8744",3,1
"512",1,1,609,9,1,"1ce8744",4,1
"612",1,0,659,35,1,"1ce8744",5,1
"712",1,0,953,19,1,"1ce8744",6,1
"812",1,1,942,18,1,"1ce8744",7,1
"912",2,1,677,27,1,"1ce8744",8,1
"1012",2,1,664,21,1,"1ce8744",9,1
"1112",2,0,578,8,1,"1ce8744",10,1
"1212",2,0,987,1,1,"1ce8744",11,1
"1312",1,0,973,33,1,"1ce8744",12,1
"1412",2,1,902,23,1,"1ce8744",13,1
"1512",2,1,673,25,1,"1ce8744",14,1
"1612",1,0,2275,26,1,"1ce8744",15,1
"1712",1,1,877,10,1,"1ce8744",16,1
"1812",1,1,1591,15,1,"1ce8744",17,1
"1912",1,1,1407,13,1,"1ce8744",18,1
"2012",2,0,571,4,1,"1ce8744",19,1
"2112",2,1,905,29,1,"1ce8744",20,1
"2212",2,1,921,20,1,"1ce8744",21,1
"2312",1,0,824,31,1,"1ce8744",22,1
"2412",2,0,1127,2,1,"1ce8744",23,1
"2512",2,0,1067,16,1,"1ce8744",24,1
"2612",2,1,791,34,1,"1ce8744",25,1
"2712",1,0,1143,36,1,"1ce8744",26,1
"2812",2,0,1022,12,1,"1ce8744",27,1
"293",1,0,519,30,1,"1ce8744",28,1
"302",1,1,877,17,1,"1ce8744",29,1
"313",2,0,793,14,1,"1ce8744",30,1
"322",1,0,68,24,1,"1ce8744",31,1
"332",1,1,911,5,1,"1ce8744",32,1
"342",1,1,1233,7,1,"1ce8744",33,1
"352",1,1,1685,11,1,"1ce8744",34,1
"362",2,1,1212,28,1,"1ce8744",35,1
"372",2,1,920,22,1,"1ce8744",36,1
"382",1,1,1186,3,1,"1ce8744",37,1
"392",1,0,1360,32,1,"1ce8744",38,1
"402",2,0,973,6,1,"1ce8744",39,1
"413",2,0,1256,9,1,"1ce8744",40,1
"422",1,0,839,35,1,"1ce8744",41,1
"432",2,1,1272,19,1,"1ce8744",42,1
"442",2,1,1544,18,1,"1ce8744",43,1
"452",1,0,1044,27,1,"1ce8744",44,1
"462",2,1,718,21,1,"1ce8744",45,1
"472",1,1,1019,8,1,"1ce8744",46,1
"482",2,0,908,1,1,"1ce8744",47,1
"492",2,1,884,33,1,"1ce8744",48,1
"502",2,1,1207,23,1,"1ce8744",49,1
"513",2,1,857,25,1,"1ce8744",50,1
"522",2,1,851,26,1,"1ce8744",51,1
"532",1,1,1023,10,1,"1ce8744",52,1
"542",2,0,1101,15,1,"1ce8744",53,1
"552",1,1,1020,13,1,"1ce8744",54,1
"562",2,0,1281,4,1,"1ce8744",55,1
"572",1,0,876,29,1,"1ce8744",56,1
"582",2,1,887,20,1,"1ce8744",57,1
"592",2,1,888,31,1,"1ce8744",58,1
"602",2,0,864,2,1,"1ce8744",59,1
"613",2,0,936,16,1,"1ce8744",60,1
"622",1,0,1385,34,1,"1ce8744",61,1
"632",1,0,94,36,1,"1ce8744",62,1
"642",2,0,897,12,1,"1ce8744",63,1
"652",2,1,899,30,1,"1ce8744",64,1
"662",1,1,851,17,1,"1ce8744",65,1
"672",2,0,981,14,1,"1ce8744",66,1
"682",2,1,833,24,1,"1ce8744",67,1
"692",2,0,738,5,1,"1ce8744",68,1
"702",2,0,717,7,1,"1ce8744",69,1
"713",1,1,1603,11,1,"1ce8744",70,1
"722",2,1,1232,28,1,"1ce8744",71,1
"732",2,1,800,22,1,"1ce8744",72,1
"742",1,1,1241,14,1,"1ce8744",73,1
"752",2,1,1848,27,1,"1ce8744",74,1
"762",1,0,1356,26,1,"1ce8744",75,1
"772",2,1,1122,23,1,"1ce8744",76,1
"782",1,0,1222,28,1,"1ce8744",77,1
"792",2,0,927,5,1,"1ce8744",78,1
"802",2,1,879,24,1,"1ce8744",79,1
"813",2,1,667,22,1,"1ce8744",80,1
"822",2,1,529,35,1,"1ce8744",81,1
"832",2,1,926,29,1,"1ce8744",82,1
"842",2,0,714,10,1,"1ce8744",83,1
"852",2,1,1043,31,1,"1ce8744",84,1
"862",2,0,1257,8,1,"1ce8744",85,1
"872",2,0,746,17,1,"1ce8744",86,1
"882",2,1,731,30,1,"1ce8744",87,1
"892",2,0,1527,7,1,"1ce8744",88,1
"902",2,0,1307,15,1,"1ce8744",89,1
"913",1,1,113,16,1,"1ce8744",90,1
"922",2,0,1481,1,1,"1ce8744",91,1
"932",2,1,817,19,1,"1ce8744",92,1
"942",1,0,678,36,1,"1ce8744",93,1
"952",1,0,1000,32,1,"1ce8744",94,1
"962",2,0,208,6,1,"1ce8744",95,1
"972",2,0,444,4,1,"1ce8744",96,1
"982",2,1,884,18,1,"1ce8744",97,1
"992",2,0,457,2,1,"1ce8744",98,1
"1002",2,1,1162,33,1,"1ce8744",99,1
"1013",2,1,771,21,1,"1ce8744",100,1
"1022",1,0,1249,34,1,"1ce8744",101,1
"1032",2,0,769,9,1,"1ce8744",102,1
"1042",1,0,519,20,1,"1ce8744",103,1
"1052",2,0,669,11,1,"1ce8744",104,1
"1062",2,0,723,13,1,"1ce8744",105,1
"1072",2,1,747,25,1,"1ce8744",106,1
"1082",2,0,795,3,1,"1ce8744",107,1
"1092",2,0,474,12,1,"1ce8744",108,1
"1102",1,1,451,9,1,"1ce8744",109,1
"1113",1,1,481,15,1,"1ce8744",110,1
"1122",2,0,762,2,1,"1ce8744",111,1
"1132",1,0,909,23,1,"1ce8744",112,1
"1142",2,1,1038,34,1,"1ce8744",113,1
"1152",2,1,1401,35,1,"1ce8744",114,1
"1162",2,0,1198,4,1,"1ce8744",115,1
"1172",2,0,1146,7,1,"1ce8744",116,1
"1182",1,0,1087,22,1,"1ce8744",117,1
"1192",2,0,1465,12,1,"1ce8744",118,1
"1202",2,1,1155,31,1,"1ce8744",119,1
"1213",2,1,919,19,1,"1ce8744",120,1
"1222",1,0,1050,20,1,"1ce8744",121,1
"1232",2,0,1341,5,1,"1ce8744",122,1
"1242",1,0,1329,36,1,"1ce8744",123,1
"1252",2,0,1504,8,1,"1ce8744",124,1
"1262",2,0,565,14,1,"1ce8744",125,1
"1272",2,1,859,32,1,"1ce8744",126,1
"1282",2,1,814,33,1,"1ce8744",127,1
"1292",2,0,1612,16,1,"1ce8744",128,1
"1302",2,1,877,29,1,"1ce8744",129,1
"1313",2,0,793,6,1,"1ce8744",130,1
"1322",1,0,1213,25,1,"1ce8744",131,1
"1332",1,1,1126,18,1,"1ce8744",132,1
"1342",2,1,874,21,1,"1ce8744",133,1
"1352",2,1,1247,26,1,"1ce8744",134,1
"1362",2,0,1295,1,1,"1ce8744",135,1
"1372",1,1,1145,3,1,"1ce8744",136,1
"1382",2,0,873,11,1,"1ce8744",137,1
"1392",1,1,989,10,1,"1ce8744",138,1
"1402",1,1,751,17,1,"1ce8744",139,1
"1413",1,0,475,28,1,"1ce8744",140,1
"1422",2,1,850,24,1,"1ce8744",141,1
"1432",2,0,808,13,1,"1ce8744",142,1
"1442",2,1,952,27,1,"1ce8744",143,1
"1452",2,1,1132,30,1,"1ce8744",144,1
"1462",1,1,769,14,1,"1ce8744",145,1
"1472",1,0,1082,23,1,"1ce8744",146,1
"1482",1,1,716,10,1,"1ce8744",147,1
"1492",2,0,927,11,1,"1ce8744",148,1
"1502",2,1,952,28,1,"1ce8744",149,1
"1513",2,0,925,1,1,"1ce8744",150,1
"1522",2,1,1155,27,1,"1ce8744",151,1
"1532",1,1,983,16,1,"1ce8744",152,1
"1542",2,0,1132,3,1,"1ce8744",153,1
"1552",1,0,924,36,1,"1ce8744",154,1
"1562",2,0,1151,5,1,"1ce8744",155,1
"1572",2,0,803,13,1,"1ce8744",156,1
"1582",1,0,464,22,1,"1ce8744",157,1
"1592",1,1,1297,2,1,"1ce8744",158,1
"1602",2,1,408,33,1,"1ce8744",159,1
"1613",2,1,351,26,1,"1ce8744",160,1
"1622",1,1,574,6,1,"1ce8744",161,1
"1632",2,1,704,25,1,"1ce8744",162,1
"1642",1,1,585,17,1,"1ce8744",163,1
"1652",1,1,1042,12,1,"1ce8744",164,1
"1662",2,1,1543,19,1,"1ce8744",165,1
"1672",1,0,907,21,1,"1ce8744",166,1
"1682",2,0,713,8,1,"1ce8744",167,1
"1692",1,0,1615,32,1,"1ce8744",168,1
"1702",2,1,1132,34,1,"1ce8744",169,1
"1713",2,0,872,9,1,"1ce8744",170,1
"1722",1,1,512,4,1,"1ce8744",171,1
"1732",1,0,430,30,1,"1ce8744",172,1
"1742",2,1,184,20,1,"1ce8744",173,1
"1752",1,0,556,29,1,"1ce8744",174,1
"1762",2,1,527,24,1,"1ce8744",175,1
"1772",2,0,782,7,1,"1ce8744",176,1
"1782",2,1,493,35,1,"1ce8744",177,1
"1792",2,0,403,15,1,"1ce8744",178,1
"1802",2,1,544,18,1,"1ce8744",179,1
"1813",2,1,504,31,1,"1ce8744",180,1
"1822",2,0,471,13,1,"1ce8744",181,1
"1832",1,1,415,10,1,"1ce8744",182,1
"1842",1,0,832,28,1,"1ce8744",183,1
"1852",2,1,522,32,1,"1ce8744",184,1
"1862",2,1,2275,26,1,"1ce8744",185,1
"1872",2,0,689,12,1,"1ce8744",186,1
"1882",2,1,545,23,1,"1ce8744",187,1
"1892",2,1,1138,30,1,"1ce8744",188,1
"1902",1,1,983,9,1,"1ce8744",189,1
"1913",2,0,921,8,1,"1ce8744",190,1
"1922",1,0,699,36,1,"1ce8744",191,1
"1932",2,0,2034,4,1,"1ce8744",192,1
"1942",2,0,1069,14,1,"1ce8744",193,1
"1952",2,1,587,20,1,"1ce8744",194,1
"1962",1,1,887,17,1,"1ce8744",195,1
"1972",2,0,687,3,1,"1ce8744",196,1
"1982",1,0,1027,24,1,"1ce8744",197,1
"1992",2,1,501,27,1,"1ce8744",198,1
"2002",1,0,857,35,1,"1ce8744",199,1
"2013",1,0,731,31,1,"1ce8744",200,1
"2022",2,0,482,2,1,"1ce8744",201,1
"2032",2,1,1305,22,1,"1ce8744",202,1
"2042",2,1,394,34,1,"1ce8744",203,1
"2052",1,1,902,6,1,"1ce8744",204,1
"2062",1,0,666,33,1,"1ce8744",205,1
"2072",2,0,725,5,1,"1ce8744",206,1
"2082",1,1,571,15,1,"1ce8744",207,1
"2092",1,0,755,29,1,"1ce8744",208,1
"2102",2,0,343,11,1,"1ce8744",209,1
"2113",1,1,635,18,1,"1ce8744",210,1
"2122",1,0,390,19,1,"1ce8744",211,1
"2132",2,1,452,21,1,"1ce8744",212,1
"2142",2,0,525,16,1,"1ce8744",213,1
"2152",1,1,791,1,1,"1ce8744",214,1
"2162",1,0,512,25,1,"1ce8744",215,1
"2172",1,1,1028,7,1,"1ce8744",216,1
"2182",2,1,742,32,1,"1ce8744",217,1
"2192",1,0,707,25,1,"1ce8744",218,1
"2202",2,1,375,22,1,"1ce8744",219,1
"2213",2,0,535,1,1,"1ce8744",220,1
"2222",2,0,539,16,1,"1ce8744",221,1
"2232",1,1,446,8,1,"1ce8744",222,1
"2242",2,0,694,4,1,"1ce8744",223,1
"2252",1,1,956,17,1,"1ce8744",224,1
"2262",2,0,850,12,1,"1ce8744",225,1
"2272",1,0,696,23,1,"1ce8744",226,1
"2282",2,1,757,30,1,"1ce8744",227,1
"2292",1,0,681,35,1,"1ce8744",228,1
"2302",1,1,2133,13,1,"1ce8744",229,1
"2313",1,1,684,3,1,"1ce8744",230,1
"2322",1,0,741,19,1,"1ce8744",231,1
"2332",1,0,801,27,1,"1ce8744",232,1
"2342",1,1,670,14,1,"1ce8744",233,1
"2352",1,0,572,20,1,"1ce8744",234,1
"2362",1,0,574,34,1,"1ce8744",235,1
"2372",1,1,478,10,1,"1ce8744",236,1
"2382",1,1,459,2,1,"1ce8744",237,1
"2392",2,0,1293,11,1,"1ce8744",238,1
"2402",1,1,893,9,1,"1ce8744",239,1
"2413",2,1,982,29,1,"1ce8744",240,1
"2422",1,1,1038,7,1,"1ce8744",241,1
"2432",1,0,950,28,1,"1ce8744",242,1
"2442",2,1,518,33,1,"1ce8744",243,1
"2452",1,1,735,6,1,"1ce8744",244,1
"2462",2,0,529,15,1,"1ce8744",245,1
"2472",1,0,880,36,1,"1ce8744",246,1
"2482",1,0,1092,21,1,"1ce8744",247,1
"2492",1,0,995,26,1,"1ce8744",248,1
"2502",2,1,679,18,1,"1ce8744",249,1
"2513",2,1,631,24,1,"1ce8744",250,1
"2522",1,1,1318,5,1,"1ce8744",251,1
"2532",1,0,518,31,1,"1ce8744",252,1
"2542",1,0,576,25,1,"1ce8744",253,1
"2552",2,1,485,30,1,"1ce8744",254,1
"2562",2,1,545,18,1,"1ce8744",255,1
"2572",1,0,612,29,1,"1ce8744",256,1
"2582",2,0,608,5,1,"1ce8744",257,1
"2592",1,0,550,33,1,"1ce8744",258,1
"2602",1,1,1087,10,1,"1ce8744",259,1
"2613",1,1,1370,17,1,"1ce8744",260,1
"2622",2,1,546,23,1,"1ce8744",261,1
"2632",1,0,783,36,1,"1ce8744",262,1
"2642",2,1,380,31,1,"1ce8744",263,1
"2652",1,1,890,1,1,"1ce8744",264,1
"2662",1,0,493,21,1,"1ce8744",265,1
"2672",2,1,943,26,1,"1ce8744",266,1
"2682",1,1,583,3,1,"1ce8744",267,1
"2692",2,0,409,4,1,"1ce8744",268,1
"2702",1,1,461,6,1,"1ce8744",269,1
"2713",2,0,1779,14,1,"1ce8744",270,1
"2722",1,0,1177,22,1,"1ce8744",271,1
"2732",2,1,545,19,1,"1ce8744",272,1
"2742",1,1,1143,9,1,"1ce8744",273,1
"2752",1,1,1005,15,1,"1ce8744",274,1
"2762",1,0,930,28,1,"1ce8744",275,1
"2772",1,1,1648,2,1,"1ce8744",276,1
"2782",1,1,1174,8,1,"1ce8744",277,1
"2792",NA,-1,0,24,1,"1ce8744",278,1
"2802",1,0,856,27,1,"1ce8744",279,1
"2813",2,1,129,34,1,"1ce8744",280,1
"2822",1,1,362,16,1,"1ce8744",281,1
"2832",2,1,1706,35,1,"1ce8744",282,1
"2842",1,1,394,7,1,"1ce8744",283,1
"2852",1,0,649,32,1,"1ce8744",284,1
"2862",2,0,404,12,1,"1ce8744",285,1
"2872",1,0,611,20,1,"1ce8744",286,1
"2882",2,0,413,11,1,"1ce8744",287,1
"2892",1,1,603,13,1,"1ce8744",288,1
"294",1,1,736,18,1,"1f94c85",1,1
"314",2,0,696,6,1,"1f94c85",2,1
"414",2,1,809,36,1,"1f94c85",3,1
"514",1,1,796,8,1,"1f94c85",4,1
"614",2,1,708,35,1,"1f94c85",5,1
"714",1,1,680,9,1,"1f94c85",6,1
"814",1,1,709,2,1,"1f94c85",7,1
"914",2,1,510,19,1,"1f94c85",8,1
"1014",1,1,523,12,1,"1f94c85",9,1
"1114",2,1,419,26,1,"1f94c85",10,1
"1214",2,0,608,3,1,"1f94c85",11,1
"1314",1,0,924,24,1,"1f94c85",12,1
"1414",2,1,794,27,1,"1f94c85",13,1
"1514",2,1,569,33,1,"1f94c85",14,1
"1614",2,0,531,17,1,"1f94c85",15,1
"1714",2,0,589,14,1,"1f94c85",16,1
"1814",1,0,682,28,1,"1f94c85",17,1
"1914",1,1,895,16,1,"1f94c85",18,1
"2014",1,0,895,21,1,"1f94c85",19,1
"2114",1,0,874,29,1,"1f94c85",20,1
"2214",2,1,944,34,1,"1f94c85",21,1
"2314",2,1,823,20,1,"1f94c85",22,1
"2414",2,0,592,15,1,"1f94c85",23,1
"2514",1,1,755,1,1,"1f94c85",24,1
"2614",1,1,697,11,1,"1f94c85",25,1
"2714",1,0,642,25,1,"1f94c85",26,1
"2814",2,1,715,30,1,"1f94c85",27,1
"295",2,1,610,22,1,"1f94c85",28,1
"303",2,0,425,13,1,"1f94c85",29,1
"315",1,1,1015,10,1,"1f94c85",30,1
"323",1,0,749,32,1,"1f94c85",31,1
"333",2,1,446,31,1,"1f94c85",32,1
"343",2,0,717,7,1,"1f94c85",33,1
"353",2,0,383,5,1,"1f94c85",34,1
"363",1,1,401,4,1,"1f94c85",35,1
"373",1,0,1091,23,1,"1f94c85",36,1
"383",2,1,647,18,1,"1f94c85",37,1
"393",2,0,710,6,1,"1f94c85",38,1
"403",1,0,421,36,1,"1f94c85",39,1
"415",1,1,735,8,1,"1f94c85",40,1
"423",2,1,966,35,1,"1f94c85",41,1
"433",1,1,1384,9,1,"1f94c85",42,1
"443",1,1,772,2,1,"1f94c85",43,1
"453",2,1,824,19,1,"1f94c85",44,1
"463",1,1,574,12,1,"1f94c85",45,1
"473",2,1,733,26,1,"1f94c85",46,1
"483",2,0,445,3,1,"1f94c85",47,1
"493",2,1,1035,24,1,"1f94c85",48,1
"503",2,1,737,27,1,"1f94c85",49,1
"515",2,1,492,33,1,"1f94c85",50,1
"523",2,0,827,17,1,"1f94c85",51,1
"533",2,0,997,14,1,"1f94c85",52,1
"543",1,0,939,28,1,"1f94c85",53,1
"553",2,0,541,16,1,"1f94c85",54,1
"563",1,0,945,21,1,"1f94c85",55,1
"573",2,1,830,29,1,"1f94c85",56,1
"583",2,1,1537,34,1,"1f94c85",57,1
"593",1,0,1546,20,1,"1f94c85",58,1
"603",2,0,450,15,1,"1f94c85",59,1
"615",2,0,364,1,1,"1f94c85",60,1
"623",1,1,926,11,1,"1f94c85",61,1
"633",1,0,665,25,1,"1f94c85",62,1
"643",1,0,1394,30,1,"1f94c85",63,1
"653",2,1,857,22,1,"1f94c85",64,1
"663",2,0,887,13,1,"1f94c85",65,1
"673",2,0,417,10,1,"1f94c85",66,1
"683",1,0,1356,32,1,"1f94c85",67,1
"693",1,0,1374,31,1,"1f94c85",68,1
"703",2,0,483,7,1,"1f94c85",69,1
"715",2,0,509,5,1,"1f94c85",70,1
"723",1,1,926,4,1,"1f94c85",71,1
"733",2,1,473,23,1,"1f94c85",72,1
"743",1,1,727,14,1,"1f94c85",73,1
"753",1,1,844,11,1,"1f94c85",74,1
"763",1,0,1053,29,1,"1f94c85",75,1
"773",2,0,893,16,1,"1f94c85",76,1
"783",2,1,556,30,1,"1f94c85",77,1
"793",1,1,678,5,1,"1f94c85",78,1
"803",1,1,1087,8,1,"1f94c85",79,1
"815",1,0,619,25,1,"1f94c85",80,1
"823",2,0,1145,17,1,"1f94c85",81,1
"833",1,1,1760,2,1,"1f94c85",82,1
"843",1,1,757,12,1,"1f94c85",83,1
"853",2,0,836,6,1,"1f94c85",84,1
"863",1,1,569,3,1,"1f94c85",85,1
"873",1,0,724,21,1,"1f94c85",86,1
"883",1,1,856,7,1,"1f94c85",87,1
"893",2,1,885,34,1,"1f94c85",88,1
"903",1,0,690,23,1,"1f94c85",89,1
"915",2,0,976,4,1,"1f94c85",90,1
"923",2,1,773,36,1,"1f94c85",91,1
"933",1,0,567,26,1,"1f94c85",92,1
"943",2,0,662,9,1,"1f94c85",93,1
"953",1,0,570,27,1,"1f94c85",94,1
"963",1,1,280,1,1,"1f94c85",95,1
"973",1,1,962,13,1,"1f94c85",96,1
"983",1,0,873,22,1,"1f94c85",97,1
"993",1,1,909,15,1,"1f94c85",98,1
"1003",1,0,656,28,1,"1f94c85",99,1
"1015",1,0,258,24,1,"1f94c85",100,1
"1023",1,0,301,20,1,"1f94c85",101,1
"1033",2,1,811,31,1,"1f94c85",102,1
"1043",2,1,624,18,1,"1f94c85",103,1
"1053",2,1,481,19,1,"1f94c85",104,1
"1063",2,1,795,32,1,"1f94c85",105,1
"1073",2,0,328,10,1,"1f94c85",106,1
"1083",1,0,330,33,1,"1f94c85",107,1
"1093",1,0,276,35,1,"1f94c85",108,1
"1103",1,1,1060,4,1,"1f94c85",109,1
"1115",1,1,315,3,1,"1f94c85",110,1
"1123",1,1,1948,2,1,"1f94c85",111,1
"1133",1,1,371,7,1,"1f94c85",112,1
"1143",1,1,946,12,1,"1f94c85",113,1
"1153",1,0,645,34,1,"1f94c85",114,1
"1163",1,1,849,10,1,"1f94c85",115,1
"1173",2,1,1460,23,1,"1f94c85",116,1
"1183",2,1,723,20,1,"1f94c85",117,1
"1193",2,0,1118,14,1,"1f94c85",118,1
"1203",1,1,905,16,1,"1f94c85",119,1
"1215",1,0,1004,25,1,"1f94c85",120,1
"1223",2,1,2001,19,1,"1f94c85",121,1
"1233",2,0,944,1,1,"1f94c85",122,1
"1243",2,1,1707,30,1,"1f94c85",123,1
"1253",2,0,559,9,1,"1f94c85",124,1
"1263",1,0,333,21,1,"1f94c85",125,1
"1273",2,1,394,18,1,"1f94c85",126,1
"1283",1,0,1099,36,1,"1f94c85",127,1
"1293",2,1,837,35,1,"1f94c85",128,1
"1303",1,0,1051,24,1,"1f94c85",129,1
"1315",2,1,685,33,1,"1f94c85",130,1
"1323",2,0,669,15,1,"1f94c85",131,1
"1333",2,1,957,26,1,"1f94c85",132,1
"1343",2,0,828,17,1,"1f94c85",133,1
"1353",1,0,883,28,1,"1f94c85",134,1
"1363",2,1,396,27,1,"1f94c85",135,1
"1373",1,0,696,29,1,"1f94c85",136,1
"1383",2,0,693,6,1,"1f94c85",137,1
"1393",1,1,257,13,1,"1f94c85",138,1
"1403",1,1,459,11,1,"1f94c85",139,1
"1415",2,1,693,31,1,"1f94c85",140,1
"1423",2,0,917,8,1,"1f94c85",141,1
"1433",1,0,802,32,1,"1f94c85",142,1
"1443",1,0,985,22,1,"1f94c85",143,1
"1453",2,0,950,5,1,"1f94c85",144,1
"1463",1,0,642,28,1,"1f94c85",145,1
"1473",2,0,679,14,1,"1f94c85",146,1
"1483",2,1,414,24,1,"1f94c85",147,1
"1493",1,1,996,8,1,"1f94c85",148,1
"1503",1,0,932,32,1,"1f94c85",149,1
"1515",2,0,779,7,1,"1f94c85",150,1
"1523",1,1,486,9,1,"1f94c85",151,1
"1533",1,1,569,15,1,"1f94c85",152,1
"1543",1,1,1013,5,1,"1f94c85",153,1
"1553",1,0,689,36,1,"1f94c85",154,1
"1563",2,1,771,20,1,"1f94c85",155,1
"1573",1,1,969,6,1,"1f94c85",156,1
"1583",1,0,617,34,1,"1f94c85",157,1
"1593",2,1,465,22,1,"1f94c85",158,1
"1603",2,0,329,16,1,"1f94c85",159,1
"1615",1,1,601,1,1,"1f94c85",160,1
"1623",1,0,624,26,1,"1f94c85",161,1
"1633",2,0,838,17,1,"1f94c85",162,1
"1643",1,0,465,35,1,"1f94c85",163,1
"1653",2,1,382,21,1,"1f94c85",164,1
"1663",1,1,1133,18,1,"1f94c85",165,1
"1673",2,1,1299,33,1,"1f94c85",166,1
"1683",2,0,1066,12,1,"1f94c85",167,1
"1693",1,0,985,19,1,"1f94c85",168,1
"1703",1,0,909,29,1,"1f94c85",169,1
"1715",2,0,741,10,1,"1f94c85",170,1
"1723",2,1,821,25,1,"1f94c85",171,1
"1733",1,1,847,4,1,"1f94c85",172,1
"1743",1,1,826,11,1,"1f94c85",173,1
"1753",1,1,983,2,1,"1f94c85",174,1
"1763",2,1,835,31,1,"1f94c85",175,1
"1773",1,0,899,23,1,"1f94c85",176,1
"1783",2,1,893,30,1,"1f94c85",177,1
"1793",2,1,1130,27,1,"1f94c85",178,1
"1803",2,0,987,13,1,"1f94c85",179,1
"1815",1,1,856,3,1,"1f94c85",180,1
"1823",1,0,404,23,1,"1f94c85",181,1
"1833",2,0,525,4,1,"1f94c85",182,1
"1843",1,1,778,8,1,"1f94c85",183,1
"1853",1,1,836,7,1,"1f94c85",184,1
"1863",2,0,1031,2,1,"1f94c85",185,1
"1873",2,1,1002,33,1,"1f94c85",186,1
"1883",1,1,1199,14,1,"1f94c85",187,1
"1893",2,1,645,29,1,"1f94c85",188,1
"1903",1,0,605,31,1,"1f94c85",189,1
"1915",2,1,1670,35,1,"1f94c85",190,1
"1923",1,0,1909,20,1,"1f94c85",191,1
"1933",2,1,1739,34,1,"1f94c85",192,1
"1943",2,1,2177,22,1,"1f94c85",193,1
"1953",2,0,1527,3,1,"1f94c85",194,1
"1963",1,0,1187,30,1,"1f94c85",195,1
"1973",2,0,491,17,1,"1f94c85",196,1
"1983",1,1,585,10,1,"1f94c85",197,1
"1993",1,1,853,11,1,"1f94c85",198,1
"2003",1,1,542,18,1,"1f94c85",199,1
"2015",2,0,853,5,1,"1f94c85",200,1
"2023",1,1,808,12,1,"1f94c85",201,1
"2033",1,0,636,36,1,"1f94c85",202,1
"2043",2,0,443,13,1,"1f94c85",203,1
"2053",1,1,345,9,1,"1f94c85",204,1
"2063",1,0,507,28,1,"1f94c85",205,1
"2073",2,0,268,6,1,"1f94c85",206,1
"2083",1,0,469,19,1,"1f94c85",207,1
"2093",2,1,498,26,1,"1f94c85",208,1
"2103",1,0,598,21,1,"1f94c85",209,1
"2115",2,1,357,27,1,"1f94c85",210,1
"2123",2,1,354,24,1,"1f94c85",211,1
"2133",1,0,372,32,1,"1f94c85",212,1
"2143",1,0,385,25,1,"1f94c85",213,1
"2153",2,0,1270,15,1,"1f94c85",214,1
"2163",1,1,394,16,1,"1f94c85",215,1
"2173",1,1,374,1,1,"1f94c85",216,1
"2183",2,1,795,27,1,"1f94c85",217,1
"2193",2,1,979,36,1,"1f94c85",218,1
"2203",2,1,1324,28,1,"1f94c85",219,1
"2215",1,1,707,11,1,"1f94c85",220,1
"2223",1,1,559,18,1,"1f94c85",221,1
"2233",2,0,372,7,1,"1f94c85",222,1
"2243",1,1,332,3,1,"1f94c85",223,1
"2253",1,1,1195,17,1,"1f94c85",224,1
"2263",2,0,830,9,1,"1f94c85",225,1
"2273",1,0,642,34,1,"1f94c85",226,1
"2283",2,0,473,13,1,"1f94c85",227,1
"2293",1,0,628,19,1,"1f94c85",228,1
"2303",2,1,289,35,1,"1f94c85",229,1
"2315",1,0,1248,21,1,"1f94c85",230,1
"2323",1,0,1089,31,1,"1f94c85",231,1
"2333",1,0,1132,33,1,"1f94c85",232,1
"2343",2,0,1149,14,1,"1f94c85",233,1
"2353",2,0,678,6,1,"1f94c85",234,1
"2363",2,1,588,26,1,"1f94c85",235,1
"2373",1,1,771,4,1,"1f94c85",236,1
"2383",1,1,577,8,1,"1f94c85",237,1
"2393",2,0,1028,15,1,"1f94c85",238,1
"2403",2,1,883,32,1,"1f94c85",239,1
"2415",1,1,1437,5,1,"1f94c85",240,1
"2423",2,1,1099,22,1,"1f94c85",241,1
"2433",2,1,1319,20,1,"1f94c85",242,1
"2443",2,1,1252,30,1,"1f94c85",243,1
"2453",2,0,838,1,1,"1f94c85",244,1
"2463",1,0,1856,23,1,"1f94c85",245,1
"2473",1,1,772,2,1,"1f94c85",246,1
"2483",2,1,1438,29,1,"1f94c85",247,1
"2493",2,1,1506,24,1,"1f94c85",248,1
"2503",1,1,1288,12,1,"1f94c85",249,1
"2515",1,0,1517,25,1,"1f94c85",250,1
"2523",1,1,1109,10,1,"1f94c85",251,1
"2533",2,0,927,16,1,"1f94c85",252,1
"2543",2,1,997,22,1,"1f94c85",253,1
"2553",1,1,1375,1,1,"1f94c85",254,1
"2563",1,0,1113,33,1,"1f94c85",255,1
"2573",1,1,835,16,1,"1f94c85",256,1
"2583",2,1,1449,24,1,"1f94c85",257,1
"2593",1,0,986,34,1,"1f94c85",258,1
"2603",1,1,1076,6,1,"1f94c85",259,1
"2615",2,0,815,11,1,"1f94c85",260,1
"2623",2,0,574,17,1,"1f94c85",261,1
"2633",2,0,1230,5,1,"1f94c85",262,1
"2643",1,1,743,14,1,"1f94c85",263,1
"2653",1,0,352,25,1,"1f94c85",264,1
"2663",1,1,672,12,1,"1f94c85",265,1
"2673",1,0,619,20,1,"1f94c85",266,1
"2683",2,0,379,8,1,"1f94c85",267,1
"2693",2,1,1063,36,1,"1f94c85",268,1
"2703",1,1,1622,3,1,"1f94c85",269,1
"2715",1,1,1736,7,1,"1f94c85",270,1
"2723",1,0,1011,30,1,"1f94c85",271,1
"2733",1,0,443,35,1,"1f94c85",272,1
"2743",1,1,1529,4,1,"1f94c85",273,1
"2753",1,1,1031,2,1,"1f94c85",274,1
"2763",2,0,1088,10,1,"1f94c85",275,1
"2773",2,0,411,13,1,"1f94c85",276,1
"2783",1,0,633,29,1,"1f94c85",277,1
"2793",1,0,672,21,1,"1f94c85",278,1
"2803",2,1,1176,26,1,"1f94c85",279,1
"2815",2,1,226,18,1,"1f94c85",280,1
"2823",2,1,753,19,1,"1f94c85",281,1
"2833",2,0,575,9,1,"1f94c85",282,1
"2843",2,1,265,27,1,"1f94c85",283,1
"2853",1,1,539,15,1,"1f94c85",284,1
"2863",1,0,450,31,1,"1f94c85",285,1
"2873",1,0,308,23,1,"1f94c85",286,1
"2883",1,0,528,32,1,"1f94c85",287,1
"2893",1,0,936,28,1,"1f94c85",288,1
"296",1,0,574,27,1,"10c9941",1,1
"316",2,1,646,32,1,"10c9941",2,1
"416",2,0,440,6,1,"10c9941",3,1
"516",1,0,786,23,1,"10c9941",4,1
"616",2,1,659,26,1,"10c9941",5,1
"716",2,0,589,16,1,"10c9941",6,1
"816",1,0,719,30,1,"10c9941",7,1
"916",2,1,649,20,1,"10c9941",8,1
"1016",2,1,619,24,1,"10c9941",9,1
"1116",1,0,653,34,1,"10c9941",10,1
"1216",2,1,768,36,1,"10c9941",11,1
"1316",2,1,688,31,1,"10c9941",12,1
"1416",1,0,922,33,1,"10c9941",13,1
"1516",2,0,635,17,1,"10c9941",14,1
"1616",2,1,534,19,1,"10c9941",15,1
"1716",2,0,687,9,1,"10c9941",16,1
"1816",2,0,513,4,1,"10c9941",17,1
"1916",1,1,684,14,1,"10c9941",18,1
"2016",1,1,477,13,1,"10c9941",19,1
"2116",1,1,471,1,1,"10c9941",20,1
"2216",1,1,705,11,1,"10c9941",21,1
"2316",2,0,834,7,1,"10c9941",22,1
"2416",1,1,564,8,1,"10c9941",23,1
"2516",1,0,478,29,1,"10c9941",24,1
"2616",2,1,864,21,1,"10c9941",25,1
"2716",2,1,827,28,1,"10c9941",26,1
"2816",2,0,725,12,1,"10c9941",27,1
"297",2,0,655,10,1,"10c9941",28,1
"304",1,0,865,22,1,"10c9941",29,1
"317",2,0,876,5,1,"10c9941",30,1
"324",2,1,678,25,1,"10c9941",31,1
"334",2,0,1167,3,1,"10c9941",32,1
"344",1,0,1066,35,1,"10c9941",33,1
"354",2,1,650,18,1,"10c9941",34,1
"364",1,1,1582,15,1,"10c9941",35,1
"374",2,0,1393,2,1,"10c9941",36,1
"384",1,0,736,27,1,"10c9941",37,1
"394",2,1,881,32,1,"10c9941",38,1
"404",2,0,837,6,1,"10c9941",39,1
"417",1,0,791,23,1,"10c9941",40,1
"424",1,0,1217,26,1,"10c9941",41,1
"434",2,0,650,16,1,"10c9941",42,1
"444",2,1,741,30,1,"10c9941",43,1
"454",2,1,704,20,1,"10c9941",44,1
"464",2,1,1087,24,1,"10c9941",45,1
"474",1,0,529,34,1,"10c9941",46,1
"484",1,0,691,36,1,"10c9941",47,1
"494",2,1,607,31,1,"10c9941",48,1
"504",2,1,849,33,1,"10c9941",49,1
"517",2,0,803,17,1,"10c9941",50,1
"524",2,1,779,19,1,"10c9941",51,1
"534",1,1,1575,9,1,"10c9941",52,1
"544",1,1,960,4,1,"10c9941",53,1
"554",1,1,586,14,1,"10c9941",54,1
"564",2,0,667,13,1,"10c9941",55,1
"574",2,0,668,1,1,"10c9941",56,1
"584",1,1,437,11,1,"10c9941",57,1
"594",1,1,592,7,1,"10c9941",58,1
"604",1,1,594,8,1,"10c9941",59,1
"617",1,0,788,29,1,"10c9941",60,1
"624",2,1,494,21,1,"10c9941",61,1
"634",2,1,358,28,1,"10c9941",62,1
"644",2,0,496,12,1,"10c9941",63,1
"654",1,1,664,10,1,"10c9941",64,1
"664",2,1,1483,22,1,"10c9941",65,1
"674",2,0,637,5,1,"10c9941",66,1
"684",1,0,966,25,1,"10c9941",67,1
"694",2,0,657,3,1,"10c9941",68,1
"704",2,1,675,35,1,"10c9941",69,1
"717",2,1,966,18,1,"10c9941",70,1
"724",2,0,639,15,1,"10c9941",71,1
"734",2,0,1137,2,1,"10c9941",72,1
"744",1,0,484,36,1,"10c9941",73,1
"754",2,1,1022,31,1,"10c9941",74,1
"764",1,1,751,3,1,"10c9941",75,1
"774",2,0,521,13,1,"10c9941",76,1
"784",1,0,747,23,1,"10c9941",77,1
"794",2,0,798,6,1,"10c9941",78,1
"804",2,1,455,22,1,"10c9941",79,1
"817",2,0,1489,15,1,"10c9941",80,1
"824",2,1,1157,35,1,"10c9941",81,1
"834",2,1,1028,33,1,"10c9941",82,1
"844",2,0,1079,12,1,"10c9941",83,1
"854",1,0,944,20,1,"10c9941",84,1
"864",2,0,667,2,1,"10c9941",85,1
"874",2,1,507,21,1,"10c9941",86,1
"884",1,0,1197,32,1,"10c9941",87,1
"894",2,0,725,8,1,"10c9941",88,1
"904",2,1,617,34,1,"10c9941",89,1
"917",2,1,835,30,1,"10c9941",90,1
"924",2,1,1468,26,1,"10c9941",91,1
"934",2,1,751,28,1,"10c9941",92,1
"944",2,0,631,9,1,"10c9941",93,1
"954",1,0,369,29,1,"10c9941",94,1
"964",1,1,788,5,1,"10c9941",95,1
"974",2,0,1245,1,1,"10c9941",96,1
"984",1,0,878,19,1,"10c9941",97,1
"994",2,0,744,10,1,"10c9941",98,1
"1004",2,0,921,11,1,"10c9941",99,1
"1017",2,1,772,27,1,"10c9941",100,1
"1024",1,0,1556,24,1,"10c9941",101,1
"1034",1,1,1256,16,1,"10c9941",102,1
"1044",2,0,1129,4,1,"10c9941",103,1
"1054",2,0,906,14,1,"10c9941",104,1
"1064",1,1,620,7,1,"10c9941",105,1
"1074",2,1,678,25,1,"10c9941",106,1
"1084",1,1,640,17,1,"10c9941",107,1
"1094",2,1,625,18,1,"10c9941",108,1
"1104",1,1,826,12,1,"10c9941",109,1
"1117",2,1,1301,20,1,"10c9941",110,1
"1124",1,1,975,3,1,"10c9941",111,1
"1134",2,1,976,19,1,"10c9941",112,1
"1144",1,1,1352,1,1,"10c9941",113,1
"1154",1,0,1402,26,1,"10c9941",114,1
"1164",1,1,770,7,1,"10c9941",115,1
"1174",1,1,875,11,1,"10c9941",116,1
"1184",1,0,964,36,1,"10c9941",117,1
"1194",1,1,854,14,1,"10c9941",118,1
"1204",2,0,928,16,1,"10c9941",119,1
"1217",2,1,618,33,1,"10c9941",120,1
"1224",1,1,709,8,1,"10c9941",121,1
"1234",1,1,727,5,1,"10c9941",122,1
"1244",1,0,818,24,1,"10c9941",123,1
"1254",2,0,619,15,1,"10c9941",124,1
"1264",2,1,805,28,1,"10c9941",125,1
"1274",2,0,1703,4,1,"10c9941",126,1
"1284",1,0,1002,21,1,"10c9941",127,1
"1294",1,0,1036,35,1,"10c9941",128,1
"1304",1,0,1303,34,1,"10c9941",129,1
"1317",2,1,1064,22,1,"10c9941",130,1
"1324",2,0,955,10,1,"10c9941",131,1
"1334",2,0,1461,13,1,"10c9941",132,1
"1344",1,0,734,27,1,"10c9941",133,1
"1354",1,1,833,18,1,"10c9941",134,1
"1364",1,0,763,23,1,"10c9941",135,1
"1374",2,0,772,6,1,"10c9941",136,1
"1384",1,0,1223,30,1,"10c9941",137,1
"1394",1,1,1105,2,1,"10c9941",138,1
"1404",2,0,1220,17,1,"10c9941",139,1
"1417",2,0,1134,9,1,"10c9941",140,1
"1424",1,0,815,31,1,"10c9941",141,1
"1434",2,1,464,29,1,"10c9941",142,1
"1444",1,0,1042,32,1,"10c9941",143,1
"1454",1,0,883,25,1,"10c9941",144,1
"1464",1,1,559,5,1,"10c9941",145,1
"1474",2,1,840,36,1,"10c9941",146,1
"1484",1,0,953,29,1,"10c9941",147,1
"1494",1,0,853,35,1,"10c9941",148,1
"1504",2,0,782,4,1,"10c9941",149,1
"1517",2,1,742,33,1,"10c9941",150,1
"1524",2,1,1096,25,1,"10c9941",151,1
"1534",1,0,1345,34,1,"10c9941",152,1
"1544",2,0,813,6,1,"10c9941",153,1
"1554",1,0,934,27,1,"10c9941",154,1
"1564",2,1,944,30,1,"10c9941",155,1
"1574",2,0,834,13,1,"10c9941",156,1
"1584",2,0,875,11,1,"10c9941",157,1
"1594",2,0,684,8,1,"10c9941",158,1
"1604",2,0,792,2,1,"10c9941",159,1
"1617",1,0,529,20,1,"10c9941",160,1
"1624",1,1,844,16,1,"10c9941",161,1
"1634",2,1,1366,31,1,"10c9941",162,1
"1644",1,0,1512,32,1,"10c9941",163,1
"1654",2,1,1048,26,1,"10c9941",164,1
"1664",2,0,906,7,1,"10c9941",165,1
"1674",1,0,1149,24,1,"10c9941",166,1
"1684",1,1,734,9,1,"10c9941",167,1
"1694",1,1,832,18,1,"10c9941",168,1
"1704",2,0,553,1,1,"10c9941",169,1
"1717",1,1,852,3,1,"10c9941",170,1
"1724",1,0,1094,19,1,"10c9941",171,1
"1734",2,1,879,28,1,"10c9941",172,1
"1744",2,0,890,17,1,"10c9941",173,1
"1754",2,1,371,23,1,"10c9941",174,1
"1764",2,0,644,10,1,"10c9941",175,1
"1774",1,0,966,21,1,"10c9941",176,1
"1784",2,0,792,12,1,"10c9941",177,1
"1794",2,0,729,14,1,"10c9941",178,1
"1804",2,1,1308,22,1,"10c9941",179,1
"1817",1,1,1006,15,1,"10c9941",180,1
"1824",2,1,1600,29,1,"10c9941",181,1
"1834",1,1,986,18,1,"10c9941",182,1
"1844",1,1,1165,4,1,"10c9941",183,1
"1854",2,0,1380,12,1,"10c9941",184,1
"1864",2,1,1206,32,1,"10c9941",185,1
"1874",1,1,873,10,1,"10c9941",186,1
"1884",1,1,1466,5,1,"10c9941",187,1
"1894",1,1,1611,3,1,"10c9941",188,1
"1904",1,1,1166,7,1,"10c9941",189,1
"1917",2,1,1150,28,1,"10c9941",190,1
"1924",1,0,1466,25,1,"10c9941",191,1
"1934",2,0,916,15,1,"10c9941",192,1
"1944",2,1,1069,21,1,"10c9941",193,1
"1954",1,1,1094,14,1,"10c9941",194,1
"1964",2,1,1442,31,1,"10c9941",195,1
"1974",1,0,1099,33,1,"10c9941",196,1
"1984",2,0,1006,11,1,"10c9941",197,1
"1994",2,0,735,9,1,"10c9941",198,1
"2004",2,0,833,8,1,"10c9941",199,1
"2017",1,0,756,19,1,"10c9941",200,1
"2024",2,1,756,30,1,"10c9941",201,1
"2034",2,1,607,20,1,"10c9941",202,1
"2044",2,0,1035,2,1,"10c9941",203,1
"2054",1,0,828,35,1,"10c9941",204,1
"2064",2,1,596,34,1,"10c9941",205,1
"2074",1,1,919,16,1,"10c9941",206,1
"2084",2,0,1610,1,1,"10c9941",207,1
"2094",1,0,778,24,1,"10c9941",208,1
"2104",1,0,747,23,1,"10c9941",209,1
"2117",1,1,813,6,1,"10c9941",210,1
"2124",2,0,1735,17,1,"10c9941",211,1
"2134",1,0,873,26,1,"10c9941",212,1
"2144",2,1,900,36,1,"10c9941",213,1
"2154",2,1,902,22,1,"10c9941",214,1
"2164",1,0,1072,27,1,"10c9941",215,1
"2174",2,0,625,13,1,"10c9941",216,1
"2184",1,0,1003,33,1,"10c9941",217,1
"2194",2,1,821,29,1,"10c9941",218,1
"2204",1,0,872,26,1,"10c9941",219,1
"2217",2,1,899,25,1,"10c9941",220,1
"2224",2,0,1196,6,1,"10c9941",221,1
"2234",2,0,1120,1,1,"10c9941",222,1
"2244",1,1,833,16,1,"10c9941",223,1
"2254",2,1,859,31,1,"10c9941",224,1
"2264",2,1,1293,20,1,"10c9941",225,1
"2274",2,1,855,21,1,"10c9941",226,1
"2284",1,1,993,9,1,"10c9941",227,1
"2294",2,0,939,12,1,"10c9941",228,1
"2304",1,0,734,28,1,"10c9941",229,1
"2317",1,0,1839,27,1,"10c9941",230,1
"2324",1,1,953,18,1,"10c9941",231,1
"2334",2,0,611,13,1,"10c9941",232,1
"2344",1,1,749,2,1,"10c9941",233,1
"2354",2,1,901,19,1,"10c9941",234,1
"2364",2,0,920,14,1,"10c9941",235,1
"2374",2,0,914,5,1,"10c9941",236,1
"2384",1,1,732,7,1,"10c9941",237,1
"2394",2,1,1461,22,1,"10c9941",238,1
"2404",2,0,767,11,1,"10c9941",239,1
"2417",1,0,706,36,1,"10c9941",240,1
"2424",2,0,436,3,1,"10c9941",241,1
"2434",1,1,622,4,1,"10c9941",242,1
"2444",1,0,752,34,1,"10c9941",243,1
"2454",2,1,1010,30,1,"10c9941",244,1
"2464",1,1,788,15,1,"10c9941",245,1
"2474",2,0,638,8,1,"10c9941",246,1
"2484",1,1,928,10,1,"10c9941",247,1
"2494",1,0,771,32,1,"10c9941",248,1
"2504",2,0,518,17,1,"10c9941",249,1
"2517",2,1,503,24,1,"10c9941",250,1
"2524",1,0,617,23,1,"10c9941",251,1
"2534",2,1,325,35,1,"10c9941",252,1
"2544",1,1,710,18,1,"10c9941",253,1
"2554",2,1,424,28,1,"10c9941",254,1
"2564",2,1,491,35,1,"10c9941",255,1
"2574",2,0,420,16,1,"10c9941",256,1
"2584",1,1,798,10,1,"10c9941",257,1
"2594",2,1,649,29,1,"10c9941",258,1
"2604",2,0,448,9,1,"10c9941",259,1
"2617",1,1,457,2,1,"10c9941",260,1
"2624",1,0,722,22,1,"10c9941",261,1
"2634",2,0,309,13,1,"10c9941",262,1
"2644",2,1,238,25,1,"10c9941",263,1
"2654",1,1,424,8,1,"10c9941",264,1
"2664",2,0,338,4,1,"10c9941",265,1
"2674",1,0,740,33,1,"10c9941",266,1
"2684",2,1,622,26,1,"10c9941",267,1
"2694",1,0,609,21,1,"10c9941",268,1
"2704",2,1,435,30,1,"10c9941",269,1
"2717",2,1,733,20,1,"10c9941",270,1
"2724",1,1,928,17,1,"10c9941",271,1
"2734",1,1,657,11,1,"10c9941",272,1
"2744",2,1,795,36,1,"10c9941",273,1
"2754",1,1,1915,12,1,"10c9941",274,1
"2764",2,1,821,27,1,"10c9941",275,1
"2774",1,0,390,24,1,"10c9941",276,1
"2784",2,0,321,1,1,"10c9941",277,1
"2794",2,1,398,34,1,"10c9941",278,1
"2804",1,1,1175,6,1,"10c9941",279,1
"2817",1,0,1184,23,1,"10c9941",280,1
"2824",1,1,722,5,1,"10c9941",281,1
"2834",2,0,427,7,1,"10c9941",282,1
"2844",2,1,669,32,1,"10c9941",283,1
"2854",1,1,687,14,1,"10c9941",284,1
"2864",2,0,681,15,1,"10c9941",285,1
"2874",1,0,282,19,1,"10c9941",286,1
"2884",2,1,477,31,1,"10c9941",287,1
"2894",1,1,583,3,1,"10c9941",288,1
"298",2,1,1007,33,1,"15fd473",1,1
"318",2,0,491,6,1,"15fd473",2,1
"418",2,1,652,29,1,"15fd473",3,1
"518",2,0,765,4,1,"15fd473",4,1
"618",1,0,608,20,1,"15fd473",5,1
"718",1,1,881,5,1,"15fd473",6,1
"818",2,1,687,19,1,"15fd473",7,1
"918",2,1,703,28,1,"15fd473",8,1
"1018",2,1,471,35,1,"15fd473",9,1
"1118",2,0,514,14,1,"15fd473",10,1
"1218",2,0,707,3,1,"15fd473",11,1
"1318",1,0,490,22,1,"15fd473",12,1
"1418",2,0,549,16,1,"15fd473",13,1
"1518",1,1,677,18,1,"15fd473",14,1
"1618",2,0,1272,10,1,"15fd473",15,1
"1718",1,0,486,23,1,"15fd473",16,1
"1818",1,0,710,30,1,"15fd473",17,1
"1918",2,0,895,11,1,"15fd473",18,1
"2018",1,1,1143,17,1,"15fd473",19,1
"2118",2,0,925,8,1,"15fd473",20,1
"2218",2,0,911,1,1,"15fd473",21,1
"2318",2,1,1032,27,1,"15fd473",22,1
"2418",1,1,809,12,1,"15fd473",23,1
"2518",1,0,617,21,1,"15fd473",24,1
"2618",1,1,1175,7,1,"15fd473",25,1
"2718",2,1,1131,26,1,"15fd473",26,1
"2818",1,0,867,31,1,"15fd473",27,1
"299",1,0,636,25,1,"15fd473",28,1
"305",1,0,884,36,1,"15fd473",29,1
"319",2,0,723,15,1,"15fd473",30,1
"325",2,0,702,13,1,"15fd473",31,1
"335",1,0,755,24,1,"15fd473",32,1
"345",2,0,851,2,1,"15fd473",33,1
"355",1,0,936,34,1,"15fd473",34,1
"365",1,1,1202,9,1,"15fd473",35,1
"375",1,0,727,32,1,"15fd473",36,1
"385",1,0,927,33,1,"15fd473",37,1
"395",2,0,884,6,1,"15fd473",38,1
"405",1,0,1465,29,1,"15fd473",39,1
"419",1,1,897,4,1,"15fd473",40,1
"425",1,0,861,20,1,"15fd473",41,1
"435",1,1,811,5,1,"15fd473",42,1
"445",1,0,1728,19,1,"15fd473",43,1
"455",2,1,754,28,1,"15fd473",44,1
"465",2,1,847,35,1,"15fd473",45,1
"475",1,1,819,14,1,"15fd473",46,1
"485",2,0,875,3,1,"15fd473",47,1
"495",1,0,733,22,1,"15fd473",48,1
"505",2,0,951,16,1,"15fd473",49,1
"519",1,1,626,18,1,"15fd473",50,1
"525",1,1,937,10,1,"15fd473",51,1
"535",1,0,531,23,1,"15fd473",52,1
"545",1,0,625,30,1,"15fd473",53,1
"555",1,1,636,11,1,"15fd473",54,1
"565",2,0,718,17,1,"15fd473",55,1
"575",1,1,489,8,1,"15fd473",56,1
"585",1,1,1262,1,1,"15fd473",57,1
"595",2,1,834,27,1,"15fd473",58,1
"605",1,1,618,12,1,"15fd473",59,1
"619",1,0,568,21,1,"15fd473",60,1
"625",1,1,820,7,1,"15fd473",61,1
"635",2,1,682,26,1,"15fd473",62,1
"645",1,0,689,31,1,"15fd473",63,1
"655",1,0,630,25,1,"15fd473",64,1
"665",2,1,623,36,1,"15fd473",65,1
"675",2,0,882,15,1,"15fd473",66,1
"685",1,1,841,13,1,"15fd473",67,1
"695",1,0,837,24,1,"15fd473",68,1
"705",1,1,476,2,1,"15fd473",69,1
"719",2,1,790,34,1,"15fd473",70,1
"725",1,1,584,9,1,"15fd473",71,1
"735",1,0,784,32,1,"15fd473",72,1
"745",1,1,1037,7,1,"15fd473",73,1
"755",1,0,702,27,1,"15fd473",74,1
"765",1,1,552,1,1,"15fd473",75,1
"775",2,1,643,26,1,"15fd473",76,1
"785",2,1,535,34,1,"15fd473",77,1
"795",2,0,521,6,1,"15fd473",78,1
"805",1,1,510,2,1,"15fd473",79,1
"819",2,0,769,16,1,"15fd473",80,1
"825",1,0,1030,24,1,"15fd473",81,1
"835",1,1,700,5,1,"15fd473",82,1
"845",1,0,578,25,1,"15fd473",83,1
"855",1,1,1268,15,1,"15fd473",84,1
"865",1,0,882,29,1,"15fd473",85,1
"875",1,1,703,12,1,"15fd473",86,1
"885",2,1,623,35,1,"15fd473",87,1
"895",1,1,1092,9,1,"15fd473",88,1
"905",2,1,1133,36,1,"15fd473",89,1
"919",2,1,1304,19,1,"15fd473",90,1
"925",1,0,674,32,1,"15fd473",91,1
"935",2,0,662,3,1,"15fd473",92,1
"945",1,0,455,31,1,"15fd473",93,1
"955",2,0,708,10,1,"15fd473",94,1
"965",2,1,608,28,1,"15fd473",95,1
"975",1,0,671,23,1,"15fd473",96,1
"985",2,1,660,33,1,"15fd473",97,1
"995",1,1,527,4,1,"15fd473",98,1
"1005",1,1,535,13,1,"15fd473",99,1
"1019",1,0,966,20,1,"15fd473",100,1
"1025",1,0,483,21,1,"15fd473",101,1
"1035",1,1,623,8,1,"15fd473",102,1
"1045",1,0,645,30,1,"15fd473",103,1
"1055",2,0,550,14,1,"15fd473",104,1
"1065",1,1,750,11,1,"15fd473",105,1
"1075",1,1,831,18,1,"15fd473",106,1
"1085",1,0,433,22,1,"15fd473",107,1
"1095",2,0,608,17,1,"15fd473",108,1
"1105",1,0,430,20,1,"15fd473",109,1
"1119",1,0,878,29,1,"15fd473",110,1
"1125",1,0,519,25,1,"15fd473",111,1
"1135",1,1,610,2,1,"15fd473",112,1
"1145",1,1,503,5,1,"15fd473",113,1
"1155",2,1,1137,30,1,"15fd473",114,1
"1165",2,0,713,6,1,"15fd473",115,1
"1175",1,1,568,9,1,"15fd473",116,1
"1185",1,0,520,24,1,"15fd473",117,1
"1195",1,0,620,22,1,"15fd473",118,1
"1205",1,0,822,27,1,"15fd473",119,1
"1219",2,1,1080,33,1,"15fd473",120,1
"1225",1,0,663,32,1,"15fd473",121,1
"1235",2,0,673,7,1,"15fd473",122,1
"1245",2,0,549,3,1,"15fd473",123,1
"1255",2,1,632,28,1,"15fd473",124,1
"1265",1,1,640,4,1,"15fd473",125,1
"1275",1,1,477,12,1,"15fd473",126,1
"1285",2,1,663,19,1,"15fd473",127,1
"1295",1,1,429,11,1,"15fd473",128,1
"1305",2,0,559,14,1,"15fd473",129,1
"1319",1,0,647,35,1,"15fd473",130,1
"1325",1,1,524,15,1,"15fd473",131,1
"1335",2,0,832,17,1,"15fd473",132,1
"1345",1,0,561,23,1,"15fd473",133,1
"1355",2,1,734,34,1,"15fd473",134,1
"1365",1,1,644,13,1,"15fd473",135,1
"1375",1,1,524,1,1,"15fd473",136,1
"1385",1,0,977,31,1,"15fd473",137,1
"1395",1,1,571,18,1,"15fd473",138,1
"1405",2,0,522,16,1,"15fd473",139,1
"1419",1,1,524,10,1,"15fd473",140,1
"1425",1,0,382,21,1,"15fd473",141,1
"1435",2,1,664,36,1,"15fd473",142,1
"1445",1,0,1043,26,1,"15fd473",143,1
"1455",1,1,956,8,1,"15fd473",144,1
"1465",1,1,941,7,1,"15fd473",145,1
"1475",1,0,990,32,1,"15fd473",146,1
"1485",2,1,855,35,1,"15fd473",147,1
"1495",2,0,911,8,1,"15fd473",148,1
"1505",1,0,613,21,1,"15fd473",149,1
"1519",2,1,1188,33,1,"15fd473",150,1
"1525",2,1,1635,36,1,"15fd473",151,1
"1535",2,0,692,16,1,"15fd473",152,1
"1545",2,1,2029,27,1,"15fd473",153,1
"1555",2,0,732,10,1,"15fd473",154,1
"1565",2,0,980,1,1,"15fd473",155,1
"1575",1,0,925,29,1,"15fd473",156,1
"1585",2,0,1191,11,1,"15fd473",157,1
"1595",1,0,1818,25,1,"15fd473",158,1
"1605",2,1,1490,19,1,"15fd473",159,1
"1619",1,0,2098,30,1,"15fd473",160,1
"1625",2,1,691,26,1,"15fd473",161,1
"1635",1,1,957,13,1,"15fd473",162,1
"1645",2,1,1148,22,1,"15fd473",163,1
"1655",2,1,1374,34,1,"15fd473",164,1
"1665",1,1,1965,12,1,"15fd473",165,1
"1675",1,0,1136,31,1,"15fd473",166,1
"1685",2,0,928,4,1,"15fd473",167,1
"1695",2,0,1021,17,1,"15fd473",168,1
"1705",2,0,671,3,1,"15fd473",169,1
"1719",1,0,924,24,1,"15fd473",170,1
"1725",2,0,903,15,1,"15fd473",171,1
"1735",1,1,920,9,1,"15fd473",172,1
"1745",2,1,921,28,1,"15fd473",173,1
"1755",1,1,763,2,1,"15fd473",174,1
"1765",1,0,578,23,1,"15fd473",175,1
"1775",1,1,554,18,1,"15fd473",176,1
"1785",2,0,743,6,1,"15fd473",177,1
"1795",1,1,775,14,1,"15fd473",178,1
"1805",1,0,613,20,1,"15fd473",179,1
"1819",1,1,533,5,1,"15fd473",180,1
"1825",2,1,688,26,1,"15fd473",181,1
"1835",1,1,690,1,1,"15fd473",182,1
"1845",1,1,652,5,1,"15fd473",183,1
"1855",1,1,688,11,1,"15fd473",184,1
"1865",1,0,436,25,1,"15fd473",185,1
"1875",2,0,730,4,1,"15fd473",186,1
"1885",1,1,577,2,1,"15fd473",187,1
"1895",1,1,952,8,1,"15fd473",188,1
"1905",2,1,680,35,1,"15fd473",189,1
"1919",2,0,557,16,1,"15fd473",190,1
"1925",2,0,845,3,1,"15fd473",191,1
"1935",2,1,716,34,1,"15fd473",192,1
"1945",2,1,2193,33,1,"15fd473",193,1
"1955",2,0,940,15,1,"15fd473",194,1
"1965",1,1,460,10,1,"15fd473",195,1
"1975",1,0,1113,31,1,"15fd473",196,1
"1985",2,1,642,32,1,"15fd473",197,1
"1995",2,1,1072,27,1,"15fd473",198,1
"2005",2,0,1010,6,1,"15fd473",199,1
"2019",1,0,354,19,1,"15fd473",200,1
"2025",1,1,810,12,1,"15fd473",201,1
"2035",2,1,1248,22,1,"15fd473",202,1
"2045",1,0,808,23,1,"15fd473",203,1
"2055",2,0,1021,13,1,"15fd473",204,1
"2065",2,0,688,9,1,"15fd473",205,1
"2075",2,1,757,20,1,"15fd473",206,1
"2085",1,0,878,30,1,"15fd473",207,1
"2095",2,0,819,7,1,"15fd473",208,1
"2105",2,1,612,29,1,"15fd473",209,1
"2119",2,0,783,17,1,"15fd473",210,1
"2125",1,0,551,24,1,"15fd473",211,1
"2135",2,0,688,14,1,"15fd473",212,1
"2145",2,1,558,36,1,"15fd473",213,1
"2155",2,1,609,28,1,"15fd473",214,1
"2165",1,1,761,18,1,"15fd473",215,1
"2175",1,0,662,21,1,"15fd473",216,1
"2185",1,1,501,12,1,"15fd473",217,1
"2195",1,1,1212,9,1,"15fd473",218,1
"2205",1,0,542,25,1,"15fd473",219,1
"2219",1,1,470,5,1,"15fd473",220,1
"2225",1,1,475,18,1,"15fd473",221,1
"2235",1,1,413,11,1,"15fd473",222,1
"2245",2,1,980,26,1,"15fd473",223,1
"2255",2,0,771,6,1,"15fd473",224,1
"2265",1,1,838,4,1,"15fd473",225,1
"2275",1,0,1022,34,1,"15fd473",226,1
"2285",NA,-1,0,32,1,"15fd473",227,1
"2295",1,1,673,8,1,"15fd473",228,1
"2305",1,1,491,1,1,"15fd473",229,1
"2319",1,0,565,24,1,"15fd473",230,1
"2325",1,1,626,2,1,"15fd473",231,1
"2335",2,0,1675,14,1,"15fd473",232,1
"2345",2,0,935,15,1,"15fd473",233,1
"2355",2,1,740,35,1,"15fd473",234,1
"2365",2,1,851,33,1,"15fd473",235,1
"2375",1,1,1134,3,1,"15fd473",236,1
"2385",1,1,516,13,1,"15fd473",237,1
"2395",2,1,1667,31,1,"15fd473",238,1
"2405",2,1,1219,23,1,"15fd473",239,1
"2419",2,1,521,28,1,"15fd473",240,1
"2425",2,1,1427,22,1,"15fd473",241,1
"2435",1,0,580,30,1,"15fd473",242,1
"2445",2,1,508,19,1,"15fd473",243,1
"2455",1,0,1129,29,1,"15fd473",244,1
"2465",2,0,661,10,1,"15fd473",245,1
"2475",2,0,663,17,1,"15fd473",246,1
"2485",1,0,455,21,1,"15fd473",247,1
"2495",2,0,543,16,1,"15fd473",248,1
"2505",1,0,665,27,1,"15fd473",249,1
"2519",2,1,1872,36,1,"15fd473",250,1
"2525",1,0,600,20,1,"15fd473",251,1
"2535",2,0,623,7,1,"15fd473",252,1
"2545",2,0,737,3,1,"15fd473",253,1
"2555",2,0,624,14,1,"15fd473",254,1
"2565",1,0,584,31,1,"15fd473",255,1
"2575",1,0,670,30,1,"15fd473",256,1
"2585",2,1,639,19,1,"15fd473",257,1
"2595",2,1,693,28,1,"15fd473",258,1
"2605",1,1,1620,18,1,"15fd473",259,1
"2619",1,0,553,25,1,"15fd473",260,1
"2625",2,0,781,17,1,"15fd473",261,1
"2635",1,0,624,36,1,"15fd473",262,1
"2645",2,0,515,6,1,"15fd473",263,1
"2655",1,0,501,23,1,"15fd473",264,1
"2665",1,1,446,8,1,"15fd473",265,1
"2675",1,1,435,2,1,"15fd473",266,1
"2685",2,0,586,15,1,"15fd473",267,1
"2695",2,1,793,27,1,"15fd473",268,1
"2705",1,1,556,12,1,"15fd473",269,1
"2719",2,0,730,16,1,"15fd473",270,1
"2725",2,1,1886,21,1,"15fd473",271,1
"2735",1,1,1214,4,1,"15fd473",272,1
"2745",2,1,1386,24,1,"15fd473",273,1
"2755",1,0,726,32,1,"15fd473",274,1
"2765",2,0,528,10,1,"15fd473",275,1
"2775",1,0,481,20,1,"15fd473",276,1
"2785",1,1,662,1,1,"15fd473",277,1
"2795",1,0,1047,26,1,"15fd473",278,1
"2805",1,1,530,5,1,"15fd473",279,1
"2819",1,1,1547,7,1,"15fd473",280,1
"2825",1,1,917,9,1,"15fd473",281,1
"2835",2,1,1800,22,1,"15fd473",282,1
"2845",2,1,739,33,1,"15fd473",283,1
"2855",1,0,1022,29,1,"15fd473",284,1
"2865",1,1,1625,11,1,"15fd473",285,1
"2875",2,1,817,34,1,"15fd473",286,1
"2885",2,1,613,35,1,"15fd473",287,1
"2895",1,1,501,13,1,"15fd473",288,1
"2100",1,0,1484,25,1,"1b4a3af",1,1
"320",1,0,875,35,1,"1b4a3af",2,1
"420",1,1,961,2,1,"1b4a3af",3,1
"520",1,1,827,11,1,"1b4a3af",4,1
"620",2,1,790,29,1,"1b4a3af",5,1
"720",2,0,823,14,1,"1b4a3af",6,1
"820",2,0,1260,7,1,"1b4a3af",7,1
"920",2,1,935,31,1,"1b4a3af",8,1
"1020",2,0,1219,5,1,"1b4a3af",9,1
"1120",1,0,1289,20,1,"1b4a3af",10,1
"1220",2,0,1103,9,1,"1b4a3af",11,1
"1320",2,0,1076,12,1,"1b4a3af",12,1
"1420",2,0,980,16,1,"1b4a3af",13,1
"1520",1,0,763,32,1,"1b4a3af",14,1
"1620",2,1,634,22,1,"1b4a3af",15,1
"1720",2,0,988,15,1,"1b4a3af",16,1
"1820",1,0,842,21,1,"1b4a3af",17,1
"1920",1,0,599,24,1,"1b4a3af",18,1
"2020",1,1,742,18,1,"1b4a3af",19,1
"2120",2,1,1108,34,1,"1b4a3af",20,1
"2220",1,0,968,27,1,"1b4a3af",21,1
"2320",2,0,606,10,1,"1b4a3af",22,1
"2420",2,1,584,26,1,"1b4a3af",23,1
"2520",1,0,892,23,1,"1b4a3af",24,1
"2620",1,1,987,4,1,"1b4a3af",25,1
"2720",2,1,585,33,1,"1b4a3af",26,1
"2820",1,1,641,8,1,"1b4a3af",27,1
"2910",2,0,720,6,1,"1b4a3af",28,1
"306",1,1,967,1,1,"1b4a3af",29,1
"3110",1,0,1039,30,1,"1b4a3af",30,1
"326",2,0,812,17,1,"1b4a3af",31,1
"336",2,0,876,3,1,"1b4a3af",32,1
"346",2,0,967,13,1,"1b4a3af",33,1
"356",1,0,1030,36,1,"1b4a3af",34,1
"366",2,1,1229,28,1,"1b4a3af",35,1
"376",1,0,1542,19,1,"1b4a3af",36,1
"386",1,0,978,25,1,"1b4a3af",37,1
"396",1,0,1527,35,1,"1b4a3af",38,1
"406",1,1,878,2,1,"1b4a3af",39,1
"4110",1,1,955,11,1,"1b4a3af",40,1
"426",2,1,490,29,1,"1b4a3af",41,1
"436",2,0,703,14,1,"1b4a3af",42,1
"446",1,1,960,7,1,"1b4a3af",43,1
"456",1,0,992,31,1,"1b4a3af",44,1
"466",1,1,1060,5,1,"1b4a3af",45,1
"476",1,0,957,20,1,"1b4a3af",46,1
"486",1,1,661,9,1,"1b4a3af",47,1
"496",1,1,726,12,1,"1b4a3af",48,1
"506",2,0,858,16,1,"1b4a3af",49,1
"5110",2,1,494,32,1,"1b4a3af",50,1
"526",2,1,679,22,1,"1b4a3af",51,1
"536",2,0,737,15,1,"1b4a3af",52,1
"546",2,1,364,21,1,"1b4a3af",53,1
"556",2,1,641,24,1,"1b4a3af",54,1
"566",1,1,619,18,1,"1b4a3af",55,1
"576",2,1,722,34,1,"1b4a3af",56,1
"586",2,1,1174,27,1,"1b4a3af",57,1
"596",2,0,726,10,1,"1b4a3af",58,1
"606",2,1,565,26,1,"1b4a3af",59,1
"6110",1,0,612,23,1,"1b4a3af",60,1
"626",2,0,984,4,1,"1b4a3af",61,1
"636",2,1,566,33,1,"1b4a3af",62,1
"646",1,1,769,8,1,"1b4a3af",63,1
"656",2,0,690,6,1,"1b4a3af",64,1
"666",2,0,860,1,1,"1b4a3af",65,1
"676",1,0,534,30,1,"1b4a3af",66,1
"686",1,1,476,17,1,"1b4a3af",67,1
"696",1,1,866,3,1,"1b4a3af",68,1
"706",1,1,789,13,1,"1b4a3af",69,1
"7110",1,0,923,36,1,"1b4a3af",70,1
"726",2,1,899,28,1,"1b4a3af",71,1
"736",2,1,1141,19,1,"1b4a3af",72,1
"746",2,0,1081,4,1,"1b4a3af",73,1
"756",1,0,1068,29,1,"1b4a3af",74,1
"766",1,0,423,36,1,"1b4a3af",75,1
"776",1,1,517,18,1,"1b4a3af",76,1
"786",2,1,692,24,1,"1b4a3af",77,1
"796",1,0,794,22,1,"1b4a3af",78,1
"806",2,0,886,2,1,"1b4a3af",79,1
"8110",2,0,748,8,1,"1b4a3af",80,1
"826",2,1,1006,30,1,"1b4a3af",81,1
"836",1,0,815,21,1,"1b4a3af",82,1
"846",1,0,953,32,1,"1b4a3af",83,1
"856",2,0,591,3,1,"1b4a3af",84,1
"866",1,0,907,25,1,"1b4a3af",85,1
"876",1,0,370,20,1,"1b4a3af",86,1
"886",1,0,691,27,1,"1b4a3af",87,1
"896",1,0,544,33,1,"1b4a3af",88,1
"906",2,0,884,6,1,"1b4a3af",89,1
"9110",1,1,695,7,1,"1b4a3af",90,1
"926",1,1,620,9,1,"1b4a3af",91,1
"936",2,1,687,28,1,"1b4a3af",92,1
"946",1,1,1034,5,1,"1b4a3af",93,1
"956",2,1,737,26,1,"1b4a3af",94,1
"966",2,1,1161,31,1,"1b4a3af",95,1
"976",1,1,894,11,1,"1b4a3af",96,1
"986",2,1,745,34,1,"1b4a3af",97,1
"996",2,0,888,1,1,"1b4a3af",98,1
"1006",2,0,483,17,1,"1b4a3af",99,1
"10110",2,1,713,35,1,"1b4a3af",100,1
"1026",2,0,647,16,1,"1b4a3af",101,1
"1036",2,0,577,14,1,"1b4a3af",102,1
"1046",1,0,624,23,1,"1b4a3af",103,1
"1056",1,1,715,12,1,"1b4a3af",104,1
"1066",2,0,838,10,1,"1b4a3af",105,1
"1076",2,0,360,15,1,"1b4a3af",106,1
"1086",2,0,395,13,1,"1b4a3af",107,1
"1096",2,1,423,19,1,"1b4a3af",108,1
"1106",2,1,802,28,1,"1b4a3af",109,1
"11110",2,0,474,16,1,"1b4a3af",110,1
"1126",1,1,829,15,1,"1b4a3af",111,1
"1136",1,1,883,8,1,"1b4a3af",112,1
"1146",2,0,627,6,1,"1b4a3af",113,1
"1156",2,1,777,20,1,"1b4a3af",114,1
"1166",2,1,747,24,1,"1b4a3af",115,1
"1176",2,0,772,10,1,"1b4a3af",116,1
"1186",2,1,606,27,1,"1b4a3af",117,1
"1196",1,1,618,11,1,"1b4a3af",118,1
"1206",2,0,619,17,1,"1b4a3af",119,1
"12110",2,1,495,36,1,"1b4a3af",120,1
"1226",2,1,624,35,1,"1b4a3af",121,1
"1236",1,0,314,33,1,"1b4a3af",122,1
"1246",1,1,704,1,1,"1b4a3af",123,1
"1256",1,1,487,12,1,"1b4a3af",124,1
"1266",2,1,950,23,1,"1b4a3af",125,1
"1276",1,0,700,30,1,"1b4a3af",126,1
"1286",2,0,1072,13,1,"1b4a3af",127,1
"1296",2,1,759,19,1,"1b4a3af",128,1
"1306",1,0,943,32,1,"1b4a3af",129,1
"13110",2,0,722,4,1,"1b4a3af",130,1
"1326",2,1,451,29,1,"1b4a3af",131,1
"1336",1,1,703,2,1,"1b4a3af",132,1
"1346",1,0,959,22,1,"1b4a3af",133,1
"1356",1,1,878,18,1,"1b4a3af",134,1
"1366",2,1,868,21,1,"1b4a3af",135,1
"1376",2,1,923,34,1,"1b4a3af",136,1
"1386",2,0,793,3,1,"1b4a3af",137,1
"1396",2,1,598,31,1,"1b4a3af",138,1
"1406",1,0,728,25,1,"1b4a3af",139,1
"14110",1,1,486,7,1,"1b4a3af",140,1
"1426",2,0,955,5,1,"1b4a3af",141,1
"1436",2,0,993,14,1,"1b4a3af",142,1
"1446",2,1,578,26,1,"1b4a3af",143,1
"1456",1,1,710,9,1,"1b4a3af",144,1
"1466",1,1,623,1,1,"1b4a3af",145,1
"1476",2,1,1059,22,1,"1b4a3af",146,1
"1486",1,0,925,23,1,"1b4a3af",147,1
"1496",2,1,1284,29,1,"1b4a3af",148,1
"1506",1,0,1146,25,1,"1b4a3af",149,1
"15110",1,1,827,14,1,"1b4a3af",150,1
"1526",2,0,434,10,1,"1b4a3af",151,1
"1536",2,1,801,31,1,"1b4a3af",152,1
"1546",2,0,542,15,1,"1b4a3af",153,1
"1556",2,0,559,9,1,"1b4a3af",154,1
"1566",2,1,720,34,1,"1b4a3af",155,1
"1576",1,0,1201,26,1,"1b4a3af",156,1
"1586",1,1,795,4,1,"1b4a3af",157,1
"1596",1,0,806,36,1,"1b4a3af",158,1
"1606",2,1,814,21,1,"1b4a3af",159,1
"16110",2,0,800,13,1,"1b4a3af",160,1
"1626",2,1,563,27,1,"1b4a3af",161,1
"1636",1,1,376,3,1,"1b4a3af",162,1
"1646",2,1,1169,18,1,"1b4a3af",163,1
"1656",1,0,687,20,1,"1b4a3af",164,1
"1666",1,1,742,5,1,"1b4a3af",165,1
"1676",2,1,665,28,1,"1b4a3af",166,1
"1686",2,0,751,8,1,"1b4a3af",167,1
"1696",2,1,446,33,1,"1b4a3af",168,1
"1706",1,1,1199,7,1,"1b4a3af",169,1
"17110",2,1,1050,35,1,"1b4a3af",170,1
"1726",2,0,897,2,1,"1b4a3af",171,1
"1736",2,0,663,17,1,"1b4a3af",172,1
"1746",2,1,720,32,1,"1b4a3af",173,1
"1756",1,1,769,11,1,"1b4a3af",174,1
"1766",2,1,803,19,1,"1b4a3af",175,1
"1776",2,0,665,6,1,"1b4a3af",176,1
"1786",1,0,581,30,1,"1b4a3af",177,1
"1796",1,1,601,12,1,"1b4a3af",178,1
"1806",2,1,531,24,1,"1b4a3af",179,1
"18110",2,0,692,16,1,"1b4a3af",180,1
"1826",2,1,1090,29,1,"1b4a3af",181,1
"1836",2,1,1196,27,1,"1b4a3af",182,1
"1846",1,0,758,32,1,"1b4a3af",183,1
"1856",1,1,490,1,1,"1b4a3af",184,1
"1866",1,1,549,7,1,"1b4a3af",185,1
"1876",1,0,995,24,1,"1b4a3af",186,1
"1886",2,1,646,20,1,"1b4a3af",187,1
"1896",2,1,863,34,1,"1b4a3af",188,1
"1906",2,0,924,12,1,"1b4a3af",189,1
"19110",2,1,472,21,1,"1b4a3af",190,1
"1926",1,0,564,19,1,"1b4a3af",191,1
"1936",1,0,493,25,1,"1b4a3af",192,1
"1946",1,1,496,11,1,"1b4a3af",193,1
"1956",2,0,669,3,1,"1b4a3af",194,1
"1966",2,1,523,33,1,"1b4a3af",195,1
"1976",2,1,528,26,1,"1b4a3af",196,1
"1986",1,1,816,10,1,"1b4a3af",197,1
"1996",2,0,1154,6,1,"1b4a3af",198,1
"2006",2,0,661,13,1,"1b4a3af",199,1
"20110",2,1,535,36,1,"1b4a3af",200,1
"2026",1,1,427,14,1,"1b4a3af",201,1
"2036",2,1,606,30,1,"1b4a3af",202,1
"2046",2,1,571,35,1,"1b4a3af",203,1
"2056",1,1,1153,17,1,"1b4a3af",204,1
"2066",2,0,897,8,1,"1b4a3af",205,1
"2076",2,0,557,5,1,"1b4a3af",206,1
"2086",2,1,615,18,1,"1b4a3af",207,1
"2096",1,1,896,2,1,"1b4a3af",208,1
"2106",2,1,961,28,1,"1b4a3af",209,1
"21110",2,0,863,15,1,"1b4a3af",210,1
"2126",2,1,691,31,1,"1b4a3af",211,1
"2136",1,0,846,23,1,"1b4a3af",212,1
"2146",2,0,930,4,1,"1b4a3af",213,1
"2156",2,0,631,9,1,"1b4a3af",214,1
"2166",2,0,202,16,1,"1b4a3af",215,1
"2176",2,1,658,22,1,"1b4a3af",216,1
"2186",2,0,718,8,1,"1b4a3af",217,1
"2196",2,1,1124,26,1,"1b4a3af",218,1
"2206",1,0,672,34,1,"1b4a3af",219,1
"22110",1,0,1088,33,1,"1b4a3af",220,1
"2226",NA,-1,0,17,1,"1b4a3af",221,1
"2236",2,1,640,35,1,"1b4a3af",222,1
"2246",1,0,1127,28,1,"1b4a3af",223,1
"2256",1,1,968,12,1,"1b4a3af",224,1
"2266",2,0,890,11,1,"1b4a3af",225,1
"2276",1,0,664,19,1,"1b4a3af",226,1
"2286",1,0,887,27,1,"1b4a3af",227,1
"2296",1,1,530,5,1,"1b4a3af",228,1
"2306",2,1,1077,31,1,"1b4a3af",229,1
"23110",2,1,745,32,1,"1b4a3af",230,1
"2326",1,0,632,29,1,"1b4a3af",231,1
"2336",1,1,423,1,1,"1b4a3af",232,1
"2346",2,0,511,14,1,"1b4a3af",233,1
"2356",2,0,668,10,1,"1b4a3af",234,1
"2366",2,1,819,25,1,"1b4a3af",235,1
"2376",2,0,1111,15,1,"1b4a3af",236,1
"2386",2,1,1267,20,1,"1b4a3af",237,1
"2396",1,1,737,9,1,"1b4a3af",238,1
"2406",1,0,621,36,1,"1b4a3af",239,1
"24110",1,0,880,30,1,"1b4a3af",240,1
"2426",1,0,1030,22,1,"1b4a3af",241,1
"2436",1,1,779,2,1,"1b4a3af",242,1
"2446",2,1,908,24,1,"1b4a3af",243,1
"2456",1,0,1469,23,1,"1b4a3af",244,1
"2466",1,1,1062,3,1,"1b4a3af",245,1
"2476",2,0,920,4,1,"1b4a3af",246,1
"2486",2,0,1227,13,1,"1b4a3af",247,1
"2496",2,0,1421,6,1,"1b4a3af",248,1
"2506",1,1,1059,18,1,"1b4a3af",249,1
"25110",2,1,1192,21,1,"1b4a3af",250,1
"2526",2,0,1185,7,1,"1b4a3af",251,1
"2536",1,1,1458,16,1,"1b4a3af",252,1
"2546",1,1,1561,2,1,"1b4a3af",253,1
"2556",2,0,1101,5,1,"1b4a3af",254,1
"2566",2,0,1021,17,1,"1b4a3af",255,1
"2576",1,1,1110,18,1,"1b4a3af",256,1
"2586",2,0,1101,6,1,"1b4a3af",257,1
"2596",2,0,638,13,1,"1b4a3af",258,1
"2606",1,0,796,25,1,"1b4a3af",259,1
"26110",1,1,954,16,1,"1b4a3af",260,1
"2626",1,1,829,1,1,"1b4a3af",261,1
"2636",1,1,1058,15,1,"1b4a3af",262,1
"2646",2,1,1082,29,1,"1b4a3af",263,1
"2656",1,1,1155,12,1,"1b4a3af",264,1
"2666",2,1,955,21,1,"1b4a3af",265,1
"2676",2,0,1031,14,1,"1b4a3af",266,1
"2686",2,1,820,24,1,"1b4a3af",267,1
"2696",2,1,1174,19,1,"1b4a3af",268,1
"2706",2,0,1129,7,1,"1b4a3af",269,1
"27110",1,1,971,11,1,"1b4a3af",270,1
"2726",1,0,1065,31,1,"1b4a3af",271,1
"2736",2,0,1170,8,1,"1b4a3af",272,1
"2746",1,1,1233,3,1,"1b4a3af",273,1
"2756",2,1,1444,33,1,"1b4a3af",274,1
"2766",2,1,1213,28,1,"1b4a3af",275,1
"2776",1,0,903,36,1,"1b4a3af",276,1
"2786",1,0,770,32,1,"1b4a3af",277,1
"2796",1,1,679,10,1,"1b4a3af",278,1
"2806",2,0,1266,9,1,"1b4a3af",279,1
"28110",2,1,917,34,1,"1b4a3af",280,1
"2826",1,0,793,35,1,"1b4a3af",281,1
"2836",1,0,654,30,1,"1b4a3af",282,1
"2846",1,0,922,26,1,"1b4a3af",283,1
"2856",1,0,661,27,1,"1b4a3af",284,1
"2866",1,0,810,23,1,"1b4a3af",285,1
"2876",1,1,728,4,1,"1b4a3af",286,1
"2886",2,1,650,20,1,"1b4a3af",287,1
"2896",2,1,982,22,1,"1b4a3af",288,1
"2107",1,1,977,5,1,"1883668",1,1
"327",2,0,619,16,1,"1883668",2,1
"427",1,0,766,28,1,"1883668",3,1
"527",2,0,831,17,1,"1883668",4,1
"627",1,0,1193,25,1,"1883668",5,1
"727",1,1,478,13,1,"1883668",6,1
"827",2,0,600,3,1,"1883668",7,1
"927",2,0,1291,7,1,"1883668",8,1
"1027",1,1,473,15,1,"1883668",9,1
"1127",1,0,372,36,1,"1883668",10,1
"1227",1,0,780,22,1,"1883668",11,1
"1327",1,0,504,31,1,"1883668",12,1
"1427",2,1,619,19,1,"1883668",13,1
"1527",1,0,616,32,1,"1883668",14,1
"1627",1,1,415,1,1,"1883668",15,1
"1727",2,1,620,26,1,"1883668",16,1
"1827",2,1,527,21,1,"1883668",17,1
"1927",1,1,462,2,1,"1883668",18,1
"2027",2,1,437,33,1,"1883668",19,1
"2127",2,1,242,35,1,"1883668",20,1
"2227",1,0,173,20,1,"1883668",21,1
"2327",1,0,868,23,1,"1883668",22,1
"2427",1,0,323,34,1,"1883668",23,1
"2527",2,0,502,4,1,"1883668",24,1
"2627",1,1,302,8,1,"1883668",25,1
"2727",1,1,500,9,1,"1883668",26,1
"2827",2,1,556,27,1,"1883668",27,1
"2911",2,1,559,24,1,"1883668",28,1
"307",1,1,1000,11,1,"1883668",29,1
"3111",2,0,724,14,1,"1883668",30,1
"328",1,0,1111,29,1,"1883668",31,1
"337",1,1,699,18,1,"1883668",32,1
"347",2,0,744,6,1,"1883668",33,1
"357",1,1,524,12,1,"1883668",34,1
"367",1,0,505,30,1,"1883668",35,1
"377",2,0,310,10,1,"1883668",36,1
"387",1,1,244,5,1,"1883668",37,1
"397",1,1,318,16,1,"1883668",38,1
"407",2,1,587,28,1,"1883668",39,1
"4111",1,1,503,17,1,"1883668",40,1
"428",1,0,364,25,1,"1883668",41,1
"437",1,1,537,13,1,"1883668",42,1
"447",1,1,516,3,1,"1883668",43,1
"457",1,1,590,7,1,"1883668",44,1
"467",1,1,491,15,1,"1883668",45,1
"477",1,0,414,36,1,"1883668",46,1
"487",2,1,823,22,1,"1883668",47,1
"497",1,0,613,31,1,"1883668",48,1
"507",2,1,375,19,1,"1883668",49,1
"5111",2,1,306,32,1,"1883668",50,1
"528",2,0,341,1,1,"1883668",51,1
"537",1,0,270,26,1,"1883668",52,1
"547",1,0,543,21,1,"1883668",53,1
"557",2,0,313,2,1,"1883668",54,1
"567",2,1,1207,33,1,"1883668",55,1
"577",2,1,478,35,1,"1883668",56,1
"587",1,0,629,20,1,"1883668",57,1
"597",2,1,1278,23,1,"1883668",58,1
"607",2,1,585,34,1,"1883668",59,1
"6111",2,0,594,4,1,"1883668",60,1
"628",1,1,641,8,1,"1883668",61,1
"637",1,1,386,9,1,"1883668",62,1
"647",1,0,358,27,1,"1883668",63,1
"657",2,1,343,24,1,"1883668",64,1
"667",2,0,304,11,1,"1883668",65,1
"677",1,1,989,14,1,"1883668",66,1
"687",1,0,382,29,1,"1883668",67,1
"697",2,1,335,18,1,"1883668",68,1
"707",1,1,289,6,1,"1883668",69,1
"7111",2,0,313,12,1,"1883668",70,1
"728",1,0,664,30,1,"1883668",71,1
"737",2,0,302,10,1,"1883668",72,1
"747",2,0,589,9,1,"1883668",73,1
"757",1,1,321,16,1,"1883668",74,1
"767",1,1,925,2,1,"1883668",75,1
"777",1,1,621,14,1,"1883668",76,1
"787",1,0,462,25,1,"1883668",77,1
"797",2,1,595,28,1,"1883668",78,1
"807",2,0,549,11,1,"1883668",79,1
"8111",2,1,350,26,1,"1883668",80,1
"828",1,1,301,3,1,"1883668",81,1
"837",2,0,299,6,1,"1883668",82,1
"847",2,1,159,19,1,"1883668",83,1
"857",1,0,234,35,1,"1883668",84,1
"867",2,1,789,34,1,"1883668",85,1
"877",2,1,290,22,1,"1883668",86,1
"887",2,0,350,15,1,"1883668",87,1
"897",2,1,505,33,1,"1883668",88,1
"907",1,0,274,21,1,"1883668",89,1
"9111",2,1,238,23,1,"1883668",90,1
"928",2,0,269,10,1,"1883668",91,1
"937",2,0,824,1,1,"1883668",92,1
"947",2,1,232,29,1,"1883668",93,1
"957",2,1,262,20,1,"1883668",94,1
"967",1,0,271,30,1,"1883668",95,1
"977",1,1,141,8,1,"1883668",96,1
"987",2,1,360,36,1,"1883668",97,1
"997",2,1,305,32,1,"1883668",98,1
"1007",1,1,338,12,1,"1883668",99,1
"10111",2,0,346,13,1,"1883668",100,1
"1028",2,0,313,5,1,"1883668",101,1
"1037",2,0,276,17,1,"1883668",102,1
"1047",1,1,358,18,1,"1883668",103,1
"1057",1,1,278,7,1,"1883668",104,1
"1067",1,1,291,4,1,"1883668",105,1
"1077",1,0,315,27,1,"1883668",106,1
"1087",2,1,353,24,1,"1883668",107,1
"1097",2,1,149,31,1,"1883668",108,1
"1107",2,0,240,10,1,"1883668",109,1
"11111",1,1,429,2,1,"1883668",110,1
"1128",1,0,298,28,1,"1883668",111,1
"1137",2,1,226,32,1,"1883668",112,1
"1147",1,0,213,20,1,"1883668",113,1
"1157",2,1,79,35,1,"1883668",114,1
"1167",1,1,326,1,1,"1883668",115,1
"1177",1,0,313,36,1,"1883668",116,1
"1187",2,0,236,4,1,"1883668",117,1
"1197",1,1,249,3,1,"1883668",118,1
"1207",1,0,360,19,1,"1883668",119,1
"12111",2,1,315,29,1,"1883668",120,1
"1228",1,1,238,7,1,"1883668",121,1
"1237",2,1,246,22,1,"1883668",122,1
"1247",1,0,273,34,1,"1883668",123,1
"1257",1,1,719,11,1,"1883668",124,1
"1267",1,1,642,18,1,"1883668",125,1
"1277",1,1,511,5,1,"1883668",126,1
"1287",2,0,431,6,1,"1883668",127,1
"1297",2,1,663,24,1,"1883668",128,1
"1307",2,0,711,13,1,"1883668",129,1
"13111",1,1,766,9,1,"1883668",130,1
"1328",2,0,845,12,1,"1883668",131,1
"1337",1,0,800,23,1,"1883668",132,1
"1347",1,0,717,27,1,"1883668",133,1
"1357",2,1,224,21,1,"1883668",134,1
"1367",2,0,281,15,1,"1883668",135,1
"1377",1,1,337,16,1,"1883668",136,1
"1387",2,1,385,25,1,"1883668",137,1
"1397",1,0,422,33,1,"1883668",138,1
"1407",2,1,283,26,1,"1883668",139,1
"14111",1,1,275,8,1,"1883668",140,1
"1428",2,0,424,14,1,"1883668",141,1
"1437",1,1,433,17,1,"1883668",142,1
"1447",2,1,478,31,1,"1883668",143,1
"1457",2,1,777,30,1,"1883668",144,1
"1467",1,0,710,35,1,"1883668",145,1
"1477",1,0,632,28,1,"1883668",146,1
"1487",2,0,269,4,1,"1883668",147,1
"1497",1,0,946,24,1,"1883668",148,1
"1507",2,0,313,7,1,"1883668",149,1
"15111",2,0,282,8,1,"1883668",150,1
"1528",2,0,47,11,1,"1883668",151,1
"1537",2,1,280,31,1,"1883668",152,1
"1547",2,0,233,5,1,"1883668",153,1
"1557",1,0,245,25,1,"1883668",154,1
"1567",1,1,35,3,1,"1883668",155,1
"1577",2,1,268,30,1,"1883668",156,1
"1587",1,1,254,2,1,"1883668",157,1
"1597",2,1,300,21,1,"1883668",158,1
"1607",1,0,269,19,1,"1883668",159,1
"16111",1,0,292,33,1,"1883668",160,1
"1628",2,1,194,22,1,"1883668",161,1
"1637",1,1,270,16,1,"1883668",162,1
"1647",2,1,267,26,1,"1883668",163,1
"1657",1,1,380,6,1,"1883668",164,1
"1667",1,1,786,18,1,"1883668",165,1
"1677",2,0,322,14,1,"1883668",166,1
"1687",1,1,136,12,1,"1883668",167,1
"1697",2,0,293,10,1,"1883668",168,1
"1707",2,0,954,17,1,"1883668",169,1
"17111",1,0,280,36,1,"1883668",170,1
"1728",2,1,160,32,1,"1883668",171,1
"1737",2,1,980,27,1,"1883668",172,1
"1747",1,1,924,9,1,"1883668",173,1
"1757",1,0,812,23,1,"1883668",174,1
"1767",1,1,821,13,1,"1883668",175,1
"1777",2,0,911,1,1,"1883668",176,1
"1787",2,0,987,15,1,"1883668",177,1
"1797",2,1,714,20,1,"1883668",178,1
"1807",1,0,849,34,1,"1883668",179,1
"18111",2,1,781,29,1,"1883668",180,1
"1828",2,1,1300,35,1,"1883668",181,1
"1837",2,1,862,30,1,"1883668",182,1
"1847",2,0,753,2,1,"1883668",183,1
"1857",2,1,633,29,1,"1883668",184,1
"1867",2,0,566,4,1,"1883668",185,1
"1877",1,0,20,21,1,"1883668",186,1
"1887",2,1,902,32,1,"1883668",187,1
"1897",2,0,714,1,1,"1883668",188,1
"1907",2,1,911,25,1,"1883668",189,1
"19111",1,1,842,16,1,"1883668",190,1
"1928",2,0,592,10,1,"1883668",191,1
"1937",2,1,988,23,1,"1883668",192,1
"1947",2,1,734,27,1,"1883668",193,1
"1957",1,0,1300,19,1,"1883668",194,1
"1967",2,1,405,18,1,"1883668",195,1
"1977",1,1,969,3,1,"1883668",196,1
"1987",2,1,1493,34,1,"1883668",197,1
"1997",1,1,1865,11,1,"1883668",198,1
"2007",1,1,416,9,1,"1883668",199,1
"20111",2,0,967,12,1,"1883668",200,1
"2028",1,1,376,8,1,"1883668",201,1
"2037",2,1,871,33,1,"1883668",202,1
"2047",1,1,575,7,1,"1883668",203,1
"2057",1,1,851,14,1,"1883668",204,1
"2067",2,1,453,31,1,"1883668",205,1
"2077",1,1,269,13,1,"1883668",206,1
"2087",2,1,315,26,1,"1883668",207,1
"2097",1,1,317,15,1,"1883668",208,1
"2108",2,1,203,28,1,"1883668",209,1
"21111",1,1,147,5,1,"1883668",210,1
"2128",2,0,291,17,1,"1883668",211,1
"2137",2,0,414,6,1,"1883668",212,1
"2147",1,0,321,36,1,"1883668",213,1
"2157",1,0,794,24,1,"1883668",214,1
"2167",1,0,721,20,1,"1883668",215,1
"2177",2,1,365,22,1,"1883668",216,1
"2187",2,0,332,9,1,"1883668",217,1
"2197",1,0,321,24,1,"1883668",218,1
"2207",1,0,219,26,1,"1883668",219,1
"22111",2,0,283,8,1,"1883668",220,1
"2228",1,1,176,3,1,"1883668",221,1
"2237",2,0,165,12,1,"1883668",222,1
"2247",1,0,763,21,1,"1883668",223,1
"2257",2,0,341,6,1,"1883668",224,1
"2267",2,1,629,20,1,"1883668",225,1
"2277",1,0,130,19,1,"1883668",226,1
"2287",2,1,317,30,1,"1883668",227,1
"2297",1,0,205,29,1,"1883668",228,1
"2307",2,0,26,2,1,"1883668",229,1
"23111",1,1,440,16,1,"1883668",230,1
"2328",2,0,218,7,1,"1883668",231,1
"2337",1,0,106,27,1,"1883668",232,1
"2347",2,1,280,25,1,"1883668",233,1
"2357",1,0,1089,35,1,"1883668",234,1
"2367",1,0,488,31,1,"1883668",235,1
"2377",2,1,245,32,1,"1883668",236,1
"2387",2,1,287,33,1,"1883668",237,1
"2397",2,0,1415,4,1,"1883668",238,1
"2407",1,0,987,36,1,"1883668",239,1
"24111",1,0,452,22,1,"1883668",240,1
"2428",2,0,1843,5,1,"1883668",241,1
"2437",1,1,395,11,1,"1883668",242,1
"2447",1,1,1105,14,1,"1883668",243,1
"2457",1,1,737,1,1,"1883668",244,1
"2467",1,1,726,10,1,"1883668",245,1
"2477",1,0,813,34,1,"1883668",246,1
"2487",1,1,1181,17,1,"1883668",247,1
"2497",2,1,355,18,1,"1883668",248,1
"2507",1,0,258,23,1,"1883668",249,1
"25111",2,1,267,28,1,"1883668",250,1
"2528",2,0,114,15,1,"1883668",251,1
"2537",1,1,326,13,1,"1883668",252,1
"2547",1,0,358,21,1,"1883668",253,1
"2557",2,0,266,8,1,"1883668",254,1
"2567",2,0,332,2,1,"1883668",255,1
"2577",1,1,207,5,1,"1883668",256,1
"2587",2,0,96,16,1,"1883668",257,1
"2597",1,1,513,6,1,"1883668",258,1
"2607",1,0,283,20,1,"1883668",259,1
"26111",2,0,283,4,1,"1883668",260,1
"2628",1,0,48,35,1,"1883668",261,1
"2637",1,0,247,34,1,"1883668",262,1
"2647",2,1,256,26,1,"1883668",263,1
"2657",1,1,300,9,1,"1883668",264,1
"2667",2,1,255,18,1,"1883668",265,1
"2677",1,1,233,10,1,"1883668",266,1
"2687",2,1,68,28,1,"1883668",267,1
"2697",1,0,463,30,1,"1883668",268,1
"2707",2,1,338,19,1,"1883668",269,1
"27111",1,0,296,24,1,"1883668",270,1
"2728",1,0,291,22,1,"1883668",271,1
"2737",2,1,163,23,1,"1883668",272,1
"2747",2,1,351,32,1,"1883668",273,1
"2757",2,1,509,36,1,"1883668",274,1
"2767",1,1,575,13,1,"1883668",275,1
"2777",1,0,288,31,1,"1883668",276,1
"2787",2,1,231,29,1,"1883668",277,1
"2797",2,0,321,11,1,"1883668",278,1
"2807",1,1,163,3,1,"1883668",279,1
"28111",1,1,241,17,1,"1883668",280,1
"2828",1,1,140,15,1,"1883668",281,1
"2837",1,0,208,27,1,"1883668",282,1
"2847",2,0,64,12,1,"1883668",283,1
"2857",1,0,340,33,1,"1883668",284,1
"2867",2,0,241,14,1,"1883668",285,1
"2877",2,0,134,7,1,"1883668",286,1
"2887",1,1,439,1,1,"1883668",287,1
"2897",1,0,315,25,1,"1883668",288,1
"2109",1,1,1291,14,1,"144aa92",1,1
"329",2,1,674,22,1,"144aa92",2,1
"429",2,1,760,20,1,"144aa92",3,1
"529",1,1,562,12,1,"144aa92",4,1
"629",2,1,1791,35,1,"144aa92",5,1
"729",1,1,893,4,1,"144aa92",6,1
"829",1,0,1140,24,1,"144aa92",7,1
"929",2,1,1245,30,1,"144aa92",8,1
"1029",2,0,981,15,1,"144aa92",9,1
"1129",2,1,1186,36,1,"144aa92",10,1
"1229",1,1,960,10,1,"144aa92",11,1
"1329",1,1,1113,7,1,"144aa92",12,1
"1429",2,0,1451,11,1,"144aa92",13,1
"1529",2,1,1517,28,1,"144aa92",14,1
"1629",1,1,1269,18,1,"144aa92",15,1
"1729",1,1,1590,8,1,"144aa92",16,1
"1829",2,0,2172,13,1,"144aa92",17,1
"1929",1,0,783,23,1,"144aa92",18,1
"2029",1,1,1602,1,1,"144aa92",19,1
"2129",1,1,2363,2,1,"144aa92",20,1
"2229",2,0,1115,16,1,"144aa92",21,1
"2329",NA,-1,0,31,1,"144aa92",22,1
"2429",2,1,635,19,1,"144aa92",23,1
"2529",1,0,859,32,1,"144aa92",24,1
"2629",2,1,727,26,1,"144aa92",25,1
"2729",2,1,841,34,1,"144aa92",26,1
"2829",1,0,957,25,1,"144aa92",27,1
"2912",2,0,596,17,1,"144aa92",28,1
"308",2,0,643,6,1,"144aa92",29,1
"3112",1,1,882,9,1,"144aa92",30,1
"3210",2,0,1388,5,1,"144aa92",31,1
"338",2,0,1166,3,1,"144aa92",32,1
"348",1,0,1446,21,1,"144aa92",33,1
"358",1,0,1302,27,1,"144aa92",34,1
"368",2,1,1372,33,1,"144aa92",35,1
"378",1,0,1278,29,1,"144aa92",36,1
"388",2,0,962,14,1,"144aa92",37,1
"398",2,1,1203,22,1,"144aa92",38,1
"408",1,0,1268,20,1,"144aa92",39,1
"4112",1,1,690,12,1,"144aa92",40,1
"4210",2,1,539,35,1,"144aa92",41,1
"438",1,1,1349,4,1,"144aa92",42,1
"448",1,0,1180,24,1,"144aa92",43,1
"458",1,0,667,30,1,"144aa92",44,1
"468",2,0,743,15,1,"144aa92",45,1
"478",2,1,666,36,1,"144aa92",46,1
"488",1,1,815,10,1,"144aa92",47,1
"498",2,0,1099,7,1,"144aa92",48,1
"508",1,1,813,11,1,"144aa92",49,1
"5112",2,1,796,28,1,"144aa92",50,1
"5210",1,1,610,18,1,"144aa92",51,1
"538",2,0,673,8,1,"144aa92",52,1
"548",2,0,885,13,1,"144aa92",53,1
"558",1,0,990,23,1,"144aa92",54,1
"568",1,1,1217,1,1,"144aa92",55,1
"578",1,1,717,2,1,"144aa92",56,1
"588",2,0,750,16,1,"144aa92",57,1
"598",1,0,898,31,1,"144aa92",58,1
"608",2,1,638,19,1,"144aa92",59,1
"6112",1,0,1390,32,1,"144aa92",60,1
"6210",1,0,1144,26,1,"144aa92",61,1
"638",1,0,1008,34,1,"144aa92",62,1
"648",2,1,911,25,1,"144aa92",63,1
"658",2,0,1984,17,1,"144aa92",64,1
"668",1,1,832,6,1,"144aa92",65,1
"678",1,1,966,9,1,"144aa92",66,1
"688",1,1,951,5,1,"144aa92",67,1
"698",1,1,676,3,1,"144aa92",68,1
"708",2,1,585,21,1,"144aa92",69,1
"7112",1,0,608,27,1,"144aa92",70,1
"7210",1,0,1467,33,1,"144aa92",71,1
"738",1,0,867,29,1,"144aa92",72,1
"748",2,1,1965,33,1,"144aa92",73,1
"758",2,1,1174,30,1,"144aa92",74,1
"768",2,0,689,1,1,"144aa92",75,1
"778",1,1,1613,12,1,"144aa92",76,1
"788",1,1,2073,4,1,"144aa92",77,1
"798",2,0,1206,11,1,"144aa92",78,1
"808",1,0,1063,35,1,"144aa92",79,1
"8112",2,0,1936,7,1,"144aa92",80,1
"8210",1,0,1108,21,1,"144aa92",81,1
"838",2,1,1257,26,1,"144aa92",82,1
"848",1,1,2414,5,1,"144aa92",83,1
"858",2,1,844,31,1,"144aa92",84,1
"868",1,0,704,32,1,"144aa92",85,1
"878",1,1,1662,18,1,"144aa92",86,1
"888",1,0,978,25,1,"144aa92",87,1
"898",2,0,861,3,1,"144aa92",88,1
"908",1,0,1131,19,1,"144aa92",89,1
"9112",2,0,1024,6,1,"144aa92",90,1
"9210",2,0,1005,13,1,"144aa92",91,1
"938",1,1,752,9,1,"144aa92",92,1
"948",2,1,996,20,1,"144aa92",93,1
"958",2,0,1387,14,1,"144aa92",94,1
"968",2,1,1254,24,1,"144aa92",95,1
"978",1,0,1135,28,1,"144aa92",96,1
"988",1,1,1849,10,1,"144aa92",97,1
"998",2,0,1847,8,1,"144aa92",98,1
"1008",1,0,1884,27,1,"144aa92",99,1
"10112",2,1,1860,29,1,"144aa92",100,1
"10210",1,1,962,17,1,"144aa92",101,1
"1038",2,1,2060,23,1,"144aa92",102,1
"1048",2,0,1445,2,1,"144aa92",103,1
"1058",1,1,851,16,1,"144aa92",104,1
"1068",2,1,1548,34,1,"144aa92",105,1
"1078",1,0,1331,36,1,"144aa92",106,1
"1088",2,0,794,15,1,"144aa92",107,1
"1098",2,1,2135,22,1,"144aa92",108,1
"1108",2,0,2179,17,1,"144aa92",109,1
"11112",2,0,1743,1,1,"144aa92",110,1
"11210",1,1,1305,2,1,"144aa92",111,1
"1138",2,0,1408,7,1,"144aa92",112,1
"1148",2,1,1939,21,1,"144aa92",113,1
"1158",2,1,759,18,1,"144aa92",114,1
"1168",2,0,1443,6,1,"144aa92",115,1
"1178",2,0,930,4,1,"144aa92",116,1
"1188",1,1,1162,9,1,"144aa92",117,1
"1198",2,1,1277,35,1,"144aa92",118,1
"1208",1,1,1670,13,1,"144aa92",119,1
"12112",1,0,793,31,1,"144aa92",120,1
"12210",2,1,1451,19,1,"144aa92",121,1
"1238",2,1,1057,25,1,"144aa92",122,1
"1248",2,1,1353,36,1,"144aa92",123,1
"1258",2,0,1307,16,1,"144aa92",124,1
"1268",2,0,827,5,1,"144aa92",125,1
"1278",1,0,1233,33,1,"144aa92",126,1
"1288",2,1,835,34,1,"144aa92",127,1
"1298",2,0,1156,15,1,"144aa92",128,1
"1308",1,1,744,14,1,"144aa92",129,1
"13112",2,0,1900,8,1,"144aa92",130,1
"13210",2,0,587,12,1,"144aa92",131,1
"1338",2,1,710,22,1,"144aa92",132,1
"1348",1,0,754,26,1,"144aa92",133,1
"1358",2,1,729,23,1,"144aa92",134,1
"1368",2,1,907,30,1,"144aa92",135,1
"1378",1,0,894,29,1,"144aa92",136,1
"1388",2,0,1434,3,1,"144aa92",137,1
"1398",1,1,1060,10,1,"144aa92",138,1
"1408",2,1,685,28,1,"144aa92",139,1
"14112",1,1,659,11,1,"144aa92",140,1
"14210",1,0,677,27,1,"144aa92",141,1
"1438",2,1,280,20,1,"144aa92",142,1
"1448",2,1,843,24,1,"144aa92",143,1
"1458",2,1,891,32,1,"144aa92",144,1
"1468",2,0,295,6,1,"144aa92",145,1
"1478",1,1,535,5,1,"144aa92",146,1
"1488",1,1,292,9,1,"144aa92",147,1
"1498",2,1,1078,28,1,"144aa92",148,1
"1508",2,0,1332,12,1,"144aa92",149,1
"15112",1,0,853,19,1,"144aa92",150,1
"15210",2,1,446,22,1,"144aa92",151,1
"1538",2,1,324,32,1,"144aa92",152,1
"1548",1,0,938,31,1,"144aa92",153,1
"1558",2,1,800,26,1,"144aa92",154,1
"1568",1,1,842,10,1,"144aa92",155,1
"1578",2,1,948,23,1,"144aa92",156,1
"1588",1,1,846,13,1,"144aa92",157,1
"1598",1,1,1025,17,1,"144aa92",158,1
"1608",2,1,539,25,1,"144aa92",159,1
"16112",1,0,588,34,1,"144aa92",160,1
"16210",2,1,710,33,1,"144aa92",161,1
"1638",2,0,988,1,1,"144aa92",162,1
"1648",1,0,1714,24,1,"144aa92",163,1
"1658",1,1,939,18,1,"144aa92",164,1
"1668",2,1,561,29,1,"144aa92",165,1
"1678",1,1,575,14,1,"144aa92",166,1
"1688",1,1,492,11,1,"144aa92",167,1
"1698",2,1,468,27,1,"144aa92",168,1
"1708",2,1,994,30,1,"144aa92",169,1
"17112",1,1,496,16,1,"144aa92",170,1
"17210",1,0,510,36,1,"144aa92",171,1
"1738",2,0,548,4,1,"144aa92",172,1
"1748",2,1,574,21,1,"144aa92",173,1
"1758",2,0,604,2,1,"144aa92",174,1
"1768",1,1,615,15,1,"144aa92",175,1
"1778",1,0,536,35,1,"144aa92",176,1
"1788",2,1,634,20,1,"144aa92",177,1
"1798",2,0,466,3,1,"144aa92",178,1
"1808",2,0,917,7,1,"144aa92",179,1
"18112",2,0,638,8,1,"144aa92",180,1
"18210",1,1,866,6,1,"144aa92",181,1
"1838",2,1,767,18,1,"144aa92",182,1
"1848",2,0,821,2,1,"144aa92",183,1
"1858",1,1,1112,7,1,"144aa92",184,1
"1868",1,0,578,28,1,"144aa92",185,1
"1878",2,1,1025,36,1,"144aa92",186,1
"1888",1,1,733,9,1,"144aa92",187,1
"1898",2,1,682,26,1,"144aa92",188,1
"1908",1,1,583,14,1,"144aa92",189,1
"19112",2,1,444,19,1,"144aa92",190,1
"19210",2,1,495,22,1,"144aa92",191,1
"1938",1,1,940,15,1,"144aa92",192,1
"1948",2,1,1063,21,1,"144aa92",193,1
"1958",1,1,523,13,1,"144aa92",194,1
"1968",1,1,551,11,1,"144aa92",195,1
"1978",2,1,495,33,1,"144aa92",196,1
"1988",1,0,681,34,1,"144aa92",197,1
"1998",1,0,818,35,1,"144aa92",198,1
"2008",2,1,601,25,1,"144aa92",199,1
"20112",2,0,948,8,1,"144aa92",200,1
"20210",1,1,937,10,1,"144aa92",201,1
"2038",2,1,1066,31,1,"144aa92",202,1
"2048",2,0,649,3,1,"144aa92",203,1
"2058",1,1,870,12,1,"144aa92",204,1
"2068",2,1,316,20,1,"144aa92",205,1
"2078",1,1,842,5,1,"144aa92",206,1
"2088",2,1,447,27,1,"144aa92",207,1
"2098",2,0,412,1,1,"144aa92",208,1
"21010",1,0,582,30,1,"144aa92",209,1
"21112",2,1,577,23,1,"144aa92",210,1
"21210",2,1,412,24,1,"144aa92",211,1
"2138",1,0,720,29,1,"144aa92",212,1
"2148",1,1,704,16,1,"144aa92",213,1
"2158",2,0,718,4,1,"144aa92",214,1
"2168",1,1,1147,17,1,"144aa92",215,1
"2178",2,1,1214,32,1,"144aa92",216,1
"2188",2,1,774,26,1,"144aa92",217,1
"2198",1,0,752,34,1,"144aa92",218,1
"2208",2,1,1195,29,1,"144aa92",219,1
"22112",1,1,587,10,1,"144aa92",220,1
"22210",2,1,573,25,1,"144aa92",221,1
"2238",2,1,795,33,1,"144aa92",222,1
"2248",1,1,657,12,1,"144aa92",223,1
"2258",2,1,580,19,1,"144aa92",224,1
"2268",1,1,921,4,1,"144aa92",225,1
"2278",2,0,634,2,1,"144aa92",226,1
"2288",1,1,634,16,1,"144aa92",227,1
"2298",2,1,1123,27,1,"144aa92",228,1
"2308",1,1,657,17,1,"144aa92",229,1
"23112",2,1,686,30,1,"144aa92",230,1
"23210",1,0,492,35,1,"144aa92",231,1
"2338",2,0,1356,3,1,"144aa92",232,1
"2348",1,1,1018,18,1,"144aa92",233,1
"2358",1,1,950,15,1,"144aa92",234,1
"2368",2,0,648,6,1,"144aa92",235,1
"2378",2,1,575,32,1,"144aa92",236,1
"2388",2,1,617,23,1,"144aa92",237,1
"2398",2,0,1227,5,1,"144aa92",238,1
"2408",2,1,473,22,1,"144aa92",239,1
"24112",2,1,401,21,1,"144aa92",240,1
"24210",2,1,389,31,1,"144aa92",241,1
"2438",2,1,604,28,1,"144aa92",242,1
"2448",1,1,545,14,1,"144aa92",243,1
"2458",1,1,624,11,1,"144aa92",244,1
"2468",2,0,627,9,1,"144aa92",245,1
"2478",2,0,655,1,1,"144aa92",246,1
"2488",1,1,549,13,1,"144aa92",247,1
"2498",1,0,498,36,1,"144aa92",248,1
"2508",2,0,524,7,1,"144aa92",249,1
"25112",2,1,704,24,1,"144aa92",250,1
"25210",2,0,734,8,1,"144aa92",251,1
"2538",2,1,1116,20,1,"144aa92",252,1
"2548",1,0,1148,30,1,"144aa92",253,1
"2558",2,0,784,8,1,"144aa92",254,1
"2568",2,0,886,9,1,"144aa92",255,1
"2578",2,1,1063,33,1,"144aa92",256,1
"2588",1,0,906,36,1,"144aa92",257,1
"2598",2,0,1118,13,1,"144aa92",258,1
"2608",2,0,955,4,1,"144aa92",259,1
"26112",2,0,1240,1,1,"144aa92",260,1
"26210",2,0,1805,3,1,"144aa92",261,1
"2638",1,0,624,28,1,"144aa92",262,1
"2648",1,0,710,35,1,"144aa92",263,1
"2658",2,1,696,29,1,"144aa92",264,1
"2668",2,1,1504,32,1,"144aa92",265,1
"2678",2,1,479,23,1,"144aa92",266,1
"2688",2,1,422,27,1,"144aa92",267,1
"2698",2,1,426,21,1,"144aa92",268,1
"2708",1,1,496,5,1,"144aa92",269,1
"27112",1,1,758,12,1,"144aa92",270,1
"27210",2,0,1184,2,1,"144aa92",271,1
"2738",2,1,1063,24,1,"144aa92",272,1
"2748",1,1,643,18,1,"144aa92",273,1
"2758",1,1,738,11,1,"144aa92",274,1
"2768",2,0,1150,6,1,"144aa92",275,1
"2778",1,0,1216,34,1,"144aa92",276,1
"2788",1,1,629,15,1,"144aa92",277,1
"2798",2,1,821,25,1,"144aa92",278,1
"2808",2,1,1028,20,1,"144aa92",279,1
"28112",1,1,705,16,1,"144aa92",280,1
"28210",1,1,671,17,1,"144aa92",281,1
"2838",2,1,624,31,1,"144aa92",282,1
"2848",1,1,707,14,1,"144aa92",283,1
"2858",2,1,523,22,1,"144aa92",284,1
"2868",2,1,529,26,1,"144aa92",285,1
"2878",2,1,632,19,1,"144aa92",286,1
"2888",2,0,753,7,1,"144aa92",287,1
"2898",1,1,537,10,1,"144aa92",288,1
"2130",1,1,1437,14,1,"19fef88",1,1
"330",2,1,721,20,1,"19fef88",2,1
"430",1,0,631,24,1,"19fef88",3,1
"530",2,0,892,5,1,"19fef88",4,1
"630",2,1,838,29,1,"19fef88",5,1
"730",2,1,754,35,1,"19fef88",6,1
"830",1,0,544,22,1,"19fef88",7,1
"930",1,0,746,30,1,"19fef88",8,1
"1030",2,0,542,12,1,"19fef88",9,1
"1130",2,0,960,17,1,"19fef88",10,1
"1230",1,1,933,11,1,"19fef88",11,1
"1330",2,0,1213,7,1,"19fef88",12,1
"1430",1,0,1388,23,1,"19fef88",13,1
"1530",2,0,457,16,1,"19fef88",14,1
"1630",2,0,752,3,1,"19fef88",15,1
"1730",2,1,1136,28,1,"19fef88",16,1
"1830",1,1,1474,6,1,"19fef88",17,1
"1930",2,1,1925,18,1,"19fef88",18,1
"2030",2,0,1228,8,1,"19fef88",19,1
"2139",2,1,955,25,1,"19fef88",20,1
"2230",2,0,1174,2,1,"19fef88",21,1
"2330",1,1,855,15,1,"19fef88",22,1
"2430",1,0,1018,26,1,"19fef88",23,1
"2530",2,1,919,32,1,"19fef88",24,1
"2630",1,0,997,19,1,"19fef88",25,1
"2730",2,0,707,1,1,"19fef88",26,1
"2830",2,1,520,33,1,"19fef88",27,1
"2913",2,1,894,27,1,"19fef88",28,1
"309",2,0,1212,10,1,"19fef88",29,1
"3113",1,0,1034,21,1,"19fef88",30,1
"3211",2,0,1214,9,1,"19fef88",31,1
"339",1,0,976,31,1,"19fef88",32,1
"349",2,1,979,34,1,"19fef88",33,1
"359",2,1,916,36,1,"19fef88",34,1
"369",2,0,1073,13,1,"19fef88",35,1
"379",2,0,1269,4,1,"19fef88",36,1
"389",2,0,906,14,1,"19fef88",37,1
"399",1,0,2150,20,1,"19fef88",38,1
"409",2,1,832,24,1,"19fef88",39,1
"4113",2,0,964,5,1,"19fef88",40,1
"4211",1,0,993,29,1,"19fef88",41,1
"439",1,0,492,35,1,"19fef88",42,1
"449",1,0,666,22,1,"19fef88",43,1
"459",2,1,410,30,1,"19fef88",44,1
"469",2,0,640,12,1,"19fef88",45,1
"479",2,0,964,17,1,"19fef88",46,1
"489",2,0,1333,11,1,"19fef88",47,1
"499",2,0,1093,7,1,"19fef88",48,1
"509",1,0,331,23,1,"19fef88",49,1
"5113",1,1,381,16,1,"19fef88",50,1
"5211",1,1,1091,3,1,"19fef88",51,1
"539",1,0,803,28,1,"19fef88",52,1
"549",1,1,1200,6,1,"19fef88",53,1
"559",2,1,948,18,1,"19fef88",54,1
"569",1,1,1040,8,1,"19fef88",55,1
"579",2,1,807,25,1,"19fef88",56,1
"589",1,1,1234,2,1,"19fef88",57,1
"599",2,0,994,15,1,"19fef88",58,1
"609",2,1,1099,26,1,"19fef88",59,1
"6113",2,1,1219,32,1,"19fef88",60,1
"6211",2,1,1417,19,1,"19fef88",61,1
"639",2,0,1443,1,1,"19fef88",62,1
"649",1,0,1380,33,1,"19fef88",63,1
"659",2,1,1167,27,1,"19fef88",64,1
"669",2,0,1302,10,1,"19fef88",65,1
"679",2,1,1061,21,1,"19fef88",66,1
"689",2,0,1036,9,1,"19fef88",67,1
"699",1,0,1150,31,1,"19fef88",68,1
"709",2,1,1022,34,1,"19fef88",69,1
"7113",2,1,1065,36,1,"19fef88",70,1
"7211",2,0,1601,13,1,"19fef88",71,1
"739",1,1,496,4,1,"19fef88",72,1
"749",1,1,1456,15,1,"19fef88",73,1
"759",1,0,1274,36,1,"19fef88",74,1
"769",2,1,950,31,1,"19fef88",75,1
"779",1,1,684,14,1,"19fef88",76,1
"789",2,1,975,20,1,"19fef88",77,1
"799",1,0,1352,30,1,"19fef88",78,1
"809",2,0,1766,1,1,"19fef88",79,1
"8113",2,0,1030,5,1,"19fef88",80,1
"8211",2,1,834,32,1,"19fef88",81,1
"839",1,1,842,11,1,"19fef88",82,1
"849",1,0,774,21,1,"19fef88",83,1
"859",2,1,1105,33,1,"19fef88",84,1
"869",1,0,1357,29,1,"19fef88",85,1
"879",2,0,1358,6,1,"19fef88",86,1
"889",2,0,815,4,1,"19fef88",87,1
"899",1,1,944,9,1,"19fef88",88,1
"909",1,0,1054,22,1,"19fef88",89,1
"9113",1,0,806,23,1,"19fef88",90,1
"9211",1,1,1155,7,1,"19fef88",91,1
"939",2,1,712,35,1,"19fef88",92,1
"949",1,1,616,3,1,"19fef88",93,1
"959",1,1,736,18,1,"19fef88",94,1
"969",2,0,653,2,1,"19fef88",95,1
"979",1,1,586,13,1,"19fef88",96,1
"989",1,0,705,25,1,"19fef88",97,1
"999",1,0,651,24,1,"19fef88",98,1
"1009",1,1,1207,10,1,"19fef88",99,1
"10113",1,0,960,28,1,"19fef88",100,1
"10211",2,0,855,8,1,"19fef88",101,1
"1039",2,1,747,19,1,"19fef88",102,1
"1049",2,0,616,17,1,"19fef88",103,1
"1059",1,0,477,26,1,"19fef88",104,1
"1069",2,1,463,34,1,"19fef88",105,1
"1079",1,0,736,27,1,"19fef88",106,1
"1089",1,1,313,16,1,"19fef88",107,1
"1099",1,1,1591,12,1,"19fef88",108,1
"1109",1,1,789,11,1,"19fef88",109,1
"11113",1,0,1193,36,1,"19fef88",110,1
"11211",2,1,911,18,1,"19fef88",111,1
"1139",2,0,824,7,1,"19fef88",112,1
"1149",2,0,722,17,1,"19fef88",113,1
"1159",1,1,518,2,1,"19fef88",114,1
"1169",1,0,510,25,1,"19fef88",115,1
"1179",2,1,1091,20,1,"19fef88",116,1
"1189",2,0,1045,4,1,"19fef88",117,1
"1199",1,1,1019,5,1,"19fef88",118,1
"1209",1,1,418,16,1,"19fef88",119,1
"12113",1,0,474,31,1,"19fef88",120,1
"12211",2,1,316,35,1,"19fef88",121,1
"1239",2,1,332,33,1,"19fef88",122,1
"1249",2,0,368,9,1,"19fef88",123,1
"1259",1,0,264,19,1,"19fef88",124,1
"1269",2,0,401,15,1,"19fef88",125,1
"1279",2,1,433,21,1,"19fef88",126,1
"1289",2,1,419,26,1,"19fef88",127,1
"1299",2,1,387,24,1,"19fef88",128,1
"1309",1,1,338,14,1,"19fef88",129,1
"13113",1,1,1047,6,1,"19fef88",130,1
"13211",1,0,895,32,1,"19fef88",131,1
"1339",2,1,1008,27,1,"19fef88",132,1
"1349",2,1,1165,29,1,"19fef88",133,1
"1359",1,1,1074,8,1,"19fef88",134,1
"1369",1,1,879,3,1,"19fef88",135,1
"1379",1,1,865,10,1,"19fef88",136,1
"1389",1,0,1350,23,1,"19fef88",137,1
"1399",1,0,910,30,1,"19fef88",138,1
"1409",1,0,796,34,1,"19fef88",139,1
"14113",1,0,971,28,1,"19fef88",140,1
"14211",2,0,925,13,1,"19fef88",141,1
"1439",2,1,889,22,1,"19fef88",142,1
"1449",2,0,1079,1,1,"19fef88",143,1
"1459",1,1,656,12,1,"19fef88",144,1
"1469",1,1,1224,10,1,"19fef88",145,1
"1479",1,0,1478,31,1,"19fef88",146,1
"1489",2,1,581,36,1,"19fef88",147,1
"1499",2,0,1202,6,1,"19fef88",148,1
"1509",1,1,867,18,1,"19fef88",149,1
"15113",1,1,406,3,1,"19fef88",150,1
"15211",1,0,677,28,1,"19fef88",151,1
"1539",2,1,1062,21,1,"19fef88",152,1
"1549",2,0,1183,2,1,"19fef88",153,1
"1559",1,0,688,20,1,"19fef88",154,1
"1569",1,0,335,33,1,"19fef88",155,1
"1579",2,0,286,4,1,"19fef88",156,1
"1589",2,0,375,13,1,"19fef88",157,1
"1599",2,1,327,24,1,"19fef88",158,1
"1609",2,0,533,11,1,"19fef88",159,1
"16113",2,0,749,15,1,"19fef88",160,1
"16211",2,0,880,14,1,"19fef88",161,1
"1639",2,0,447,12,1,"19fef88",162,1
"1649",2,0,357,5,1,"19fef88",163,1
"1659",1,0,321,34,1,"19fef88",164,1
"1669",2,0,324,9,1,"19fef88",165,1
"1679",2,1,318,29,1,"19fef88",166,1
"1689",2,0,262,7,1,"19fef88",167,1
"1699",2,0,352,8,1,"19fef88",168,1
"1709",2,1,525,22,1,"19fef88",169,1
"17113",2,1,537,27,1,"19fef88",170,1
"17211",1,1,450,1,1,"19fef88",171,1
"1739",1,1,692,16,1,"19fef88",172,1
"1749",1,0,650,35,1,"19fef88",173,1
"1759",1,0,1266,19,1,"19fef88",174,1
"1769",2,1,648,26,1,"19fef88",175,1
"1779",1,0,1124,25,1,"19fef88",176,1
"1789",2,1,430,23,1,"19fef88",177,1
"1799",2,1,708,30,1,"19fef88",178,1
"1809",2,1,561,32,1,"19fef88",179,1
"18113",2,0,387,17,1,"19fef88",180,1
"18211",1,0,279,24,1,"19fef88",181,1
"1839",2,1,626,19,1,"19fef88",182,1
"1849",2,1,1608,30,1,"19fef88",183,1
"1859",2,1,797,21,1,"19fef88",184,1
"1869",1,0,733,28,1,"19fef88",185,1
"1879",2,0,554,4,1,"19fef88",186,1
"1889",2,0,1008,5,1,"19fef88",187,1
"1899",1,1,284,11,1,"19fef88",188,1
"1909",1,1,314,6,1,"19fef88",189,1
"19113",1,1,298,12,1,"19fef88",190,1
"19211",1,0,558,22,1,"19fef88",191,1
"1939",2,1,465,33,1,"19fef88",192,1
"1949",2,1,379,27,1,"19fef88",193,1
"1959",2,1,310,32,1,"19fef88",194,1
"1969",2,0,786,7,1,"19fef88",195,1
"1979",1,1,356,18,1,"19fef88",196,1
"1989",1,1,409,10,1,"19fef88",197,1
"1999",1,0,489,26,1,"19fef88",198,1
"2009",2,0,288,9,1,"19fef88",199,1
"20113",2,1,472,35,1,"19fef88",200,1
"20211",1,0,511,25,1,"19fef88",201,1
"2039",2,1,660,36,1,"19fef88",202,1
"2049",2,0,352,2,1,"19fef88",203,1
"2059",2,0,71,16,1,"19fef88",204,1
"2069",1,0,365,29,1,"19fef88",205,1
"2079",2,1,663,31,1,"19fef88",206,1
"2089",2,0,1359,3,1,"19fef88",207,1
"2099",2,0,594,13,1,"19fef88",208,1
"21011",2,0,2117,14,1,"19fef88",209,1
"21113",2,1,913,20,1,"19fef88",210,1
"21211",2,0,136,1,1,"19fef88",211,1
"21310",1,0,327,23,1,"19fef88",212,1
"2149",1,1,392,8,1,"19fef88",213,1
"2159",1,0,440,34,1,"19fef88",214,1
"2169",1,1,577,15,1,"19fef88",215,1
"2179",2,0,818,17,1,"19fef88",216,1
"2189",1,0,415,26,1,"19fef88",217,1
"2199",1,1,1679,13,1,"19fef88",218,1
"2209",1,1,1627,9,1,"19fef88",219,1
"22113",1,1,344,2,1,"19fef88",220,1
"22211",1,1,497,7,1,"19fef88",221,1
"2239",2,1,740,31,1,"19fef88",222,1
"2249",2,0,808,15,1,"19fef88",223,1
"2259",1,0,366,29,1,"19fef88",224,1
"2269",2,0,283,12,1,"19fef88",225,1
"2279",2,1,1046,23,1,"19fef88",226,1
"2289",1,0,342,36,1,"19fef88",227,1
"2299",2,0,506,6,1,"19fef88",228,1
"2309",2,1,2399,18,1,"19fef88",229,1
"23113",2,1,573,24,1,"19fef88",230,1
"23211",2,0,513,8,1,"19fef88",231,1
"2339",1,1,277,11,1,"19fef88",232,1
"2349",1,0,276,25,1,"19fef88",233,1
"2359",2,1,441,28,1,"19fef88",234,1
"2369",2,0,381,1,1,"19fef88",235,1
"2379",1,0,451,19,1,"19fef88",236,1
"2389",1,1,1101,10,1,"19fef88",237,1
