"","keys","accuracy","rt","Fimg","Simg","feature_index","subID","trialNum","run"
"2",-1,-1,0,0,10,1,"1c56a4e",1,1
"3",1,1,1491,10,17,1,"1c56a4e",2,1
"4",1,0,908,17,35,1,"1c56a4e",3,1
"5",1,1,1782,35,26,1,"1c56a4e",4,1
"6",0,0,840,26,32,1,"1c56a4e",5,1
"7",-1,-1,0,32,33,1,"1c56a4e",6,1
"8",1,0,970,33,9,1,"1c56a4e",7,1
"9",1,1,1006,9,2,1,"1c56a4e",8,1
"10",0,0,1470,2,14,1,"1c56a4e",9,1
"11",0,1,1978,14,22,1,"1c56a4e",10,1
"12",0,0,1809,22,29,1,"1c56a4e",11,1
"13",0,1,1731,29,16,1,"1c56a4e",12,1
"14",0,1,1573,16,23,1,"1c56a4e",13,1
"15",0,1,1422,23,13,1,"1c56a4e",14,1
"16",1,1,1157,13,7,1,"1c56a4e",15,1
"17",1,1,1321,7,15,1,"1c56a4e",16,1
"18",1,0,637,15,34,1,"1c56a4e",17,1
"19",0,1,1095,34,18,1,"1c56a4e",18,1
"20",0,1,874,18,31,1,"1c56a4e",19,1
"21",0,0,1267,31,36,1,"1c56a4e",20,1
"22",1,1,1498,36,27,1,"1c56a4e",21,1
"23",0,0,965,27,20,1,"1c56a4e",22,1
"24",1,0,1609,20,1,1,"1c56a4e",23,1
"25",0,0,1560,1,3,1,"1c56a4e",24,1
"26",1,0,2460,3,24,1,"1c56a4e",25,1
"27",1,0,1866,24,12,1,"1c56a4e",26,1
"28",0,1,1147,12,28,1,"1c56a4e",27,1
"29",1,1,966,28,30,1,"1c56a4e",28,1
"30",0,1,1457,30,6,1,"1c56a4e",29,1
"31",1,0,1679,6,21,1,"1c56a4e",30,1
"32",1,0,1901,21,11,1,"1c56a4e",31,1
"33",0,0,1841,11,4,1,"1c56a4e",32,1
"34",1,1,1881,4,8,1,"1c56a4e",33,1
"35",1,0,1326,8,19,1,"1c56a4e",34,1
"36",0,1,1197,19,5,1,"1c56a4e",35,1
"37",1,0,1202,5,25,1,"1c56a4e",36,1
"38",0,1,1447,25,10,1,"1c56a4e",37,1
"39",1,1,1653,10,17,1,"1c56a4e",38,1
"40",1,0,855,17,35,1,"1c56a4e",39,1
"41",0,0,2124,35,26,1,"1c56a4e",40,1
"42",0,0,1601,26,32,1,"1c56a4e",41,1
"43",1,1,1255,32,33,1,"1c56a4e",42,1
"44",1,0,1066,33,9,1,"1c56a4e",43,1
"45",0,0,1550,9,2,1,"1c56a4e",44,1
"46",1,1,1475,2,14,1,"1c56a4e",45,1
"47",0,1,608,14,22,1,"1c56a4e",46,1
"48",0,0,1381,22,29,1,"1c56a4e",47,1
"49",1,0,944,29,16,1,"1c56a4e",48,1
"50",0,1,1311,16,23,1,"1c56a4e",49,1
"51",0,1,859,23,13,1,"1c56a4e",50,1
"52",1,1,1079,13,7,1,"1c56a4e",51,1
"53",1,1,669,7,15,1,"1c56a4e",52,1
"54",1,0,899,15,34,1,"1c56a4e",53,1
"55",0,1,1207,34,18,1,"1c56a4e",54,1
"56",0,1,1922,18,31,1,"1c56a4e",55,1
"57",0,0,1307,31,36,1,"1c56a4e",56,1
"58",0,0,1712,36,27,1,"1c56a4e",57,1
"59",1,1,1356,27,20,1,"1c56a4e",58,1
"60",1,0,769,20,1,1,"1c56a4e",59,1
"61",0,0,1193,1,3,1,"1c56a4e",60,1
"62",1,0,1660,3,24,1,"1c56a4e",61,1
"63",0,1,696,24,12,1,"1c56a4e",62,1
"64",0,1,1661,12,28,1,"1c56a4e",63,1
"65",1,1,1689,28,30,1,"1c56a4e",64,1
"66",1,0,1564,30,6,1,"1c56a4e",65,1
"67",0,1,1313,6,21,1,"1c56a4e",66,1
"68",0,1,1653,21,11,1,"1c56a4e",67,1
"69",1,1,1060,11,4,1,"1c56a4e",68,1
"70",0,0,1767,4,8,1,"1c56a4e",69,1
"71",1,0,1734,8,19,1,"1c56a4e",70,1
"72",1,0,1577,19,5,1,"1c56a4e",71,1
"73",1,0,2374,5,25,1,"1c56a4e",72,1
"74",0,0,1116,25,24,1,"1c56a4e",73,1
"75",1,1,1681,24,32,1,"1c56a4e",74,1
"76",1,0,1763,32,14,1,"1c56a4e",75,1
"77",0,1,1177,14,35,1,"1c56a4e",76,1
"78",0,1,1152,35,4,1,"1c56a4e",77,1
"79",0,1,1548,4,20,1,"1c56a4e",78,1
"80",1,1,1191,20,26,1,"1c56a4e",79,1
"81",1,0,1084,26,17,1,"1c56a4e",80,1
"82",1,0,1722,17,33,1,"1c56a4e",81,1
"83",1,1,2111,33,19,1,"1c56a4e",82,1
"84",0,1,1676,19,6,1,"1c56a4e",83,1
"85",0,1,2129,6,36,1,"1c56a4e",84,1
"86",1,1,2030,36,31,1,"1c56a4e",85,1
"87",1,1,1113,31,27,1,"1c56a4e",86,1
"88",0,0,894,27,21,1,"1c56a4e",87,1
"89",1,0,677,21,1,1,"1c56a4e",88,1
"90",0,0,1353,1,13,1,"1c56a4e",89,1
"91",0,0,1279,13,15,1,"1c56a4e",90,1
"92",1,0,645,15,23,1,"1c56a4e",91,1
"93",0,1,530,23,7,1,"1c56a4e",92,1
"94",0,0,406,7,12,1,"1c56a4e",93,1
"95",1,0,364,12,25,1,"1c56a4e",94,1
"96",0,1,1677,25,9,1,"1c56a4e",95,1
"97",1,0,387,9,22,1,"1c56a4e",96,1
"98",0,1,450,22,18,1,"1c56a4e",97,1
"99",1,1,391,18,11,1,"1c56a4e",98,1
"100",1,1,1077,11,5,1,"1c56a4e",99,1
"101",0,0,883,5,2,1,"1c56a4e",100,1
"102",1,1,358,2,8,1,"1c56a4e",101,1
"103",1,1,341,8,16,1,"1c56a4e",102,1
"104",0,1,498,16,30,1,"1c56a4e",103,1
"105",1,0,335,30,3,1,"1c56a4e",104,1
"106",0,1,455,3,34,1,"1c56a4e",105,1
"107",0,0,437,34,29,1,"1c56a4e",106,1
"108",1,1,363,29,28,1,"1c56a4e",107,1
"109",1,0,555,28,10,1,"1c56a4e",108,1
"110",0,0,392,10,11,1,"1c56a4e",109,1
"111",1,0,419,11,19,1,"1c56a4e",110,1
"112",0,1,650,19,14,1,"1c56a4e",111,1
"113",0,0,567,14,13,1,"1c56a4e",112,1
"114",1,1,531,13,2,1,"1c56a4e",113,1
"115",1,1,445,2,7,1,"1c56a4e",114,1
"116",1,0,146,7,21,1,"1c56a4e",115,1
"117",0,0,510,21,27,1,"1c56a4e",116,1
"118",0,1,419,27,17,1,"1c56a4e",117,1
"119",0,0,376,17,4,1,"1c56a4e",118,1
"120",0,0,662,4,15,1,"1c56a4e",119,1
"121",0,1,466,15,30,1,"1c56a4e",120,1
"122",0,1,689,30,8,1,"1c56a4e",121,1
"123",0,1,485,8,20,1,"1c56a4e",122,1
"124",0,0,531,20,22,1,"1c56a4e",123,1
"125",1,0,429,22,3,1,"1c56a4e",124,1
"126",0,0,1123,3,16,1,"1c56a4e",125,1
"127",1,0,1389,16,33,1,"1c56a4e",126,1
"128",1,1,932,33,35,1,"1c56a4e",127,1
"129",0,0,665,35,32,1,"1c56a4e",128,1
"130",1,0,893,32,18,1,"1c56a4e",129,1
"131",0,1,473,18,29,1,"1c56a4e",130,1
"132",0,1,389,29,9,1,"1c56a4e",131,1
"133",0,1,425,9,34,1,"1c56a4e",132,1
"134",1,0,382,34,6,1,"1c56a4e",133,1
"135",0,0,554,6,5,1,"1c56a4e",134,1
"136",1,0,466,5,36,1,"1c56a4e",135,1
"137",0,0,419,36,24,1,"1c56a4e",136,1
"138",1,1,386,24,28,1,"1c56a4e",137,1
"139",0,0,451,28,31,1,"1c56a4e",138,1
"140",0,0,367,31,25,1,"1c56a4e",139,1
"141",0,0,629,25,26,1,"1c56a4e",140,1
"142",1,0,473,26,12,1,"1c56a4e",141,1
"143",0,1,552,12,23,1,"1c56a4e",142,1
"144",0,1,418,23,10,1,"1c56a4e",143,1
"145",1,1,366,10,1,1,"1c56a4e",144,1
"146",0,0,627,1,6,1,"1c56a4e",145,1
"147",1,0,468,6,21,1,"1c56a4e",146,1
"148",1,1,358,21,33,1,"1c56a4e",147,1
"149",0,0,536,33,19,1,"1c56a4e",148,1
"150",0,1,622,19,16,1,"1c56a4e",149,1
"151",-1,-1,0,16,7,1,"1c56a4e",150,1
"152",-1,-1,0,7,22,1,"1c56a4e",151,1
"153",0,0,1916,22,31,1,"1c56a4e",152,1
"154",1,1,537,31,34,1,"1c56a4e",153,1
"155",0,0,656,34,36,1,"1c56a4e",154,1
"156",1,0,412,36,14,1,"1c56a4e",155,1
"157",0,0,570,14,10,1,"1c56a4e",156,1
"158",1,1,449,10,2,1,"1c56a4e",157,1
"159",0,0,424,2,12,1,"1c56a4e",158,1
"160",1,0,930,12,32,1,"1c56a4e",159,1
"161",0,1,455,32,3,1,"1c56a4e",160,1
"162",1,1,375,3,13,1,"1c56a4e",161,1
"163",0,1,484,13,26,1,"1c56a4e",162,1
"164",0,0,496,26,29,1,"1c56a4e",163,1
"165",1,0,411,29,1,1,"1c56a4e",164,1
"166",1,0,1076,1,20,1,"1c56a4e",165,1
"167",-1,-1,0,20,24,1,"1c56a4e",166,1
"168",1,1,456,24,30,1,"1c56a4e",167,1
"169",0,0,392,30,25,1,"1c56a4e",168,1
"170",1,0,407,25,18,1,"1c56a4e",169,1
"171",0,1,428,18,23,1,"1c56a4e",170,1
"172",1,1,387,23,27,1,"1c56a4e",171,1
"173",0,1,408,27,9,1,"1c56a4e",172,1
"174",1,1,393,9,8,1,"1c56a4e",173,1
"175",0,0,362,8,5,1,"1c56a4e",174,1
"176",1,0,399,5,35,1,"1c56a4e",175,1
"177",0,1,316,35,17,1,"1c56a4e",176,1
"178",1,1,427,17,11,1,"1c56a4e",177,1
"179",0,0,200,11,15,1,"1c56a4e",178,1
"180",1,1,386,15,4,1,"1c56a4e",179,1
"181",1,0,351,4,28,1,"1c56a4e",180,1
"182",0,1,503,28,18,1,"1c56a4e",181,1
"183",1,1,379,18,13,1,"1c56a4e",182,1
"184",1,0,359,13,27,1,"1c56a4e",183,1
"185",-1,-1,0,27,7,1,"1c56a4e",184,1
"186",-1,-1,0,7,30,1,"1c56a4e",185,1
"187",-1,-1,0,30,28,1,"1c56a4e",186,1
"188",0,1,924,28,4,1,"1c56a4e",187,1
"189",1,0,404,4,23,1,"1c56a4e",188,1
"190",0,0,347,23,26,1,"1c56a4e",189,1
"191",-1,-1,0,26,14,1,"1c56a4e",190,1
"192",1,0,641,14,25,1,"1c56a4e",191,1
"193",0,1,834,25,15,1,"1c56a4e",192,1
"194",1,1,722,15,6,1,"1c56a4e",193,1
"195",1,0,864,6,36,1,"1c56a4e",194,1
"196",0,1,575,36,10,1,"1c56a4e",195,1
"197",1,1,446,10,5,1,"1c56a4e",196,1
"198",0,0,421,5,9,1,"1c56a4e",197,1
"199",1,1,382,9,2,1,"1c56a4e",198,1
"200",0,1,1078,2,24,1,"1c56a4e",199,1
"201",0,1,536,24,16,1,"1c56a4e",200,1
"202",1,0,343,16,29,1,"1c56a4e",201,1
"203",0,0,375,29,22,1,"1c56a4e",202,1
"204",1,1,383,22,32,1,"1c56a4e",203,1
"205",0,1,437,32,1,1,"1c56a4e",204,1
"206",1,1,681,1,11,1,"1c56a4e",205,1
"207",0,1,2210,11,33,1,"1c56a4e",206,1
"208",-1,-1,0,33,34,1,"1c56a4e",207,1
"209",0,0,598,34,21,1,"1c56a4e",208,1
"210",1,0,335,21,8,1,"1c56a4e",209,1
"211",1,0,2159,8,35,1,"1c56a4e",210,1
"212",0,0,948,35,31,1,"1c56a4e",211,1
"213",0,0,554,31,20,1,"1c56a4e",212,1
"214",1,0,385,20,12,1,"1c56a4e",213,1
"215",0,0,929,12,17,1,"1c56a4e",214,1
"216",0,0,637,17,3,1,"1c56a4e",215,1
"217",0,1,860,3,19,1,"1c56a4e",216,1
"218",0,0,467,19,22,1,"1c56a4e",217,1
"219",0,1,1347,22,6,1,"1c56a4e",218,1
"220",0,0,443,6,13,1,"1c56a4e",219,1
"221",-1,0,500,13,1,1,"1c56a4e",220,1
"222",0,0,1233,1,5,1,"1c56a4e",221,1
"223",1,0,944,5,25,1,"1c56a4e",222,1
"224",0,0,734,25,33,1,"1c56a4e",223,1
"225",0,1,374,33,14,1,"1c56a4e",224,1
"226",0,0,1146,14,9,1,"1c56a4e",225,1
"227",1,0,352,9,35,1,"1c56a4e",226,1
"228",1,1,361,35,34,1,"1c56a4e",227,1
"229",0,0,702,34,36,1,"1c56a4e",228,1
"230",0,1,627,36,2,1,"1c56a4e",229,1
"231",1,1,616,2,17,1,"1c56a4e",230,1
"232",0,0,845,17,10,1,"1c56a4e",231,1
"233",0,1,570,10,31,1,"1c56a4e",232,1
"234",1,0,410,31,16,1,"1c56a4e",233,1
"235",1,0,525,16,28,1,"1c56a4e",234,1
"236",0,1,328,28,7,1,"1c56a4e",235,1
"237",-1,0,357,7,27,1,"1c56a4e",236,1
"238",0,1,417,27,11,1,"1c56a4e",237,1
"239",1,1,353,11,8,1,"1c56a4e",238,1
"240",0,1,631,8,29,1,"1c56a4e",239,1
"241",1,1,1315,29,32,1,"1c56a4e",240,1
"242",1,0,1163,32,12,1,"1c56a4e",241,1
"243",1,0,754,12,23,1,"1c56a4e",242,1
"244",1,1,972,23,24,1,"1c56a4e",243,1
"245",0,0,1697,24,19,1,"1c56a4e",244,1
"246",0,1,1741,19,3,1,"1c56a4e",245,1
"247",1,0,1256,3,20,1,"1c56a4e",246,1
"248",-1,-1,0,20,30,1,"1c56a4e",247,1
"249",-1,-1,0,30,4,1,"1c56a4e",248,1
"250",1,1,1804,4,18,1,"1c56a4e",249,1
"251",1,0,360,18,26,1,"1c56a4e",250,1
"252",0,0,348,26,21,1,"1c56a4e",251,1
"253",1,0,408,21,15,1,"1c56a4e",252,1
"254",0,0,351,15,12,1,"1c56a4e",253,1
"255",1,1,482,12,16,1,"1c56a4e",254,1
"256",1,1,491,16,18,1,"1c56a4e",255,1
"257",1,0,524,18,30,1,"1c56a4e",256,1
"258",0,0,393,30,34,1,"1c56a4e",257,1
"259",1,1,718,34,22,1,"1c56a4e",258,1
"260",0,0,456,22,29,1,"1c56a4e",259,1
"261",1,1,455,29,19,1,"1c56a4e",260,1
"262",1,0,476,19,1,1,"1c56a4e",261,1
"263",1,1,346,1,2,1,"1c56a4e",262,1
"264",0,0,374,2,4,1,"1c56a4e",263,1
"265",1,0,1498,4,23,1,"1c56a4e",264,1
"266",0,0,416,23,32,1,"1c56a4e",265,1
"267",1,1,428,32,28,1,"1c56a4e",266,1
"268",0,1,320,28,9,1,"1c56a4e",267,1
"269",1,0,374,9,21,1,"1c56a4e",268,1
"270",-1,-1,0,21,7,1,"1c56a4e",269,1
"271",-1,-1,0,7,31,1,"1c56a4e",270,1
"272",-1,-1,0,31,36,1,"1c56a4e",271,1
"273",-1,-1,0,36,17,1,"1c56a4e",272,1
"274",1,1,543,17,6,1,"1c56a4e",273,1
"275",0,1,373,6,33,1,"1c56a4e",274,1
"276",1,0,248,33,13,1,"1c56a4e",275,1
"277",0,1,196,13,20,1,"1c56a4e",276,1
"278",-1,-1,0,20,26,1,"1c56a4e",277,1
"279",1,1,883,26,24,1,"1c56a4e",278,1
"280",1,0,674,24,3,1,"1c56a4e",279,1
"281",0,1,326,3,35,1,"1c56a4e",280,1
"282",1,0,356,35,8,1,"1c56a4e",281,1
"283",0,0,463,8,5,1,"1c56a4e",282,1
"284",1,1,430,5,15,1,"1c56a4e",283,1
"285",0,1,416,15,25,1,"1c56a4e",284,1
"286",1,0,430,25,10,1,"1c56a4e",285,1
"287",0,1,355,10,27,1,"1c56a4e",286,1
"288",0,1,495,27,11,1,"1c56a4e",287,1
"289",0,0,219,11,14,1,"1c56a4e",288,1
"290",-1,-1,0,0,7,1,"170e50f",1,1
"310",0,0,707,7,12,1,"170e50f",2,1
"410",0,1,1925,12,33,1,"170e50f",3,1
"510",0,1,1265,33,9,1,"170e50f",4,1
"610",0,0,841,9,14,1,"170e50f",5,1
"710",0,0,1141,14,2,1,"170e50f",6,1
"810",0,1,1346,2,29,1,"170e50f",7,1
"910",1,1,885,29,27,1,"170e50f",8,1
"1010",1,0,583,27,13,1,"170e50f",9,1
"1110",0,1,1162,13,22,1,"170e50f",10,1
"1210",1,0,1579,22,4,1,"170e50f",11,1
"1310",0,1,1139,4,35,1,"170e50f",12,1
"1410",0,1,1225,35,18,1,"170e50f",13,1
"1510",0,0,1328,18,10,1,"170e50f",14,1
"1610",0,0,1378,10,16,1,"170e50f",15,1
"1710",1,1,1189,16,15,1,"170e50f",16,1
"1810",0,0,892,15,8,1,"170e50f",17,1
"1910",0,0,1748,8,3,1,"170e50f",18,1
"2010",0,1,1220,3,32,1,"170e50f",19,1
"2110",0,1,1833,32,6,1,"170e50f",20,1
"2210",0,1,1248,6,25,1,"170e50f",21,1
"2310",0,0,1287,25,26,1,"170e50f",22,1
"2410",0,0,1337,26,21,1,"170e50f",23,1
"2510",0,0,1125,21,28,1,"170e50f",24,1
"2610",1,0,1687,28,1,1,"170e50f",25,1
"2710",1,1,1123,1,11,1,"170e50f",26,1
"2810",1,0,778,11,30,1,"170e50f",27,1
"291",0,0,1260,30,34,1,"170e50f",28,1
"301",0,0,960,34,24,1,"170e50f",29,1
"311",1,1,1128,24,36,1,"170e50f",30,1
"321",1,1,895,36,31,1,"170e50f",31,1
"331",1,0,1595,31,17,1,"170e50f",32,1
"341",0,1,1476,17,23,1,"170e50f",33,1
"351",1,0,1373,23,5,1,"170e50f",34,1
"361",0,1,976,5,19,1,"170e50f",35,1
"371",0,0,1369,19,20,1,"170e50f",36,1
"381",0,1,2057,20,7,1,"170e50f",37,1
"391",0,0,1385,7,12,1,"170e50f",38,1
"401",0,1,1067,12,33,1,"170e50f",39,1
"411",0,1,1465,33,9,1,"170e50f",40,1
"421",0,0,735,9,14,1,"170e50f",41,1
"431",0,0,1287,14,2,1,"170e50f",42,1
"441",0,1,938,2,29,1,"170e50f",43,1
"451",1,1,997,29,27,1,"170e50f",44,1
"461",0,1,1457,27,13,1,"170e50f",45,1
"471",0,1,1085,13,22,1,"170e50f",46,1
"481",1,0,1182,22,4,1,"170e50f",47,1
"491",0,1,1113,4,35,1,"170e50f",48,1
"501",0,1,947,35,18,1,"170e50f",49,1
"511",0,0,1216,18,10,1,"170e50f",50,1
"521",1,1,1183,10,16,1,"170e50f",51,1
"531",1,1,739,16,15,1,"170e50f",52,1
"541",0,0,814,15,8,1,"170e50f",53,1
"551",0,0,977,8,3,1,"170e50f",54,1
"561",1,0,1230,3,32,1,"170e50f",55,1
"571",0,1,913,32,6,1,"170e50f",56,1
"581",0,1,1165,6,25,1,"170e50f",57,1
"591",0,0,1490,25,26,1,"170e50f",58,1
"601",0,0,1081,26,21,1,"170e50f",59,1
"611",0,0,1198,21,28,1,"170e50f",60,1
"621",1,0,1603,28,1,1,"170e50f",61,1
"631",0,0,1035,1,11,1,"170e50f",62,1
"641",1,0,1061,11,30,1,"170e50f",63,1
"651",0,0,1200,30,34,1,"170e50f",64,1
"661",0,0,2021,34,24,1,"170e50f",65,1
"671",1,1,934,24,36,1,"170e50f",66,1
"681",1,1,825,36,31,1,"170e50f",67,1
"691",1,0,732,31,17,1,"170e50f",68,1
"701",0,1,849,17,23,1,"170e50f",69,1
"711",1,0,1166,23,5,1,"170e50f",70,1
"721",0,1,720,5,19,1,"170e50f",71,1
"731",0,0,1067,19,20,1,"170e50f",72,1
"741",0,1,1574,20,18,1,"170e50f",73,1
"751",0,0,426,18,6,1,"170e50f",74,1
"761",1,0,1175,6,25,1,"170e50f",75,1
"771",0,1,921,25,1,1,"170e50f",76,1
"781",0,1,996,1,34,1,"170e50f",77,1
"791",1,0,909,34,13,1,"170e50f",78,1
"801",1,1,1886,13,3,1,"170e50f",79,1
"811",1,1,648,3,14,1,"170e50f",80,1
"821",1,0,532,14,19,1,"170e50f",81,1
"831",1,0,776,19,10,1,"170e50f",82,1
"841",0,0,755,10,16,1,"170e50f",83,1
"851",0,0,1095,16,2,1,"170e50f",84,1
"861",0,1,1078,2,30,1,"170e50f",85,1
"871",1,1,717,30,28,1,"170e50f",86,1
"881",0,0,762,28,23,1,"170e50f",87,1
"891",1,1,977,23,21,1,"170e50f",88,1
"901",1,1,1264,21,24,1,"170e50f",89,1
"911",1,0,615,24,9,1,"170e50f",90,1
"921",1,1,626,9,12,1,"170e50f",91,1
"931",1,0,615,12,22,1,"170e50f",92,1
"941",0,1,807,22,17,1,"170e50f",93,1
"951",0,1,1278,17,27,1,"170e50f",94,1
"961",1,1,856,27,29,1,"170e50f",95,1
"971",0,1,783,29,11,1,"170e50f",96,1
"981",0,1,1101,11,36,1,"170e50f",97,1
"991",0,0,956,36,20,1,"170e50f",98,1
"1001",1,1,918,20,31,1,"170e50f",99,1
"1011",0,1,1326,31,15,1,"170e50f",100,1
"1021",0,0,1632,15,4,1,"170e50f",101,1
"1031",0,0,903,4,5,1,"170e50f",102,1
"1041",1,0,1201,5,32,1,"170e50f",103,1
"1051",0,0,803,32,35,1,"170e50f",104,1
"1061",0,1,1041,35,8,1,"170e50f",105,1
"1071",0,0,1978,8,7,1,"170e50f",106,1
"1081",0,1,829,7,26,1,"170e50f",107,1
"1091",1,1,951,26,33,1,"170e50f",108,1
"1101",1,1,620,33,28,1,"170e50f",109,1
"1111",0,0,569,28,32,1,"170e50f",110,1
"1121",1,0,1153,32,1,1,"170e50f",111,1
"1131",0,1,893,1,26,1,"170e50f",112,1
"1141",1,0,1190,26,17,1,"170e50f",113,1
"1151",0,0,822,17,12,1,"170e50f",114,1
"1161",1,1,912,12,8,1,"170e50f",115,1
"1171",1,0,598,8,22,1,"170e50f",116,1
"1181",0,0,1163,22,34,1,"170e50f",117,1
"1191",1,1,1520,34,35,1,"170e50f",118,1
"1201",1,0,551,35,3,1,"170e50f",119,1
"1211",0,0,843,3,18,1,"170e50f",120,1
"1221",-1,-1,0,18,16,1,"170e50f",121,1
"1231",1,0,1005,16,27,1,"170e50f",122,1
"1241",1,0,800,27,14,1,"170e50f",123,1
"1251",1,1,646,14,7,1,"170e50f",124,1
"1261",0,1,845,7,25,1,"170e50f",125,1
"1271",0,1,1132,25,4,1,"170e50f",126,1
"1281",0,1,875,4,21,1,"170e50f",127,1
"1291",0,1,1047,21,10,1,"170e50f",128,1
"1301",0,1,890,10,30,1,"170e50f",129,1
"1311",0,1,1078,30,2,1,"170e50f",130,1
"1321",0,0,857,2,11,1,"170e50f",131,1
"1331",0,1,911,11,19,1,"170e50f",132,1
"1341",0,1,1340,19,5,1,"170e50f",133,1
"1351",0,1,915,5,31,1,"170e50f",134,1
"1361",0,0,1008,31,33,1,"170e50f",135,1
"1371",0,0,1704,33,20,1,"170e50f",136,1
"1381",0,0,840,20,36,1,"170e50f",137,1
"1391",1,1,474,36,24,1,"170e50f",138,1
"1401",1,1,431,24,23,1,"170e50f",139,1
"1411",1,1,1298,23,29,1,"170e50f",140,1
"1421",1,0,654,29,9,1,"170e50f",141,1
"1431",1,1,783,9,13,1,"170e50f",142,1
"1441",1,1,849,13,15,1,"170e50f",143,1
"1451",0,0,750,15,6,1,"170e50f",144,1
"1461",0,0,1065,6,11,1,"170e50f",145,1
"1471",1,1,793,11,12,1,"170e50f",146,1
"1481",0,0,678,12,16,1,"170e50f",147,1
"1491",1,0,952,16,33,1,"170e50f",148,1
"1501",1,1,1114,33,31,1,"170e50f",149,1
"1511",0,1,890,31,18,1,"170e50f",150,1
"1521",0,0,1348,18,7,1,"170e50f",151,1
"1531",1,0,649,7,24,1,"170e50f",152,1
"1541",1,0,810,24,8,1,"170e50f",153,1
"1551",1,0,1030,8,21,1,"170e50f",154,1
"1561",0,1,835,21,6,1,"170e50f",155,1
"1571",1,0,848,6,22,1,"170e50f",156,1
"1581",0,1,899,22,13,1,"170e50f",157,1
"1591",0,1,1202,13,19,1,"170e50f",158,1
"1601",1,1,561,19,36,1,"170e50f",159,1
"1611",0,1,692,36,5,1,"170e50f",160,1
"1621",0,0,1173,5,10,1,"170e50f",161,1
"1631",0,0,997,10,2,1,"170e50f",162,1
"1641",1,0,745,2,23,1,"170e50f",163,1
"1651",0,1,1116,23,3,1,"170e50f",164,1
"1661",1,0,1053,3,28,1,"170e50f",165,1
"1671",0,0,834,28,20,1,"170e50f",166,1
"1681",1,1,996,20,30,1,"170e50f",167,1
"1691",0,0,550,30,26,1,"170e50f",168,1
"1701",1,1,1127,26,35,1,"170e50f",169,1
"1711",1,1,374,35,34,1,"170e50f",170,1
"1721",1,1,443,34,27,1,"170e50f",171,1
"1731",1,0,477,27,9,1,"170e50f",172,1
"1741",0,1,720,9,25,1,"170e50f",173,1
"1751",0,1,780,25,17,1,"170e50f",174,1
"1761",1,1,1294,17,14,1,"170e50f",175,1
"1771",0,0,888,14,1,1,"170e50f",176,1
"1781",1,0,728,1,32,1,"170e50f",177,1
"1791",1,1,592,32,29,1,"170e50f",178,1
"1801",1,0,473,29,4,1,"170e50f",179,1
"1811",1,1,594,4,15,1,"170e50f",180,1
"1821",1,1,520,15,4,1,"170e50f",181,1
"1831",1,1,646,4,15,1,"170e50f",182,1
"1841",0,1,717,15,26,1,"170e50f",183,1
"1851",0,1,872,26,16,1,"170e50f",184,1
"1861",1,0,678,16,29,1,"170e50f",185,1
"1871",0,0,680,29,24,1,"170e50f",186,1
"1881",1,1,420,24,19,1,"170e50f",187,1
"1891",1,1,869,19,34,1,"170e50f",188,1
"1901",1,1,478,34,36,1,"170e50f",189,1
"1911",0,1,618,36,2,1,"170e50f",190,1
"1921",1,0,676,2,31,1,"170e50f",191,1
"1931",0,0,731,31,28,1,"170e50f",192,1
"1941",1,0,494,28,7,1,"170e50f",193,1
"1951",1,1,881,7,10,1,"170e50f",194,1
"1961",0,1,936,10,25,1,"170e50f",195,1
"1971",1,1,753,25,22,1,"170e50f",196,1
"1981",0,0,1020,22,27,1,"170e50f",197,1
"1991",1,0,1829,27,8,1,"170e50f",198,1
"2001",0,0,779,8,3,1,"170e50f",199,1
"2011",0,0,1149,3,9,1,"170e50f",200,1
"2021",1,1,580,9,13,1,"170e50f",201,1
"2031",1,0,385,13,32,1,"170e50f",202,1
"2041",1,0,1240,32,5,1,"170e50f",203,1
"2051",1,1,1051,5,18,1,"170e50f",204,1
"2061",1,1,533,18,11,1,"170e50f",205,1
"2071",1,1,605,11,12,1,"170e50f",206,1
"2081",1,0,502,12,30,1,"170e50f",207,1
"2091",0,1,577,30,14,1,"170e50f",208,1
"2101",0,1,945,14,21,1,"170e50f",209,1
"2111",1,1,752,21,23,1,"170e50f",210,1
"2121",0,1,748,23,1,1,"170e50f",211,1
"2131",0,1,717,1,33,1,"170e50f",212,1
"2141",1,0,949,33,6,1,"170e50f",213,1
"2151",1,0,1026,6,20,1,"170e50f",214,1
"2161",0,0,665,20,35,1,"170e50f",215,1
"2171",1,0,773,35,17,1,"170e50f",216,1
"2181",1,1,914,17,9,1,"170e50f",217,1
"2191",0,0,730,9,6,1,"170e50f",218,1
"2201",1,1,814,6,17,1,"170e50f",219,1
"2211",0,1,685,17,23,1,"170e50f",220,1
"2221",0,1,1192,23,13,1,"170e50f",221,1
"2231",1,1,827,13,15,1,"170e50f",222,1
"2241",1,1,834,15,12,1,"170e50f",223,1
"2251",1,0,516,12,22,1,"170e50f",224,1
"2261",0,0,692,22,28,1,"170e50f",225,1
"2271",1,1,664,28,30,1,"170e50f",226,1
"2281",1,1,655,30,20,1,"170e50f",227,1
"2291",0,0,938,20,35,1,"170e50f",228,1
"2301",1,0,1807,35,18,1,"170e50f",229,1
"2311",0,1,878,18,26,1,"170e50f",230,1
"2321",1,0,874,26,16,1,"170e50f",231,1
"2331",1,1,977,16,3,1,"170e50f",232,1
"2341",0,0,749,3,10,1,"170e50f",233,1
"2351",0,1,835,10,21,1,"170e50f",234,1
"2361",1,0,1509,21,8,1,"170e50f",235,1
"2371",0,0,943,8,14,1,"170e50f",236,1
"2381",0,0,1495,14,1,1,"170e50f",237,1
"2391",1,0,1153,1,33,1,"170e50f",238,1
"2401",1,1,784,33,19,1,"170e50f",239,1
"2411",1,1,858,19,27,1,"170e50f",240,1
"2421",1,1,604,27,24,1,"170e50f",241,1
"2431",1,1,735,24,36,1,"170e50f",242,1
"2441",1,1,1214,36,34,1,"170e50f",243,1
"2451",0,1,680,34,11,1,"170e50f",244,1
"2461",0,0,1438,11,7,1,"170e50f",245,1
"2471",0,0,771,7,5,1,"170e50f",246,1
"2481",1,0,681,5,25,1,"170e50f",247,1
"2491",0,0,848,25,29,1,"170e50f",248,1
"2501",1,1,1107,29,31,1,"170e50f",249,1
"2511",1,0,513,31,2,1,"170e50f",250,1
"2521",1,0,996,2,32,1,"170e50f",251,1
"2531",0,1,1033,32,4,1,"170e50f",252,1
"2541",1,0,743,4,22,1,"170e50f",253,1
"2551",0,1,1000,22,17,1,"170e50f",254,1
"2561",1,0,815,17,29,1,"170e50f",255,1
"2571",1,0,844,29,1,1,"170e50f",256,1
"2581",1,1,739,1,16,1,"170e50f",257,1
"2591",1,1,685,16,8,1,"170e50f",258,1
"2601",1,1,522,8,11,1,"170e50f",259,1
"2611",0,1,622,11,19,1,"170e50f",260,1
"2621",1,0,937,19,9,1,"170e50f",261,1
"2631",1,0,518,9,24,1,"170e50f",262,1
"2641",0,1,835,24,15,1,"170e50f",263,1
"2651",1,1,671,15,2,1,"170e50f",264,1
"2661",1,0,518,2,31,1,"170e50f",265,1
"2671",1,1,758,31,30,1,"170e50f",266,1
"2681",1,0,594,30,7,1,"170e50f",267,1
"2691",1,1,654,7,14,1,"170e50f",268,1
"2701",0,1,611,14,25,1,"170e50f",269,1
"2711",1,1,428,25,21,1,"170e50f",270,1
"2721",0,0,654,21,27,1,"170e50f",271,1
"2731",0,0,719,27,34,1,"170e50f",272,1
"2741",0,0,1093,34,23,1,"170e50f",273,1
"2751",1,0,731,23,13,1,"170e50f",274,1
"2761",1,0,540,13,32,1,"170e50f",275,1
"2771",1,1,829,32,36,1,"170e50f",276,1
"2781",1,0,666,36,6,1,"170e50f",277,1
"2791",1,1,537,6,10,1,"170e50f",278,1
"2801",0,0,600,10,5,1,"170e50f",279,1
"2811",0,1,915,5,33,1,"170e50f",280,1
"2821",1,0,554,33,18,1,"170e50f",281,1
"2831",0,1,778,18,28,1,"170e50f",282,1
"2841",0,0,999,28,20,1,"170e50f",283,1
"2851",0,0,1266,20,35,1,"170e50f",284,1
"2861",1,1,978,35,26,1,"170e50f",285,1
"2871",0,1,777,26,4,1,"170e50f",286,1
"2881",0,0,894,4,12,1,"170e50f",287,1
"2891",1,1,1008,12,3,1,"170e50f",288,1
"292",-1,-1,0,0,13,1,"146f49f",1,1
"312",-1,-1,0,13,15,1,"146f49f",2,1
"412",-1,-1,0,15,4,1,"146f49f",3,1
"512",-1,-1,0,4,30,1,"146f49f",4,1
"612",-1,-1,0,30,22,1,"146f49f",5,1
"712",-1,-1,0,22,1,1,"146f49f",6,1
"812",-1,-1,0,1,35,1,"146f49f",7,1
"912",-1,-1,0,35,33,1,"146f49f",8,1
"1012",-1,-1,0,33,32,1,"146f49f",9,1
"1112",-1,-1,0,32,28,1,"146f49f",10,1
"1212",-1,-1,0,28,9,1,"146f49f",11,1
"1312",-1,-1,0,9,19,1,"146f49f",12,1
"1412",-1,-1,0,19,11,1,"146f49f",13,1
"1512",-1,-1,0,11,17,1,"146f49f",14,1
"1612",-1,-1,0,17,34,1,"146f49f",15,1
"1712",-1,-1,0,34,26,1,"146f49f",16,1
"1812",-1,-1,0,26,24,1,"146f49f",17,1
"1912",-1,-1,0,24,18,1,"146f49f",18,1
"2012",-1,-1,0,18,29,1,"146f49f",19,1
"2112",-1,-1,0,29,3,1,"146f49f",20,1
"2212",-1,-1,0,3,5,1,"146f49f",21,1
"2312",-1,-1,0,5,2,1,"146f49f",22,1
"2412",-1,-1,0,2,6,1,"146f49f",23,1
"2512",-1,-1,0,6,10,1,"146f49f",24,1
"2612",-1,-1,0,10,14,1,"146f49f",25,1
"2712",-1,-1,0,14,27,1,"146f49f",26,1
"2812",-1,-1,0,27,31,1,"146f49f",27,1
"293",-1,-1,0,31,12,1,"146f49f",28,1
"302",-1,-1,0,12,8,1,"146f49f",29,1
"313",-1,-1,0,8,21,1,"146f49f",30,1
"322",-1,-1,0,21,25,1,"146f49f",31,1
"332",-1,-1,0,25,23,1,"146f49f",32,1
"342",-1,-1,0,23,7,1,"146f49f",33,1
"352",-1,-1,0,7,36,1,"146f49f",34,1
"362",-1,-1,0,36,16,1,"146f49f",35,1
"372",-1,-1,0,16,20,1,"146f49f",36,1
"382",-1,-1,0,20,13,1,"146f49f",37,1
"392",-1,-1,0,13,15,1,"146f49f",38,1
"402",-1,-1,0,15,4,1,"146f49f",39,1
"413",-1,-1,0,4,30,1,"146f49f",40,1
"422",-1,-1,0,30,22,1,"146f49f",41,1
"432",-1,-1,0,22,1,1,"146f49f",42,1
"442",-1,-1,0,1,35,1,"146f49f",43,1
"452",-1,-1,0,35,33,1,"146f49f",44,1
"462",-1,-1,0,33,32,1,"146f49f",45,1
"472",-1,-1,0,32,28,1,"146f49f",46,1
"482",-1,-1,0,28,9,1,"146f49f",47,1
"492",-1,-1,0,9,19,1,"146f49f",48,1
"502",-1,-1,0,19,11,1,"146f49f",49,1
"513",-1,-1,0,11,17,1,"146f49f",50,1
"522",-1,-1,0,17,34,1,"146f49f",51,1
"532",-1,-1,0,34,26,1,"146f49f",52,1
"542",-1,-1,0,26,24,1,"146f49f",53,1
"552",-1,-1,0,24,18,1,"146f49f",54,1
"562",-1,-1,0,18,29,1,"146f49f",55,1
"572",-1,-1,0,29,3,1,"146f49f",56,1
"582",-1,-1,0,3,5,1,"146f49f",57,1
"592",-1,-1,0,5,2,1,"146f49f",58,1
"602",-1,-1,0,2,6,1,"146f49f",59,1
"613",-1,-1,0,6,10,1,"146f49f",60,1
"622",-1,0,1175,10,14,1,"146f49f",61,1
"632",-1,0,1111,14,27,1,"146f49f",62,1
"642",-1,0,1157,27,31,1,"146f49f",63,1
"652",-1,0,1150,31,12,1,"146f49f",64,1
"662",-1,0,961,12,8,1,"146f49f",65,1
"672",-1,0,403,8,21,1,"146f49f",66,1
"682",-1,0,1052,21,25,1,"146f49f",67,1
"692",-1,0,396,25,23,1,"146f49f",68,1
"702",-1,0,703,23,7,1,"146f49f",69,1
"713",-1,0,912,7,36,1,"146f49f",70,1
"722",-1,0,568,36,16,1,"146f49f",71,1
"732",-1,0,584,16,20,1,"146f49f",72,1
"742",-1,0,401,20,14,1,"146f49f",73,1
"752",-1,0,463,14,10,1,"146f49f",74,1
"762",-1,0,552,10,35,1,"146f49f",75,1
"772",0,1,441,35,7,1,"146f49f",76,1
"782",-1,0,866,7,12,1,"146f49f",77,1
"792",-1,0,803,12,30,1,"146f49f",78,1
"802",-1,0,513,30,8,1,"146f49f",79,1
"813",-1,0,403,8,21,1,"146f49f",80,1
"822",0,1,796,21,9,1,"146f49f",81,1
"832",0,0,974,9,17,1,"146f49f",82,1
"842",0,1,823,17,24,1,"146f49f",83,1
"852",-1,0,863,24,5,1,"146f49f",84,1
"862",0,0,1000,5,15,1,"146f49f",85,1
"872",0,1,929,15,20,1,"146f49f",86,1
"882",-1,0,595,20,26,1,"146f49f",87,1
"892",0,1,925,26,11,1,"146f49f",88,1
"902",-1,0,660,11,1,1,"146f49f",89,1
"913",-1,0,799,1,36,1,"146f49f",90,1
"922",0,1,1023,36,2,1,"146f49f",91,1
"932",-1,0,1624,2,28,1,"146f49f",92,1
"942",-1,0,959,28,33,1,"146f49f",93,1
"952",-1,0,1577,33,23,1,"146f49f",94,1
"962",0,0,1376,23,25,1,"146f49f",95,1
"972",0,1,1468,25,3,1,"146f49f",96,1
"982",0,0,1269,3,6,1,"146f49f",97,1
"992",-1,0,653,6,18,1,"146f49f",98,1
"1002",0,1,832,18,34,1,"146f49f",99,1
"1013",0,0,866,34,29,1,"146f49f",100,1
"1022",0,1,730,29,16,1,"146f49f",101,1
"1032",-1,0,2100,16,22,1,"146f49f",102,1
"1042",0,0,781,22,31,1,"146f49f",103,1
"1052",0,0,880,31,19,1,"146f49f",104,1
"1062",-1,0,800,19,13,1,"146f49f",105,1
"1072",-1,0,794,13,27,1,"146f49f",106,1
"1082",-1,0,435,27,4,1,"146f49f",107,1
"1092",0,1,444,4,32,1,"146f49f",108,1
"1102",0,1,814,32,7,1,"146f49f",109,1
"1113",-1,0,1070,7,16,1,"146f49f",110,1
"1122",-1,0,528,16,6,1,"146f49f",111,1
"1132",0,0,818,6,1,1,"146f49f",112,1
"1142",-1,0,1047,1,17,1,"146f49f",113,1
"1152",0,0,505,17,13,1,"146f49f",114,1
"1162",0,1,1322,13,29,1,"146f49f",115,1
"1172",0,0,1068,29,19,1,"146f49f",116,1
"1182",0,1,789,19,10,1,"146f49f",117,1
"1192",-1,0,1264,10,4,1,"146f49f",118,1
"1202",-1,0,962,4,34,1,"146f49f",119,1
"1213",0,0,850,34,32,1,"146f49f",120,1
"1222",-1,0,1067,32,33,1,"146f49f",121,1
"1232",0,1,684,33,8,1,"146f49f",122,1
"1242",-1,0,848,8,24,1,"146f49f",123,1
"1252",-1,0,889,24,28,1,"146f49f",124,1
"1262",-1,0,761,28,9,1,"146f49f",125,1
"1272",0,1,626,9,23,1,"146f49f",126,1
"1282",0,0,1165,23,35,1,"146f49f",127,1
"1292",0,0,949,35,21,1,"146f49f",128,1
"1302",-1,0,622,21,26,1,"146f49f",129,1
"1313",-1,0,462,26,31,1,"146f49f",130,1
"1322",-1,0,664,31,36,1,"146f49f",131,1
"1332",0,1,290,36,2,1,"146f49f",132,1
"1342",0,1,819,2,30,1,"146f49f",133,1
"1352",0,1,651,30,12,1,"146f49f",134,1
"1362",-1,0,799,12,3,1,"146f49f",135,1
"1372",0,1,505,3,25,1,"146f49f",136,1
"1382",-1,0,643,25,15,1,"146f49f",137,1
"1392",0,1,768,15,22,1,"146f49f",138,1
"1402",-1,0,515,22,27,1,"146f49f",139,1
"1413",-1,0,740,27,14,1,"146f49f",140,1
"1422",0,0,1404,14,5,1,"146f49f",141,1
"1432",0,0,430,5,18,1,"146f49f",142,1
"1442",0,0,849,18,11,1,"146f49f",143,1
"1452",-1,0,459,11,20,1,"146f49f",144,1
"1462",0,0,1203,20,25,1,"146f49f",145,1
"1472",-1,0,779,25,12,1,"146f49f",146,1
"1482",-1,0,886,12,14,1,"146f49f",147,1
"1492",-1,0,325,14,13,1,"146f49f",148,1
"1502",-1,0,1174,13,31,1,"146f49f",149,1
"1513",0,1,528,31,10,1,"146f49f",150,1
"1522",0,0,539,10,5,1,"146f49f",151,1
"1532",0,1,807,5,21,1,"146f49f",152,1
"1542",0,0,547,21,27,1,"146f49f",153,1
"1552",0,0,410,27,19,1,"146f49f",154,1
"1562",-1,0,524,19,33,1,"146f49f",155,1
"1572",0,0,323,33,32,1,"146f49f",156,1
"1582",-1,0,342,32,7,1,"146f49f",157,1
"1592",-1,0,303,7,36,1,"146f49f",158,1
"1602",-1,0,384,36,16,1,"146f49f",159,1
"1613",0,1,366,16,35,1,"146f49f",160,1
"1622",0,0,430,35,28,1,"146f49f",161,1
"1632",0,0,690,28,30,1,"146f49f",162,1
"1642",0,0,1001,30,23,1,"146f49f",163,1
"1652",0,1,522,23,3,1,"146f49f",164,1
"1662",-1,0,682,3,18,1,"146f49f",165,1
"1672",-1,0,764,18,1,1,"146f49f",166,1
"1682",0,0,444,1,11,1,"146f49f",167,1
"1692",-1,0,358,11,29,1,"146f49f",168,1
"1702",0,1,388,29,17,1,"146f49f",169,1
"1713",0,0,559,17,2,1,"146f49f",170,1
"1722",0,0,1056,2,9,1,"146f49f",171,1
"1732",0,1,662,9,20,1,"146f49f",172,1
"1742",0,0,536,20,24,1,"146f49f",173,1
"1752",0,0,410,24,34,1,"146f49f",174,1
"1762",0,1,674,34,4,1,"146f49f",175,1
"1772",0,0,1012,4,8,1,"146f49f",176,1
"1782",-1,0,372,8,6,1,"146f49f",177,1
"1792",-1,0,350,6,15,1,"146f49f",178,1
"1802",0,1,303,15,26,1,"146f49f",179,1
"1813",0,0,463,26,22,1,"146f49f",180,1
"1822",-1,0,359,22,11,1,"146f49f",181,1
"1832",0,1,386,11,34,1,"146f49f",182,1
"1842",0,0,626,34,30,1,"146f49f",183,1
"1852",0,1,537,30,8,1,"146f49f",184,1
"1862",0,1,587,8,28,1,"146f49f",185,1
"1872",0,1,547,28,7,1,"146f49f",186,1
"1882",0,0,390,7,18,1,"146f49f",187,1
"1892",0,1,622,18,33,1,"146f49f",188,1
"1902",0,1,545,33,5,1,"146f49f",189,1
"1913",0,0,518,5,1,1,"146f49f",190,1
"1922",0,1,384,1,23,1,"146f49f",191,1
"1932",0,1,449,23,13,1,"146f49f",192,1
"1942",0,1,338,13,32,1,"146f49f",193,1
"1952",0,0,417,32,36,1,"146f49f",194,1
"1962",0,1,403,36,2,1,"146f49f",195,1
"1972",0,1,599,2,31,1,"146f49f",196,1
"1982",0,1,342,31,6,1,"146f49f",197,1
"1992",0,1,285,6,22,1,"146f49f",198,1
"2002",0,1,342,22,14,1,"146f49f",199,1
"2013",0,0,344,14,17,1,"146f49f",200,1
"2022",0,1,254,17,26,1,"146f49f",201,1
"2032",0,1,376,26,3,1,"146f49f",202,1
"2042",0,0,266,3,12,1,"146f49f",203,1
"2052",0,1,276,12,25,1,"146f49f",204,1
"2062",0,1,436,25,4,1,"146f49f",205,1
"2072",0,1,491,4,21,1,"146f49f",206,1
"2082",0,0,363,21,20,1,"146f49f",207,1
"2092",0,1,271,20,15,1,"146f49f",208,1
"2102",0,1,317,15,27,1,"146f49f",209,1
"2113",0,1,279,27,16,1,"146f49f",210,1
"2122",0,1,314,16,35,1,"146f49f",211,1
"2132",0,0,315,35,24,1,"146f49f",212,1
"2142",0,1,276,24,10,1,"146f49f",213,1
"2152",0,0,122,10,9,1,"146f49f",214,1
"2162",0,1,260,9,29,1,"146f49f",215,1
"2172",0,0,406,29,19,1,"146f49f",216,1
"2182",0,1,789,19,7,1,"146f49f",217,1
"2192",0,1,374,7,28,1,"146f49f",218,1
"2202",0,1,582,28,3,1,"146f49f",219,1
"2213",0,1,520,3,33,1,"146f49f",220,1
"2222",0,0,288,33,32,1,"146f49f",221,1
"2232",0,1,304,32,1,1,"146f49f",222,1
"2242",0,0,138,1,8,1,"146f49f",223,1
"2252",0,0,427,8,14,1,"146f49f",224,1
"2262",0,1,355,14,23,1,"146f49f",225,1
"2272",0,1,246,23,11,1,"146f49f",226,1
"2282",0,1,277,11,24,1,"146f49f",227,1
"2292",0,1,237,24,9,1,"146f49f",228,1
"2302",0,0,144,9,5,1,"146f49f",229,1
"2313",0,0,48,5,15,1,"146f49f",230,1
"2322",0,1,216,15,26,1,"146f49f",231,1
"2332",0,1,257,26,6,1,"146f49f",232,1
"2342",0,0,300,6,10,1,"146f49f",233,1
"2352",0,0,299,10,2,1,"146f49f",234,1
"2362",0,1,298,2,27,1,"146f49f",235,1
"2372",0,0,324,27,35,1,"146f49f",236,1
"2382",0,0,517,35,25,1,"146f49f",237,1
"2392",-1,0,605,25,30,1,"146f49f",238,1
"2402",0,0,287,30,19,1,"146f49f",239,1
"2413",0,0,449,19,20,1,"146f49f",240,1
"2422",-1,0,424,20,17,1,"146f49f",241,1
"2432",0,0,263,17,4,1,"146f49f",242,1
"2442",0,0,209,4,16,1,"146f49f",243,1
"2452",-1,0,179,16,29,1,"146f49f",244,1
"2462",-1,0,35,29,13,1,"146f49f",245,1
"2472",-1,0,254,13,12,1,"146f49f",246,1
"2482",0,1,420,12,21,1,"146f49f",247,1
"2492",0,1,600,21,18,1,"146f49f",248,1
"2502",0,1,367,18,36,1,"146f49f",249,1
"2513",0,0,512,36,31,1,"146f49f",250,1
"2522",0,0,528,31,34,1,"146f49f",251,1
"2532",0,0,594,34,22,1,"146f49f",252,1
"2542",0,0,674,22,31,1,"146f49f",253,1
"2552",0,1,370,31,1,1,"146f49f",254,1
"2562",0,0,758,1,17,1,"146f49f",255,1
"2572",0,0,443,17,10,1,"146f49f",256,1
"2582",0,1,283,10,36,1,"146f49f",257,1
"2592",0,1,235,36,12,1,"146f49f",258,1
"2602",0,0,741,12,6,1,"146f49f",259,1
"2613",0,0,320,6,9,1,"146f49f",260,1
"2622",0,0,242,9,7,1,"146f49f",261,1
"2632",0,1,272,7,34,1,"146f49f",262,1
"2642",0,1,329,34,5,1,"146f49f",263,1
"2652",0,1,377,5,29,1,"146f49f",264,1
"2662",0,1,298,29,15,1,"146f49f",265,1
"2672",0,0,463,15,14,1,"146f49f",266,1
"2682",0,1,315,14,30,1,"146f49f",267,1
"2692",0,0,397,30,26,1,"146f49f",268,1
"2702",0,0,279,26,28,1,"146f49f",269,1
"2713",0,0,289,28,19,1,"146f49f",270,1
"2722",0,0,248,19,23,1,"146f49f",271,1
"2732",0,1,272,23,3,1,"146f49f",272,1
"2742",0,1,353,3,24,1,"146f49f",273,1
"2752",0,0,340,24,25,1,"146f49f",274,1
"2762",0,1,394,25,18,1,"146f49f",275,1
"2772",0,0,597,18,13,1,"146f49f",276,1
"2782",0,0,349,13,2,1,"146f49f",277,1
"2792",0,1,392,2,32,1,"146f49f",278,1
"2802",0,0,455,32,21,1,"146f49f",279,1
"2813",0,0,311,21,22,1,"146f49f",280,1
"2822",0,1,408,22,4,1,"146f49f",281,1
"2832",0,1,497,4,27,1,"146f49f",282,1
"2842",0,0,369,27,20,1,"146f49f",283,1
"2852",0,1,346,20,16,1,"146f49f",284,1
"2862",0,1,378,16,33,1,"146f49f",285,1
"2872",0,0,331,33,35,1,"146f49f",286,1
"2882",0,1,210,35,8,1,"146f49f",287,1
"2892",0,0,356,8,11,1,"146f49f",288,1
"294",1,0,2278,0,8,1,"1f7ae64",1,1
"314",0,0,2472,8,5,1,"1f7ae64",2,1
"414",1,0,1395,5,22,1,"1f7ae64",3,1
"514",0,0,1306,22,31,1,"1f7ae64",4,1
"614",1,0,1223,31,16,1,"1f7ae64",5,1
"714",1,0,578,16,26,1,"1f7ae64",6,1
"814",1,1,1586,26,30,1,"1f7ae64",7,1
"914",1,0,578,30,2,1,"1f7ae64",8,1
"1014",0,1,550,2,34,1,"1f7ae64",9,1
"1114",1,1,790,34,25,1,"1f7ae64",10,1
"1214",0,1,879,25,4,1,"1f7ae64",11,1
"1314",1,1,853,4,12,1,"1f7ae64",12,1
"1414",1,1,428,12,18,1,"1f7ae64",13,1
"1514",0,1,565,18,28,1,"1f7ae64",14,1
"1614",0,0,691,28,36,1,"1f7ae64",15,1
"1714",1,0,801,36,7,1,"1f7ae64",16,1
"1814",1,0,419,7,32,1,"1f7ae64",17,1
"1914",0,1,827,32,3,1,"1f7ae64",18,1
"2014",0,0,479,3,14,1,"1f7ae64",19,1
"2114",1,0,906,14,20,1,"1f7ae64",20,1
"2214",1,1,1019,20,24,1,"1f7ae64",21,1
"2314",1,0,494,24,11,1,"1f7ae64",22,1
"2414",1,0,1516,11,27,1,"1f7ae64",23,1
"2514",-1,-1,0,27,35,1,"1f7ae64",24,1
"2614",0,1,604,35,17,1,"1f7ae64",25,1
"2714",1,1,474,17,1,1,"1f7ae64",26,1
"2814",1,0,703,1,19,1,"1f7ae64",27,1
"295",1,0,546,19,9,1,"1f7ae64",28,1
"303",0,0,1130,9,10,1,"1f7ae64",29,1
"315",1,1,774,10,15,1,"1f7ae64",30,1
"323",1,0,528,15,29,1,"1f7ae64",31,1
"333",0,1,781,29,6,1,"1f7ae64",32,1
"343",1,0,1444,6,23,1,"1f7ae64",33,1
"353",0,0,2121,23,33,1,"1f7ae64",34,1
"363",1,1,643,33,21,1,"1f7ae64",35,1
"373",0,1,955,21,13,1,"1f7ae64",36,1
"383",0,0,2137,13,8,1,"1f7ae64",37,1
"393",1,1,830,8,5,1,"1f7ae64",38,1
"403",0,1,1022,5,22,1,"1f7ae64",39,1
"415",0,0,786,22,31,1,"1f7ae64",40,1
"423",1,0,1128,31,16,1,"1f7ae64",41,1
"433",1,0,1205,16,26,1,"1f7ae64",42,1
"443",1,1,1047,26,30,1,"1f7ae64",43,1
"453",0,1,572,30,2,1,"1f7ae64",44,1
"463",0,1,1117,2,34,1,"1f7ae64",45,1
"473",1,1,865,34,25,1,"1f7ae64",46,1
"483",0,1,1195,25,4,1,"1f7ae64",47,1
"493",-1,0,290,4,12,1,"1f7ae64",48,1
"503",1,1,1514,12,18,1,"1f7ae64",49,1
"515",0,1,1793,18,28,1,"1f7ae64",50,1
"523",1,1,2451,28,36,1,"1f7ae64",51,1
"533",0,1,873,36,7,1,"1f7ae64",52,1
"543",0,1,1133,7,32,1,"1f7ae64",53,1
"553",0,1,353,32,3,1,"1f7ae64",54,1
"563",1,1,704,3,14,1,"1f7ae64",55,1
"573",0,1,1407,14,20,1,"1f7ae64",56,1
"583",1,1,903,20,24,1,"1f7ae64",57,1
"593",0,1,418,24,11,1,"1f7ae64",58,1
"603",0,1,559,11,27,1,"1f7ae64",59,1
"615",1,1,615,27,35,1,"1f7ae64",60,1
"623",0,1,565,35,17,1,"1f7ae64",61,1
"633",-1,-1,0,17,1,1,"1f7ae64",62,1
"643",0,1,1822,1,19,1,"1f7ae64",63,1
"653",1,0,262,19,9,1,"1f7ae64",64,1
"663",1,1,991,9,10,1,"1f7ae64",65,1
"673",1,1,242,10,15,1,"1f7ae64",66,1
"683",0,1,1726,15,29,1,"1f7ae64",67,1
"693",1,0,2137,29,6,1,"1f7ae64",68,1
"703",0,1,213,6,23,1,"1f7ae64",69,1
"715",1,1,361,23,33,1,"1f7ae64",70,1
"723",1,1,976,33,21,1,"1f7ae64",71,1
"733",0,1,2296,21,13,1,"1f7ae64",72,1
"743",1,1,522,13,1,1,"1f7ae64",73,1
"753",0,1,965,1,35,1,"1f7ae64",74,1
"763",1,0,419,35,15,1,"1f7ae64",75,1
"773",0,1,143,15,28,1,"1f7ae64",76,1
"783",1,1,760,28,27,1,"1f7ae64",77,1
"793",1,1,422,27,20,1,"1f7ae64",78,1
"803",1,1,1396,20,21,1,"1f7ae64",79,1
"815",-1,0,1573,21,18,1,"1f7ae64",80,1
"823",0,1,295,18,32,1,"1f7ae64",81,1
"833",0,1,237,32,8,1,"1f7ae64",82,1
"843",0,1,266,8,31,1,"1f7ae64",83,1
"853",1,1,937,31,33,1,"1f7ae64",84,1
"863",0,1,1811,33,9,1,"1f7ae64",85,1
"873",0,1,1476,9,23,1,"1f7ae64",86,1
"883",0,1,1080,23,17,1,"1f7ae64",87,1
"893",1,1,267,17,5,1,"1f7ae64",88,1
"903",1,1,885,5,12,1,"1f7ae64",89,1
"915",1,1,1293,12,14,1,"1f7ae64",90,1
"923",1,1,275,14,7,1,"1f7ae64",91,1
"933",0,1,1198,7,25,1,"1f7ae64",92,1
"943",1,1,638,25,26,1,"1f7ae64",93,1
"953",0,1,878,26,16,1,"1f7ae64",94,1
"963",1,1,598,16,6,1,"1f7ae64",95,1
"973",0,1,1786,6,36,1,"1f7ae64",96,1
"983",0,0,719,36,34,1,"1f7ae64",97,1
"993",1,1,647,34,22,1,"1f7ae64",98,1
"1003",0,1,935,22,13,1,"1f7ae64",99,1
"1015",0,1,1158,13,24,1,"1f7ae64",100,1
"1023",0,1,708,24,4,1,"1f7ae64",101,1
"1033",1,1,2165,4,10,1,"1f7ae64",102,1
"1043",0,1,1932,10,19,1,"1f7ae64",103,1
"1053",0,1,746,19,2,1,"1f7ae64",104,1
"1063",1,1,810,2,3,1,"1f7ae64",105,1
"1073",1,1,1454,3,11,1,"1f7ae64",106,1
"1083",0,1,714,11,29,1,"1f7ae64",107,1
"1093",1,1,1426,29,30,1,"1f7ae64",108,1
"1103",1,1,712,30,19,1,"1f7ae64",109,1
"1115",0,1,537,19,17,1,"1f7ae64",110,1
"1123",0,1,911,17,29,1,"1f7ae64",111,1
"1133",1,1,1207,29,28,1,"1f7ae64",112,1
"1143",1,0,893,28,4,1,"1f7ae64",113,1
"1153",1,1,1491,4,13,1,"1f7ae64",114,1
"1163",1,1,531,13,9,1,"1f7ae64",115,1
"1173",1,0,2444,9,25,1,"1f7ae64",116,1
"1183",1,1,647,25,36,1,"1f7ae64",117,1
"1193",1,0,196,36,18,1,"1f7ae64",118,1
"1203",0,1,1103,18,22,1,"1f7ae64",119,1
"1215",0,1,748,22,5,1,"1f7ae64",120,1
"1223",1,1,442,5,1,1,"1f7ae64",121,1
"1233",0,1,905,1,27,1,"1f7ae64",122,1
"1243",1,1,278,27,30,1,"1f7ae64",123,1
"1253",0,1,715,30,12,1,"1f7ae64",124,1
"1263",0,1,1108,12,21,1,"1f7ae64",125,1
"1273",1,1,241,21,32,1,"1f7ae64",126,1
"1283",1,1,329,32,33,1,"1f7ae64",127,1
"1293",0,0,585,33,23,1,"1f7ae64",128,1
"1303",0,1,729,23,14,1,"1f7ae64",129,1
"1315",1,1,384,14,11,1,"1f7ae64",130,1
"1323",1,1,548,11,16,1,"1f7ae64",131,1
"1333",1,1,218,16,15,1,"1f7ae64",132,1
"1343",0,1,682,15,20,1,"1f7ae64",133,1
"1353",0,1,1355,20,7,1,"1f7ae64",134,1
"1363",0,1,1336,7,26,1,"1f7ae64",135,1
"1373",1,1,826,26,31,1,"1f7ae64",136,1
"1383",1,1,1315,31,34,1,"1f7ae64",137,1
"1393",0,1,980,34,8,1,"1f7ae64",138,1
"1403",1,1,1356,8,3,1,"1f7ae64",139,1
"1415",0,1,789,3,35,1,"1f7ae64",140,1
"1423",0,1,1061,35,10,1,"1f7ae64",141,1
"1433",1,1,1071,10,2,1,"1f7ae64",142,1
"1443",0,1,1587,2,24,1,"1f7ae64",143,1
"1453",0,1,1618,24,6,1,"1f7ae64",144,1
"1463",1,1,689,6,18,1,"1f7ae64",145,1
"1473",0,1,1021,18,34,1,"1f7ae64",146,1
"1483",1,1,477,34,21,1,"1f7ae64",147,1
"1493",1,1,201,21,20,1,"1f7ae64",148,1
"1503",1,1,326,20,28,1,"1f7ae64",149,1
"1515",0,1,212,28,9,1,"1f7ae64",150,1
"1523",1,1,616,9,7,1,"1f7ae64",151,1
"1533",1,1,772,7,11,1,"1f7ae64",152,1
"1543",0,1,871,11,19,1,"1f7ae64",153,1
"1553",0,1,1885,19,15,1,"1f7ae64",154,1
"1563",1,1,1092,15,5,1,"1f7ae64",155,1
"1573",1,1,1393,5,6,1,"1f7ae64",156,1
"1583",0,1,681,6,29,1,"1f7ae64",157,1
"1593",0,1,1415,29,3,1,"1f7ae64",158,1
"1603",1,1,577,3,17,1,"1f7ae64",159,1
"1615",0,1,252,17,24,1,"1f7ae64",160,1
"1623",0,1,1505,24,14,1,"1f7ae64",161,1
"1633",1,1,809,14,12,1,"1f7ae64",162,1
"1643",1,1,318,12,16,1,"1f7ae64",163,1
"1653",0,1,948,16,35,1,"1f7ae64",164,1
"1663",0,1,495,35,4,1,"1f7ae64",165,1
"1673",1,0,219,4,31,1,"1f7ae64",166,1
"1683",0,1,290,31,8,1,"1f7ae64",167,1
"1693",0,1,878,8,25,1,"1f7ae64",168,1
"1703",1,1,1534,25,23,1,"1f7ae64",169,1
"1715",0,1,2251,23,13,1,"1f7ae64",170,1
"1723",0,1,2200,13,32,1,"1f7ae64",171,1
"1733",1,1,1227,32,27,1,"1f7ae64",172,1
"1743",1,1,476,27,26,1,"1f7ae64",173,1
"1753",1,0,1828,26,1,1,"1f7ae64",174,1
"1763",1,0,373,1,33,1,"1f7ae64",175,1
"1773",1,1,292,33,30,1,"1f7ae64",176,1
"1783",1,1,223,30,22,1,"1f7ae64",177,1
"1793",1,1,313,22,36,1,"1f7ae64",178,1
"1803",0,1,1046,36,2,1,"1f7ae64",179,1
"1815",1,1,606,2,10,1,"1f7ae64",180,1
"1823",0,1,909,10,22,1,"1f7ae64",181,1
"1833",0,1,416,22,10,1,"1f7ae64",182,1
"1843",0,1,1216,10,28,1,"1f7ae64",183,1
"1853",1,1,1021,28,26,1,"1f7ae64",184,1
"1863",1,1,347,26,24,1,"1f7ae64",185,1
"1873",0,1,818,24,3,1,"1f7ae64",186,1
"1883",1,0,2023,3,30,1,"1f7ae64",187,1
"1893",0,1,985,30,1,1,"1f7ae64",188,1
"1903",1,1,495,1,13,1,"1f7ae64",189,1
"1915",0,1,495,13,29,1,"1f7ae64",190,1
"1923",0,1,505,29,2,1,"1f7ae64",191,1
"1933",0,1,440,2,33,1,"1f7ae64",192,1
"1943",0,1,496,33,14,1,"1f7ae64",193,1
"1953",0,1,508,14,34,1,"1f7ae64",194,1
"1963",0,1,1287,34,5,1,"1f7ae64",195,1
"1973",1,1,701,5,8,1,"1f7ae64",196,1
"1983",1,1,516,8,4,1,"1f7ae64",197,1
"1993",0,0,10,4,15,1,"1f7ae64",198,1
"2003",1,1,370,15,17,1,"1f7ae64",199,1
"2015",1,1,2045,17,16,1,"1f7ae64",200,1
"2023",0,0,2390,16,7,1,"1f7ae64",201,1
"2033",1,1,493,7,18,1,"1f7ae64",202,1
"2043",1,0,59,18,35,1,"1f7ae64",203,1
"2053",0,0,1473,35,32,1,"1f7ae64",204,1
"2063",0,1,732,32,6,1,"1f7ae64",205,1
"2073",1,0,129,6,31,1,"1f7ae64",206,1
"2083",1,1,390,31,20,1,"1f7ae64",207,1
"2093",-1,-1,0,20,9,1,"1f7ae64",208,1
"2103",-1,-1,0,9,21,1,"1f7ae64",209,1
"2115",1,0,2241,21,11,1,"1f7ae64",210,1
"2123",0,1,232,11,19,1,"1f7ae64",211,1
"2133",0,0,120,19,23,1,"1f7ae64",212,1
"2143",1,1,295,23,25,1,"1f7ae64",213,1
"2153",1,1,372,25,27,1,"1f7ae64",214,1
"2163",1,1,282,27,36,1,"1f7ae64",215,1
"2173",1,0,350,36,12,1,"1f7ae64",216,1
"2183",0,0,225,12,17,1,"1f7ae64",217,1
"2193",1,1,179,17,5,1,"1f7ae64",218,1
"2203",0,1,645,5,21,1,"1f7ae64",219,1
"2215",1,1,1071,21,33,1,"1f7ae64",220,1
"2223",1,1,260,33,23,1,"1f7ae64",221,1
"2233",1,1,440,23,34,1,"1f7ae64",222,1
"2243",0,1,1053,34,14,1,"1f7ae64",223,1
"2253",1,1,658,14,7,1,"1f7ae64",224,1
"2263",-1,0,1999,7,31,1,"1f7ae64",225,1
"2273",0,1,385,31,1,1,"1f7ae64",226,1
"2283",1,0,626,1,25,1,"1f7ae64",227,1
"2293",1,1,1048,25,27,1,"1f7ae64",228,1
"2303",1,0,265,27,4,1,"1f7ae64",229,1
"2315",1,1,284,4,16,1,"1f7ae64",230,1
"2323",1,1,293,16,18,1,"1f7ae64",231,1
"2333",0,0,220,18,15,1,"1f7ae64",232,1
"2343",0,1,285,15,32,1,"1f7ae64",233,1
"2353",1,0,279,32,13,1,"1f7ae64",234,1
"2363",0,0,430,13,8,1,"1f7ae64",235,1
"2373",1,1,961,8,10,1,"1f7ae64",236,1
"2383",1,0,516,10,22,1,"1f7ae64",237,1
"2393",0,0,81,22,20,1,"1f7ae64",238,1
"2403",1,1,266,20,35,1,"1f7ae64",239,1
"2415",0,1,1448,35,9,1,"1f7ae64",240,1
"2423",0,0,229,9,11,1,"1f7ae64",241,1
"2433",-1,-1,0,11,28,1,"1f7ae64",242,1
"2443",1,1,2367,28,19,1,"1f7ae64",243,1
"2453",1,0,283,19,12,1,"1f7ae64",244,1
"2463",1,0,300,12,29,1,"1f7ae64",245,1
"2473",0,0,661,29,30,1,"1f7ae64",246,1
"2483",1,0,682,30,2,1,"1f7ae64",247,1
"2493",0,0,531,2,6,1,"1f7ae64",248,1
"2503",1,0,774,6,26,1,"1f7ae64",249,1
"2515",1,0,554,26,3,1,"1f7ae64",250,1
"2523",1,0,639,3,36,1,"1f7ae64",251,1
"2533",0,0,469,36,24,1,"1f7ae64",252,1
"2543",0,1,510,24,11,1,"1f7ae64",253,1
"2553",1,0,731,11,35,1,"1f7ae64",254,1
"2563",0,0,424,35,34,1,"1f7ae64",255,1
"2573",0,0,438,34,25,1,"1f7ae64",256,1
"2583",1,1,2321,25,27,1,"1f7ae64",257,1
"2593",1,0,320,27,5,1,"1f7ae64",258,1
"2603",1,0,264,5,24,1,"1f7ae64",259,1
"2615",1,0,346,24,4,1,"1f7ae64",260,1
"2623",0,1,807,4,19,1,"1f7ae64",261,1
"2633",1,0,780,19,17,1,"1f7ae64",262,1
"2643",1,1,982,17,13,1,"1f7ae64",263,1
"2653",1,0,1029,13,20,1,"1f7ae64",264,1
"2663",1,1,1250,20,30,1,"1f7ae64",265,1
"2673",1,1,294,30,32,1,"1f7ae64",266,1
"2683",1,1,630,32,23,1,"1f7ae64",267,1
"2693",1,1,748,23,21,1,"1f7ae64",268,1
"2703",1,1,738,21,29,1,"1f7ae64",269,1
"2715",1,1,398,29,28,1,"1f7ae64",270,1
"2723",0,1,934,28,12,1,"1f7ae64",271,1
"2733",1,1,1115,12,18,1,"1f7ae64",272,1
"2743",1,1,789,18,1,1,"1f7ae64",273,1
"2753",0,1,779,1,33,1,"1f7ae64",274,1
"2763",0,1,816,33,10,1,"1f7ae64",275,1
"2773",1,1,571,10,9,1,"1f7ae64",276,1
"2783",1,1,491,9,6,1,"1f7ae64",277,1
"2793",1,1,1076,6,15,1,"1f7ae64",278,1
"2803",1,1,279,15,3,1,"1f7ae64",279,1
"2815",0,1,1023,3,36,1,"1f7ae64",280,1
"2823",1,1,782,36,22,1,"1f7ae64",281,1
"2833",0,1,1218,22,2,1,"1f7ae64",282,1
"2843",1,1,836,2,16,1,"1f7ae64",283,1
"2853",1,1,390,16,14,1,"1f7ae64",284,1
"2863",1,1,596,14,7,1,"1f7ae64",285,1
"2873",0,1,786,7,31,1,"1f7ae64",286,1
"2883",1,1,264,31,26,1,"1f7ae64",287,1
"2893",0,1,967,26,8,1,"1f7ae64",288,1
"296",-1,-1,0,0,11,1,"1c72af0",1,1
"316",1,1,1003,11,12,1,"1c72af0",2,1
"416",0,0,571,12,1,1,"1c72af0",3,1
"516",1,0,1281,1,19,1,"1c72af0",4,1
"616",0,1,819,19,5,1,"1c72af0",5,1
"716",1,0,1058,5,23,1,"1c72af0",6,1
"816",0,1,826,23,6,1,"1c72af0",7,1
"916",0,0,1185,6,16,1,"1c72af0",8,1
"1016",1,0,842,16,27,1,"1c72af0",9,1
"1116",1,0,1683,27,7,1,"1c72af0",10,1
"1216",0,1,666,7,22,1,"1c72af0",11,1
"1316",0,0,930,22,26,1,"1c72af0",12,1
"1416",0,0,1570,26,36,1,"1c72af0",13,1
"1516",0,1,1163,36,2,1,"1c72af0",14,1
"1616",0,0,1241,2,10,1,"1c72af0",15,1
"1716",0,1,866,10,25,1,"1c72af0",16,1
"1816",0,1,1396,25,18,1,"1c72af0",17,1
"1916",0,0,579,18,9,1,"1c72af0",18,1
"2016",1,1,1641,9,15,1,"1c72af0",19,1
"2116",1,0,1034,15,29,1,"1c72af0",20,1
"2216",1,0,1530,29,14,1,"1c72af0",21,1
"2316",0,1,859,14,24,1,"1c72af0",22,1
"2416",0,0,849,24,28,1,"1c72af0",23,1
"2516",0,0,1082,28,30,1,"1c72af0",24,1
"2616",0,1,954,30,4,1,"1c72af0",25,1
"2716",0,0,793,4,3,1,"1c72af0",26,1
"2816",0,1,1841,3,34,1,"1c72af0",27,1
"297",0,0,995,34,31,1,"1c72af0",28,1
"304",1,0,1691,31,13,1,"1c72af0",29,1
"317",0,1,899,13,21,1,"1c72af0",30,1
"324",0,1,2265,21,8,1,"1c72af0",31,1
"334",1,0,1475,8,32,1,"1c72af0",32,1
"344",0,0,756,32,35,1,"1c72af0",33,1
"354",0,1,1786,35,17,1,"1c72af0",34,1
"364",1,0,1659,17,33,1,"1c72af0",35,1
"374",0,0,884,33,20,1,"1c72af0",36,1
"384",1,0,1586,20,11,1,"1c72af0",37,1
"394",1,1,979,11,12,1,"1c72af0",38,1
"404",0,0,1309,12,1,1,"1c72af0",39,1
"417",0,1,724,1,19,1,"1c72af0",40,1
"424",0,1,1299,19,5,1,"1c72af0",41,1
"434",1,0,1212,5,23,1,"1c72af0",42,1
"444",0,1,1044,23,6,1,"1c72af0",43,1
"454",1,1,1698,6,16,1,"1c72af0",44,1
"464",0,1,1116,16,27,1,"1c72af0",45,1
"474",1,0,1589,27,7,1,"1c72af0",46,1
"484",0,1,900,7,22,1,"1c72af0",47,1
"494",0,0,1044,22,26,1,"1c72af0",48,1
"504",1,1,1324,26,36,1,"1c72af0",49,1
"517",0,1,1086,36,2,1,"1c72af0",50,1
"524",0,0,933,2,10,1,"1c72af0",51,1
"534",0,1,2500,10,25,1,"1c72af0",52,1
"544",0,1,1784,25,18,1,"1c72af0",53,1
"554",0,0,1535,18,9,1,"1c72af0",54,1
"564",0,0,1473,9,15,1,"1c72af0",55,1
"574",1,0,1008,15,29,1,"1c72af0",56,1
"584",0,1,1137,29,14,1,"1c72af0",57,1
"594",0,1,1202,14,24,1,"1c72af0",58,1
"604",0,0,1147,24,28,1,"1c72af0",59,1
"617",0,0,1355,28,30,1,"1c72af0",60,1
"624",0,1,994,30,4,1,"1c72af0",61,1
"634",0,0,1120,4,3,1,"1c72af0",62,1
"644",1,0,1331,3,34,1,"1c72af0",63,1
"654",0,0,836,34,31,1,"1c72af0",64,1
"664",0,1,619,31,13,1,"1c72af0",65,1
"674",0,1,892,13,21,1,"1c72af0",66,1
"684",0,1,2068,21,8,1,"1c72af0",67,1
"694",1,0,1069,8,32,1,"1c72af0",68,1
"704",0,0,1684,32,35,1,"1c72af0",69,1
"717",1,0,1341,35,17,1,"1c72af0",70,1
"724",1,0,1999,17,33,1,"1c72af0",71,1
"734",0,0,646,33,20,1,"1c72af0",72,1
"744",0,1,744,20,14,1,"1c72af0",73,1
"754",0,1,888,14,24,1,"1c72af0",74,1
"764",-1,-1,0,24,9,1,"1c72af0",75,1
"774",0,1,1145,9,21,1,"1c72af0",76,1
"784",1,1,1106,21,23,1,"1c72af0",77,1
"794",0,1,978,23,10,1,"1c72af0",78,1
"804",1,1,1275,10,16,1,"1c72af0",79,1
"817",0,0,1316,16,17,1,"1c72af0",80,1
"824",0,0,988,17,11,1,"1c72af0",81,1
"834",1,1,1211,11,5,1,"1c72af0",82,1
"844",1,1,1196,5,13,1,"1c72af0",83,1
"854",1,1,846,13,7,1,"1c72af0",84,1
"864",1,1,1260,7,4,1,"1c72af0",85,1
"874",0,0,1519,4,12,1,"1c72af0",86,1
"884",1,0,1350,12,34,1,"1c72af0",87,1
"894",1,1,1016,34,26,1,"1c72af0",88,1
"904",0,0,1104,26,27,1,"1c72af0",89,1
"917",0,1,2241,27,18,1,"1c72af0",90,1
"924",1,0,1481,18,35,1,"1c72af0",91,1
"934",1,1,1433,35,19,1,"1c72af0",92,1
"944",0,0,1472,19,28,1,"1c72af0",93,1
"954",0,0,1459,28,25,1,"1c72af0",94,1
"964",0,0,745,25,29,1,"1c72af0",95,1
"974",1,0,1161,29,3,1,"1c72af0",96,1
"984",0,1,1396,3,22,1,"1c72af0",97,1
"994",1,1,1301,22,20,1,"1c72af0",98,1
"1004",1,1,908,20,32,1,"1c72af0",99,1
"1017",1,0,957,32,15,1,"1c72af0",100,1
"1024",1,1,1709,15,2,1,"1c72af0",101,1
"1034",1,0,772,2,30,1,"1c72af0",102,1
"1044",1,1,1382,30,31,1,"1c72af0",103,1
"1054",1,1,1863,31,36,1,"1c72af0",104,1
"1064",1,1,1502,36,33,1,"1c72af0",105,1
"1074",1,0,1134,33,6,1,"1c72af0",106,1
"1084",1,1,1006,6,1,1,"1c72af0",107,1
"1094",1,1,744,1,8,1,"1c72af0",108,1
"1104",1,0,1631,8,35,1,"1c72af0",109,1
"1117",1,0,1112,35,10,1,"1c72af0",110,1
"1124",0,1,1607,10,32,1,"1c72af0",111,1
"1134",1,1,1073,32,30,1,"1c72af0",112,1
"1144",0,0,1049,30,36,1,"1c72af0",113,1
"1154",1,0,1459,36,4,1,"1c72af0",114,1
"1164",1,1,1163,4,12,1,"1c72af0",115,1
"1174",1,1,731,12,8,1,"1c72af0",116,1
"1184",1,1,1147,8,17,1,"1c72af0",117,1
"1194",1,1,916,17,13,1,"1c72af0",118,1
"1204",1,1,637,13,9,1,"1c72af0",119,1
"1217",1,1,1285,9,18,1,"1c72af0",120,1
"1224",0,1,1430,18,27,1,"1c72af0",121,1
"1234",1,1,1525,27,21,1,"1c72af0",122,1
"1244",1,1,1333,21,31,1,"1c72af0",123,1
"1254",1,0,1367,31,7,1,"1c72af0",124,1
"1264",0,0,1158,7,5,1,"1c72af0",125,1
"1274",0,0,1175,5,16,1,"1c72af0",126,1
"1284",0,0,1605,16,11,1,"1c72af0",127,1
"1294",1,0,976,11,20,1,"1c72af0",128,1
"1304",0,0,328,20,34,1,"1c72af0",129,1
"1317",1,1,1192,34,26,1,"1c72af0",130,1
"1324",1,1,1072,26,19,1,"1c72af0",131,1
"1334",1,0,1241,19,2,1,"1c72af0",132,1
"1344",1,1,1488,2,15,1,"1c72af0",133,1
"1354",0,1,1122,15,22,1,"1c72af0",134,1
"1364",0,0,1058,22,33,1,"1c72af0",135,1
"1374",1,0,907,33,1,1,"1c72af0",136,1
"1384",1,1,1188,1,14,1,"1c72af0",137,1
"1394",1,1,1189,14,6,1,"1c72af0",138,1
"1404",0,1,1068,6,24,1,"1c72af0",139,1
"1417",1,1,1517,24,23,1,"1c72af0",140,1
"1424",1,1,1125,23,28,1,"1c72af0",141,1
"1434",1,1,1795,28,25,1,"1c72af0",142,1
"1444",0,0,1076,25,29,1,"1c72af0",143,1
"1454",1,0,917,29,3,1,"1c72af0",144,1
"1464",1,1,725,3,7,1,"1c72af0",145,1
"1474",1,1,925,7,5,1,"1c72af0",146,1
"1484",1,1,814,5,12,1,"1c72af0",147,1
"1494",0,1,1149,12,22,1,"1c72af0",148,1
"1504",1,1,967,22,27,1,"1c72af0",149,1
"1517",1,1,1110,27,33,1,"1c72af0",150,1
"1524",1,1,734,33,35,1,"1c72af0",151,1
"1534",1,0,1246,35,8,1,"1c72af0",152,1
"1544",1,0,1167,8,23,1,"1c72af0",153,1
"1554",1,1,1198,23,19,1,"1c72af0",154,1
"1564",1,0,1983,19,11,1,"1c72af0",155,1
"1574",0,0,1191,11,2,1,"1c72af0",156,1
"1584",1,1,1574,2,6,1,"1c72af0",157,1
"1594",1,0,1792,6,25,1,"1c72af0",158,1
"1604",0,1,888,25,14,1,"1c72af0",159,1
"1617",1,1,1161,14,16,1,"1c72af0",160,1
"1624",0,1,1385,16,20,1,"1c72af0",161,1
"1634",1,1,1394,20,21,1,"1c72af0",162,1
"1644",1,0,1609,21,3,1,"1c72af0",163,1
"1654",0,1,1697,3,29,1,"1c72af0",164,1
"1664",1,1,1113,29,24,1,"1c72af0",165,1
"1674",1,0,1131,24,1,1,"1c72af0",166,1
"1684",1,0,899,1,34,1,"1c72af0",167,1
"1694",1,0,946,34,15,1,"1c72af0",168,1
"1704",0,0,315,15,13,1,"1c72af0",169,1
"1717",0,1,693,13,30,1,"1c72af0",170,1
"1724",1,0,957,30,10,1,"1c72af0",171,1
"1734",0,0,397,10,9,1,"1c72af0",172,1
"1744",1,1,1142,9,18,1,"1c72af0",173,1
"1754",1,0,1364,18,32,1,"1c72af0",174,1
"1764",0,0,1397,32,26,1,"1c72af0",175,1
"1774",0,1,455,26,17,1,"1c72af0",176,1
"1784",1,0,1374,17,31,1,"1c72af0",177,1
"1794",1,1,1062,31,28,1,"1c72af0",178,1
"1804",1,1,798,28,36,1,"1c72af0",179,1
"1817",1,0,1014,36,4,1,"1c72af0",180,1
"1824",1,0,712,4,33,1,"1c72af0",181,1
"1834",0,0,896,33,34,1,"1c72af0",182,1
"1844",0,1,1128,34,2,1,"1c72af0",183,1
"1854",1,1,864,2,9,1,"1c72af0",184,1
"1864",1,1,1082,9,17,1,"1c72af0",185,1
"1874",0,1,1442,17,29,1,"1c72af0",186,1
"1884",1,0,1067,29,3,1,"1c72af0",187,1
"1894",0,1,995,3,28,1,"1c72af0",188,1
"1904",1,1,1211,28,25,1,"1c72af0",189,1
"1917",1,0,826,25,16,1,"1c72af0",190,1
"1924",0,0,705,16,15,1,"1c72af0",191,1
"1934",0,0,1339,15,1,1,"1c72af0",192,1
"1944",0,0,316,1,13,1,"1c72af0",193,1
"1954",1,0,315,13,36,1,"1c72af0",194,1
"1964",1,1,340,36,30,1,"1c72af0",195,1
"1974",1,0,1301,30,11,1,"1c72af0",196,1
"1984",1,1,1044,11,10,1,"1c72af0",197,1
"1994",1,0,2172,10,20,1,"1c72af0",198,1
"2004",1,1,1116,20,22,1,"1c72af0",199,1
"2017",0,0,884,22,27,1,"1c72af0",200,1
"2024",0,1,1124,27,4,1,"1c72af0",201,1
"2034",1,0,1613,4,32,1,"1c72af0",202,1
"2044",0,0,1245,32,24,1,"1c72af0",203,1
"2054",0,1,556,24,12,1,"1c72af0",204,1
"2064",1,0,1348,12,35,1,"1c72af0",205,1
"2074",0,0,325,35,21,1,"1c72af0",206,1
"2084",0,1,308,21,8,1,"1c72af0",207,1
"2094",1,0,955,8,31,1,"1c72af0",208,1
"2104",1,0,316,31,5,1,"1c72af0",209,1
"2117",0,1,901,5,19,1,"1c72af0",210,1
"2124",1,1,1187,19,23,1,"1c72af0",211,1
"2134",1,0,1388,23,7,1,"1c72af0",212,1
"2144",0,0,653,7,18,1,"1c72af0",213,1
"2154",1,1,1324,18,6,1,"1c72af0",214,1
"2164",1,0,1445,6,26,1,"1c72af0",215,1
"2174",1,0,1052,26,14,1,"1c72af0",216,1
"2184",1,1,443,14,6,1,"1c72af0",217,1
"2194",1,1,964,6,8,1,"1c72af0",218,1
"2204",0,0,1218,8,2,1,"1c72af0",219,1
"2217",1,1,997,2,5,1,"1c72af0",220,1
"2224",1,0,788,5,24,1,"1c72af0",221,1
"2234",0,1,324,24,14,1,"1c72af0",222,1
"2244",1,1,1395,14,16,1,"1c72af0",223,1
"2254",1,1,827,16,13,1,"1c72af0",224,1
"2264",1,0,692,13,32,1,"1c72af0",225,1
"2274",1,0,1341,32,12,1,"1c72af0",226,1
"2284",1,0,637,12,20,1,"1c72af0",227,1
"2294",1,1,741,20,26,1,"1c72af0",228,1
"2304",0,0,1061,26,34,1,"1c72af0",229,1
"2317",1,1,948,34,36,1,"1c72af0",230,1
"2324",0,0,1708,36,33,1,"1c72af0",231,1
"2334",0,0,997,33,28,1,"1c72af0",232,1
"2344",0,0,382,28,27,1,"1c72af0",233,1
"2354",0,1,278,27,7,1,"1c72af0",234,1
"2364",1,1,1211,7,11,1,"1c72af0",235,1
"2374",1,0,1061,11,19,1,"1c72af0",236,1
"2384",0,0,381,19,25,1,"1c72af0",237,1
"2394",0,1,1021,25,9,1,"1c72af0",238,1
"2404",1,0,1240,9,30,1,"1c72af0",239,1
"2417",0,1,352,30,4,1,"1c72af0",240,1
"2424",0,0,311,4,15,1,"1c72af0",241,1
"2434",0,0,295,15,1,1,"1c72af0",242,1
"2444",0,0,656,1,10,1,"1c72af0",243,1
"2454",0,1,455,10,23,1,"1c72af0",244,1
"2464",0,0,375,23,35,1,"1c72af0",245,1
"2474",0,0,351,35,22,1,"1c72af0",246,1
"2484",1,1,736,22,31,1,"1c72af0",247,1
"2494",1,0,797,31,3,1,"1c72af0",248,1
"2504",1,1,700,3,17,1,"1c72af0",249,1
"2517",1,0,877,17,29,1,"1c72af0",250,1
"2524",0,0,301,29,21,1,"1c72af0",251,1
"2534",0,1,588,21,18,1,"1c72af0",252,1
"2544",0,1,382,18,30,1,"1c72af0",253,1
"2554",1,0,837,30,10,1,"1c72af0",254,1
"2564",1,0,733,10,31,1,"1c72af0",255,1
"2574",0,1,1275,31,3,1,"1c72af0",256,1
"2584",1,1,1190,3,15,1,"1c72af0",257,1
"2594",1,0,1013,15,24,1,"1c72af0",258,1
"2604",1,0,806,24,1,1,"1c72af0",259,1
"2617",0,1,318,1,21,1,"1c72af0",260,1
"2624",1,0,598,21,7,1,"1c72af0",261,1
"2634",0,1,527,7,36,1,"1c72af0",262,1
"2644",0,0,983,36,34,1,"1c72af0",263,1
"2654",1,0,1015,34,16,1,"1c72af0",264,1
"2664",1,1,1183,16,12,1,"1c72af0",265,1
"2674",0,1,1823,12,19,1,"1c72af0",266,1
"2684",1,1,912,19,26,1,"1c72af0",267,1
"2694",1,1,1304,26,25,1,"1c72af0",268,1
"2704",1,0,1717,25,11,1,"1c72af0",269,1
"2717",1,1,871,11,13,1,"1c72af0",270,1
"2724",1,1,1391,13,9,1,"1c72af0",271,1
"2734",0,0,862,9,6,1,"1c72af0",272,1
"2744",0,0,1775,6,14,1,"1c72af0",273,1
"2754",0,1,741,14,20,1,"1c72af0",274,1
"2764",0,0,319,20,22,1,"1c72af0",275,1
"2774",0,1,526,22,8,1,"1c72af0",276,1
"2784",1,1,544,8,2,1,"1c72af0",277,1
"2794",1,1,910,2,5,1,"1c72af0",278,1
"2804",1,1,2089,5,17,1,"1c72af0",279,1
"2817",1,1,1145,17,4,1,"1c72af0",280,1
"2824",1,0,1568,4,27,1,"1c72af0",281,1
"2834",1,1,928,27,33,1,"1c72af0",282,1
"2844",0,0,842,33,23,1,"1c72af0",283,1
"2854",0,0,592,23,29,1,"1c72af0",284,1
"2864",1,1,312,29,35,1,"1c72af0",285,1
"2874",1,1,1008,35,28,1,"1c72af0",286,1
"2884",1,1,1225,28,32,1,"1c72af0",287,1
"2894",1,0,1121,32,18,1,"1c72af0",288,1
"298",-1,-1,0,0,4,1,"1165ff9",1,1
"318",-1,0,2243,4,3,1,"1165ff9",2,1
"418",-1,0,1326,3,5,1,"1165ff9",3,1
"518",-1,-1,0,5,36,1,"1165ff9",4,1
"618",-1,0,1432,36,21,1,"1165ff9",5,1
"718",-1,0,1906,21,30,1,"1165ff9",6,1
"818",-1,-1,0,30,31,1,"1165ff9",7,1
"918",-1,0,1625,31,33,1,"1165ff9",8,1
"1018",-1,0,635,33,26,1,"1165ff9",9,1
"1118",-1,-1,0,26,24,1,"1165ff9",10,1
"1218",-1,0,1241,24,27,1,"1165ff9",11,1
"1318",-1,0,872,27,14,1,"1165ff9",12,1
"1418",-1,0,906,14,29,1,"1165ff9",13,1
"1518",-1,0,266,29,15,1,"1165ff9",14,1
"1618",-1,-1,0,15,11,1,"1165ff9",15,1
"1718",-1,0,512,11,22,1,"1165ff9",16,1
"1818",-1,0,1984,22,23,1,"1165ff9",17,1
"1918",-1,-1,0,23,35,1,"1165ff9",18,1
"2018",1,1,383,35,19,1,"1165ff9",19,1
"2118",0,1,1625,19,17,1,"1165ff9",20,1
"2218",-1,-1,0,17,6,1,"1165ff9",21,1
"2318",1,1,457,6,1,1,"1165ff9",22,1
"2418",0,1,899,1,34,1,"1165ff9",23,1
"2518",-1,-1,0,34,13,1,"1165ff9",24,1
"2618",1,1,1782,13,18,1,"1165ff9",25,1
"2718",0,1,2027,18,20,1,"1165ff9",26,1
"2818",1,1,1345,20,32,1,"1165ff9",27,1
"299",0,1,1167,32,16,1,"1165ff9",28,1
"305",1,1,2163,16,10,1,"1165ff9",29,1
"319",0,1,595,10,28,1,"1165ff9",30,1
"325",0,1,1397,28,8,1,"1165ff9",31,1
"335",1,1,1542,8,12,1,"1165ff9",32,1
"345",-1,-1,0,12,7,1,"1165ff9",33,1
"355",0,1,1084,7,25,1,"1165ff9",34,1
"365",0,1,1750,25,9,1,"1165ff9",35,1
"375",1,1,1065,9,2,1,"1165ff9",36,1
"385",1,1,2410,2,4,1,"1165ff9",37,1
"395",-1,-1,0,4,3,1,"1165ff9",38,1
"405",1,1,2294,3,5,1,"1165ff9",39,1
"419",0,1,629,5,36,1,"1165ff9",40,1
"425",1,1,2132,36,21,1,"1165ff9",41,1
"435",1,1,1520,21,30,1,"1165ff9",42,1
"445",1,1,1989,30,31,1,"1165ff9",43,1
"455",1,1,1469,31,33,1,"1165ff9",44,1
"465",1,1,1152,33,26,1,"1165ff9",45,1
"475",1,1,1064,26,24,1,"1165ff9",46,1
"485",1,1,927,24,27,1,"1165ff9",47,1
"495",0,1,1536,27,14,1,"1165ff9",48,1
"505",1,0,1241,14,29,1,"1165ff9",49,1
"519",0,1,1139,29,15,1,"1165ff9",50,1
"525",0,0,1434,15,11,1,"1165ff9",51,1
"535",1,0,1361,11,22,1,"1165ff9",52,1
"545",1,1,1796,22,23,1,"1165ff9",53,1
"555",1,1,1700,23,35,1,"1165ff9",54,1
"565",1,1,1612,35,19,1,"1165ff9",55,1
"575",0,1,966,19,17,1,"1165ff9",56,1
"585",1,1,1317,17,6,1,"1165ff9",57,1
"595",1,1,2273,6,1,1,"1165ff9",58,1
"605",1,0,1149,1,34,1,"1165ff9",59,1
"619",1,0,1654,34,13,1,"1165ff9",60,1
"625",1,1,1857,13,18,1,"1165ff9",61,1
"635",1,0,2372,18,20,1,"1165ff9",62,1
"645",1,1,1007,20,32,1,"1165ff9",63,1
"655",0,1,940,32,16,1,"1165ff9",64,1
"665",1,1,1456,16,10,1,"1165ff9",65,1
"675",0,1,2221,10,28,1,"1165ff9",66,1
"685",0,1,828,28,8,1,"1165ff9",67,1
"695",1,1,2197,8,12,1,"1165ff9",68,1
"705",-1,-1,0,12,7,1,"1165ff9",69,1
"719",1,0,1256,7,25,1,"1165ff9",70,1
"725",1,0,126,25,9,1,"1165ff9",71,1
"735",1,1,2214,9,2,1,"1165ff9",72,1
"745",1,1,2025,2,17,1,"1165ff9",73,1
"755",0,1,2145,17,19,1,"1165ff9",74,1
"765",1,1,907,19,28,1,"1165ff9",75,1
"775",0,1,1796,28,18,1,"1165ff9",76,1
"785",0,1,2075,18,25,1,"1165ff9",77,1
"795",-1,-1,0,25,16,1,"1165ff9",78,1
"805",1,0,263,16,30,1,"1165ff9",79,1
"819",1,1,2098,30,36,1,"1165ff9",80,1
"825",-1,-1,0,36,14,1,"1165ff9",81,1
"835",0,1,855,14,32,1,"1165ff9",82,1
"845",0,1,993,32,3,1,"1165ff9",83,1
"855",1,0,2320,3,21,1,"1165ff9",84,1
"865",0,0,1829,21,26,1,"1165ff9",85,1
"875",-1,-1,0,26,20,1,"1165ff9",86,1
"885",0,1,687,20,2,1,"1165ff9",87,1
"895",1,1,1946,2,11,1,"1165ff9",88,1
"905",1,1,453,11,5,1,"1165ff9",89,1
"919",1,1,1219,5,9,1,"1165ff9",90,1
"925",0,1,1440,9,35,1,"1165ff9",91,1
"935",1,0,1355,35,10,1,"1165ff9",92,1
"945",0,0,1087,10,7,1,"1165ff9",93,1
"955",1,0,552,7,23,1,"1165ff9",94,1
"965",1,1,1356,23,22,1,"1165ff9",95,1
"975",0,1,475,22,4,1,"1165ff9",96,1
"985",0,1,453,4,24,1,"1165ff9",97,1
"995",0,0,564,24,31,1,"1165ff9",98,1
"1005",1,1,467,31,29,1,"1165ff9",99,1
"1019",1,1,520,29,33,1,"1165ff9",100,1
"1025",0,1,1792,33,8,1,"1165ff9",101,1
"1035",1,1,1163,8,1,1,"1165ff9",102,1
"1045",0,1,1217,1,34,1,"1165ff9",103,1
"1055",1,0,1246,34,13,1,"1165ff9",104,1
"1065",0,0,828,13,6,1,"1165ff9",105,1
"1075",1,1,1352,6,15,1,"1165ff9",106,1
"1085",0,0,1212,15,12,1,"1165ff9",107,1
"1095",0,1,1532,12,27,1,"1165ff9",108,1
"1105",1,1,1787,27,23,1,"1165ff9",109,1
"1119",0,1,1633,23,17,1,"1165ff9",110,1
"1125",1,0,1005,17,22,1,"1165ff9",111,1
"1135",1,1,724,22,32,1,"1165ff9",112,1
"1145",-1,-1,0,32,27,1,"1165ff9",113,1
"1155",0,0,1594,27,36,1,"1165ff9",114,1
"1165",1,0,2049,36,8,1,"1165ff9",115,1
"1175",0,0,1992,8,14,1,"1165ff9",116,1
"1185",1,1,2141,14,4,1,"1165ff9",117,1
"1195",1,1,1218,4,15,1,"1165ff9",118,1
"1205",1,1,2245,15,10,1,"1165ff9",119,1
"1219",-1,-1,0,10,28,1,"1165ff9",120,1
"1225",0,0,1258,28,21,1,"1165ff9",121,1
"1235",1,0,2369,21,12,1,"1165ff9",122,1
"1245",0,0,2428,12,6,1,"1165ff9",123,1
"1255",1,1,1984,6,11,1,"1165ff9",124,1
"1265",1,1,562,11,9,1,"1165ff9",125,1
"1275",0,0,1341,9,13,1,"1165ff9",126,1
"1285",1,0,392,13,31,1,"1165ff9",127,1
"1295",1,1,1050,31,34,1,"1165ff9",128,1
"1305",0,1,467,34,3,1,"1165ff9",129,1
"1319",-1,-1,0,3,19,1,"1165ff9",130,1
"1325",1,1,956,19,29,1,"1165ff9",131,1
"1335",0,1,1996,29,5,1,"1165ff9",132,1
"1345",0,1,1095,5,20,1,"1165ff9",133,1
"1355",0,0,471,20,30,1,"1165ff9",134,1
"1365",1,1,2,30,33,1,"1165ff9",135,1
"1375",-1,-1,0,33,16,1,"1165ff9",136,1
"1385",-1,-1,0,16,26,1,"1165ff9",137,1
"1395",-1,-1,0,26,2,1,"1165ff9",138,1
"1405",0,1,434,2,25,1,"1165ff9",139,1
"1419",0,1,1640,25,1,1,"1165ff9",140,1
"1425",1,1,966,1,7,1,"1165ff9",141,1
"1435",1,1,681,7,18,1,"1165ff9",142,1
"1445",0,1,1074,18,24,1,"1165ff9",143,1
"1455",1,1,1210,24,35,1,"1165ff9",144,1
"1465",1,1,1794,35,33,1,"1165ff9",145,1
"1475",1,0,779,33,9,1,"1165ff9",146,1
"1485",1,1,1689,9,16,1,"1165ff9",147,1
"1495",1,1,1899,16,5,1,"1165ff9",148,1
"1505",0,0,1556,5,7,1,"1165ff9",149,1
"1519",-1,-1,0,7,8,1,"1165ff9",150,1
"1525",1,0,2439,8,19,1,"1165ff9",151,1
"1535",-1,-1,0,19,11,1,"1165ff9",152,1
"1545",0,0,17,11,15,1,"1165ff9",153,1
"1555",1,0,867,15,27,1,"1165ff9",154,1
"1565",0,1,649,27,13,1,"1165ff9",155,1
"1575",-1,-1,0,13,3,1,"1165ff9",156,1
"1585",-1,-1,0,3,17,1,"1165ff9",157,1
"1595",1,1,258,17,14,1,"1165ff9",158,1
"1605",0,0,1106,14,2,1,"1165ff9",159,1
"1619",1,1,1047,2,6,1,"1165ff9",160,1
"1625",-1,-1,0,6,31,1,"1165ff9",161,1
"1635",0,0,458,31,36,1,"1165ff9",162,1
"1645",1,1,640,36,21,1,"1165ff9",163,1
"1655",0,0,118,21,24,1,"1165ff9",164,1
"1665",1,0,531,24,4,1,"1165ff9",165,1
"1675",1,0,1549,4,26,1,"1165ff9",166,1
"1685",1,1,1847,26,23,1,"1165ff9",167,1
"1695",0,0,1442,23,34,1,"1165ff9",168,1
"1705",-1,-1,0,34,22,1,"1165ff9",169,1
"1719",0,0,2092,22,29,1,"1165ff9",170,1
"1725",1,0,1141,29,12,1,"1165ff9",171,1
"1735",1,0,687,12,28,1,"1165ff9",172,1
"1745",1,1,1015,28,35,1,"1165ff9",173,1
"1755",1,1,292,35,32,1,"1165ff9",174,1
"1765",0,1,846,32,1,1,"1165ff9",175,1
"1775",1,1,706,1,18,1,"1165ff9",176,1
"1785",0,1,1615,18,25,1,"1165ff9",177,1
"1795",0,0,2239,25,30,1,"1165ff9",178,1
"1805",1,0,1009,30,10,1,"1165ff9",179,1
"1819",1,0,1622,10,20,1,"1165ff9",180,1
"1825",0,1,1216,20,10,1,"1165ff9",181,1
"1835",1,0,1108,10,35,1,"1165ff9",182,1
"1845",0,0,2021,35,32,1,"1165ff9",183,1
"1855",1,0,1488,32,7,1,"1165ff9",184,1
"1865",0,1,1187,7,30,1,"1165ff9",185,1
"1875",-1,-1,0,30,2,1,"1165ff9",186,1
"1885",1,1,1780,2,17,1,"1165ff9",187,1
"1895",0,1,955,17,19,1,"1165ff9",188,1
"1905",1,0,1515,19,11,1,"1165ff9",189,1
"1919",0,1,1345,11,29,1,"1165ff9",190,1
"1925",1,1,1372,29,22,1,"1165ff9",191,1
"1935",0,0,2189,22,26,1,"1165ff9",192,1
"1945",-1,-1,0,26,33,1,"1165ff9",193,1
"1955",0,0,1272,33,20,1,"1165ff9",194,1
"1965",1,0,915,20,4,1,"1165ff9",195,1
"1975",0,1,386,4,31,1,"1165ff9",196,1
"1985",1,1,291,31,34,1,"1165ff9",197,1
"1995",-1,-1,0,34,23,1,"1165ff9",198,1
"2005",1,0,46,23,14,1,"1165ff9",199,1
"2019",-1,-1,0,14,6,1,"1165ff9",200,1
"2025",1,1,1828,6,5,1,"1165ff9",201,1
"2035",1,1,1598,5,9,1,"1165ff9",202,1
"2045",-1,-1,0,9,24,1,"1165ff9",203,1
"2055",0,1,1101,24,18,1,"1165ff9",204,1
"2065",1,1,1813,18,15,1,"1165ff9",205,1
"2075",0,1,1053,15,21,1,"1165ff9",206,1
"2085",0,1,1418,21,8,1,"1165ff9",207,1
"2095",1,0,680,8,36,1,"1165ff9",208,1
"2105",1,1,594,36,25,1,"1165ff9",209,1
"2119",-1,-1,0,25,16,1,"1165ff9",210,1
"2125",-1,-1,0,16,3,1,"1165ff9",211,1
"2135",-1,-1,0,3,12,1,"1165ff9",212,1
"2145",0,1,1125,12,28,1,"1165ff9",213,1
"2155",1,1,593,28,27,1,"1165ff9",214,1
"2165",0,1,1067,27,13,1,"1165ff9",215,1
"2175",0,0,1484,13,1,1,"1165ff9",216,1
"2185",1,0,863,1,21,1,"1165ff9",217,1
"2195",1,0,390,21,5,1,"1165ff9",218,1
"2205",1,0,671,5,29,1,"1165ff9",219,1
"2219",0,1,1636,29,14,1,"1165ff9",220,1
"2225",1,1,732,14,18,1,"1165ff9",221,1
"2235",1,1,156,18,1,1,"1165ff9",222,1
"2245",1,0,1006,1,23,1,"1165ff9",223,1
"2255",0,1,1687,23,4,1,"1165ff9",224,1
"2265",1,1,1913,4,9,1,"1165ff9",225,1
"2275",0,1,1746,9,24,1,"1165ff9",226,1
"2285",0,1,475,24,7,1,"1165ff9",227,1
"2295",0,1,1149,7,27,1,"1165ff9",228,1
"2305",1,0,1104,27,6,1,"1165ff9",229,1
"2319",0,0,1887,6,11,1,"1165ff9",230,1
"2325",1,1,568,11,12,1,"1165ff9",231,1
"2335",1,1,429,12,10,1,"1165ff9",232,1
"2345",0,1,750,10,28,1,"1165ff9",233,1
"2355",1,1,925,28,19,1,"1165ff9",234,1
"2365",1,1,681,19,25,1,"1165ff9",235,1
"2375",1,1,702,25,36,1,"1165ff9",236,1
"2385",0,1,632,36,15,1,"1165ff9",237,1
"2395",0,0,730,15,17,1,"1165ff9",238,1
"2405",0,1,1921,17,34,1,"1165ff9",239,1
"2419",1,1,510,34,22,1,"1165ff9",240,1
"2425",1,1,491,22,31,1,"1165ff9",241,1
"2435",1,1,730,31,35,1,"1165ff9",242,1
"2445",0,1,1335,35,16,1,"1165ff9",243,1
"2455",0,1,1575,16,20,1,"1165ff9",244,1
"2465",1,1,2440,20,32,1,"1165ff9",245,1
"2475",1,1,2175,32,30,1,"1165ff9",246,1
"2485",1,0,1733,30,8,1,"1165ff9",247,1
"2495",-1,-1,0,8,33,1,"1165ff9",248,1
"2505",0,1,643,33,3,1,"1165ff9",249,1
"2519",-1,-1,0,3,2,1,"1165ff9",250,1
"2525",1,0,93,2,26,1,"1165ff9",251,1
"2535",0,1,436,26,13,1,"1165ff9",252,1
"2545",1,1,1119,13,5,1,"1165ff9",253,1
"2555",0,1,2055,5,35,1,"1165ff9",254,1
"2565",1,0,1980,35,1,1,"1165ff9",255,1
"2575",1,0,1884,1,24,1,"1165ff9",256,1
"2585",0,1,1067,24,16,1,"1165ff9",257,1
"2595",1,1,1697,16,8,1,"1165ff9",258,1
"2605",0,1,771,8,33,1,"1165ff9",259,1
"2619",-1,-1,0,33,30,1,"1165ff9",260,1
"2625",1,0,1307,30,9,1,"1165ff9",261,1
"2635",-1,-1,0,9,29,1,"1165ff9",262,1
"2645",1,1,731,29,28,1,"1165ff9",263,1
"2655",0,1,521,28,14,1,"1165ff9",264,1
"2665",1,1,2396,14,18,1,"1165ff9",265,1
"2675",0,1,2487,18,34,1,"1165ff9",266,1
"2685",1,0,1433,34,2,1,"1165ff9",267,1
"2695",0,0,1610,2,3,1,"1165ff9",268,1
"2705",1,0,1251,3,25,1,"1165ff9",269,1
"2719",1,1,1992,25,27,1,"1165ff9",270,1
"2725",0,0,2087,27,22,1,"1165ff9",271,1
"2735",-1,-1,0,22,36,1,"1165ff9",272,1
"2745",0,1,977,36,12,1,"1165ff9",273,1
"2755",-1,-1,0,12,26,1,"1165ff9",274,1
"2765",0,1,2121,26,15,1,"1165ff9",275,1
"2775",0,1,1937,15,23,1,"1165ff9",276,1
"2785",-1,-1,0,23,20,1,"1165ff9",277,1
"2795",1,1,1918,20,21,1,"1165ff9",278,1
"2805",1,0,1770,21,10,1,"1165ff9",279,1
"2819",-1,-1,0,10,13,1,"1165ff9",280,1
"2825",1,1,1783,13,17,1,"1165ff9",281,1
"2835",1,1,1214,17,11,1,"1165ff9",282,1
"2845",1,0,346,11,19,1,"1165ff9",283,1
"2855",0,0,612,19,31,1,"1165ff9",284,1
"2865",1,0,10,31,6,1,"1165ff9",285,1
"2875",1,0,2386,6,32,1,"1165ff9",286,1
"2885",-1,-1,0,32,4,1,"1165ff9",287,1
"2895",1,1,2009,4,7,1,"1165ff9",288,1
"2100",-1,-1,0,0,14,1,"13c88ec",1,1
"320",-1,0,2187,14,18,1,"13c88ec",2,1
"420",-1,0,1765,18,2,1,"13c88ec",3,1
"520",-1,0,1423,2,30,1,"13c88ec",4,1
"620",-1,0,1594,30,8,1,"13c88ec",5,1
"720",-1,0,1826,8,26,1,"13c88ec",6,1
"820",-1,0,1617,26,5,1,"13c88ec",7,1
"920",-1,0,827,5,1,1,"13c88ec",8,1
"1020",-1,0,833,1,17,1,"13c88ec",9,1
"1120",-1,-1,0,17,27,1,"13c88ec",10,1
"1220",-1,-1,0,27,21,1,"13c88ec",11,1
"1320",-1,-1,0,21,10,1,"13c88ec",12,1
"1420",-1,0,1813,10,19,1,"13c88ec",13,1
"1520",-1,0,1125,19,9,1,"13c88ec",14,1
"1620",-1,0,2053,9,15,1,"13c88ec",15,1
"1720",-1,-1,0,15,29,1,"13c88ec",16,1
"1820",-1,0,2122,29,36,1,"13c88ec",17,1
"1920",-1,-1,0,36,35,1,"13c88ec",18,1
"2020",-1,-1,0,35,4,1,"13c88ec",19,1
"2120",-1,0,1634,4,11,1,"13c88ec",20,1
"2220",-1,-1,0,11,12,1,"13c88ec",21,1
"2320",-1,0,1805,12,3,1,"13c88ec",22,1
"2420",-1,-1,0,3,31,1,"13c88ec",23,1
"2520",-1,-1,0,31,24,1,"13c88ec",24,1
"2620",-1,-1,0,24,20,1,"13c88ec",25,1
"2720",-1,0,2234,20,22,1,"13c88ec",26,1
"2820",-1,-1,0,22,32,1,"13c88ec",27,1
"2910",-1,0,2062,32,33,1,"13c88ec",28,1
"306",-1,-1,0,33,25,1,"13c88ec",29,1
"3110",-1,0,2222,25,7,1,"13c88ec",30,1
"326",-1,-1,0,7,13,1,"13c88ec",31,1
"336",-1,0,1688,13,23,1,"13c88ec",32,1
"346",-1,-1,0,23,6,1,"13c88ec",33,1
"356",-1,0,1547,6,28,1,"13c88ec",34,1
"366",-1,-1,0,28,34,1,"13c88ec",35,1
"376",-1,0,2295,34,16,1,"13c88ec",36,1
"386",-1,-1,0,16,14,1,"13c88ec",37,1
"396",-1,-1,0,14,18,1,"13c88ec",38,1
"406",-1,0,62,18,2,1,"13c88ec",39,1
"4110",-1,0,1389,2,30,1,"13c88ec",40,1
"426",-1,-1,0,30,8,1,"13c88ec",41,1
"436",-1,-1,0,8,26,1,"13c88ec",42,1
"446",-1,0,118,26,5,1,"13c88ec",43,1
"456",-1,-1,0,5,1,1,"13c88ec",44,1
"466",-1,-1,0,1,17,1,"13c88ec",45,1
"476",-1,-1,0,17,27,1,"13c88ec",46,1
"486",-1,0,1234,27,21,1,"13c88ec",47,1
"496",-1,0,1125,21,10,1,"13c88ec",48,1
"506",-1,-1,0,10,19,1,"13c88ec",49,1
"5110",-1,0,765,19,9,1,"13c88ec",50,1
"526",-1,-1,0,9,15,1,"13c88ec",51,1
"536",-1,0,1881,15,29,1,"13c88ec",52,1
"546",-1,-1,0,29,36,1,"13c88ec",53,1
"556",-1,0,1869,36,35,1,"13c88ec",54,1
"566",-1,-1,0,35,4,1,"13c88ec",55,1
"576",-1,0,1845,4,11,1,"13c88ec",56,1
"586",-1,-1,0,11,12,1,"13c88ec",57,1
"596",-1,0,1344,12,3,1,"13c88ec",58,1
"606",-1,-1,0,3,31,1,"13c88ec",59,1
"6110",-1,0,1891,31,24,1,"13c88ec",60,1
"626",-1,-1,0,24,20,1,"13c88ec",61,1
"636",-1,0,1625,20,22,1,"13c88ec",62,1
"646",-1,-1,0,22,32,1,"13c88ec",63,1
"656",-1,0,1595,32,33,1,"13c88ec",64,1
"666",-1,-1,0,33,25,1,"13c88ec",65,1
"676",-1,0,1447,25,7,1,"13c88ec",66,1
"686",-1,-1,0,7,13,1,"13c88ec",67,1
"696",-1,0,1357,13,23,1,"13c88ec",68,1
"706",-1,-1,0,23,6,1,"13c88ec",69,1
"7110",-1,0,470,6,28,1,"13c88ec",70,1
"726",-1,-1,0,28,34,1,"13c88ec",71,1
"736",-1,0,781,34,16,1,"13c88ec",72,1
"746",-1,-1,0,16,23,1,"13c88ec",73,1
"756",-1,0,948,23,26,1,"13c88ec",74,1
"766",-1,0,724,26,32,1,"13c88ec",75,1
"776",-1,0,923,32,14,1,"13c88ec",76,1
"786",-1,0,730,14,30,1,"13c88ec",77,1
"796",-1,0,720,30,36,1,"13c88ec",78,1
"806",-1,0,734,36,31,1,"13c88ec",79,1
"8110",-1,0,699,31,8,1,"13c88ec",80,1
"826",-1,0,760,8,13,1,"13c88ec",81,1
"836",-1,-1,0,13,34,1,"13c88ec",82,1
"846",-1,0,1327,34,12,1,"13c88ec",83,1
"856",-1,-1,0,12,10,1,"13c88ec",84,1
"866",-1,0,1052,10,9,1,"13c88ec",85,1
"876",-1,-1,0,9,25,1,"13c88ec",86,1
"886",-1,0,1386,25,3,1,"13c88ec",87,1
"896",-1,-1,0,3,4,1,"13c88ec",88,1
"906",-1,0,1125,4,33,1,"13c88ec",89,1
"9110",-1,-1,0,33,16,1,"13c88ec",90,1
"926",-1,0,2028,16,5,1,"13c88ec",91,1
"936",-1,-1,0,5,19,1,"13c88ec",92,1
"946",-1,0,1605,19,6,1,"13c88ec",93,1
"956",-1,-1,0,6,18,1,"13c88ec",94,1
"966",-1,0,2296,18,22,1,"13c88ec",95,1
"976",-1,-1,0,22,21,1,"13c88ec",96,1
"986",-1,0,1201,21,27,1,"13c88ec",97,1
"996",-1,-1,0,27,29,1,"13c88ec",98,1
"1006",-1,0,833,29,11,1,"13c88ec",99,1
"10110",-1,-1,0,11,15,1,"13c88ec",100,1
"1026",-1,0,2421,15,24,1,"13c88ec",101,1
"1036",-1,-1,0,24,28,1,"13c88ec",102,1
"1046",-1,0,1780,28,7,1,"13c88ec",103,1
"1056",-1,-1,0,7,1,1,"13c88ec",104,1
"1066",-1,0,1625,1,20,1,"13c88ec",105,1
"1076",-1,-1,0,20,17,1,"13c88ec",106,1
"1086",-1,0,2061,17,2,1,"13c88ec",107,1
"1096",-1,-1,0,2,35,1,"13c88ec",108,1
"1106",-1,0,1366,35,7,1,"13c88ec",109,1
"11110",-1,-1,0,7,36,1,"13c88ec",110,1
"1126",-1,0,1738,36,9,1,"13c88ec",111,1
"1136",-1,-1,0,9,27,1,"13c88ec",112,1
"1146",-1,0,1191,27,2,1,"13c88ec",113,1
"1156",-1,-1,0,2,15,1,"13c88ec",114,1
"1166",-1,0,1608,15,1,1,"13c88ec",115,1
"1176",-1,-1,0,1,32,1,"13c88ec",116,1
"1186",-1,0,1343,32,29,1,"13c88ec",117,1
"1196",-1,-1,0,29,20,1,"13c88ec",118,1
"1206",-1,NA,NA,NA,NA,NA,"13c88ec",119,1
"2106",-1,-1,0,0,34,1,"1c8fb86",1,1
"327",0,1,502,34,12,1,"1c8fb86",2,1
"427",0,0,759,12,4,1,"1c8fb86",3,1
"527",1,0,742,4,29,1,"1c8fb86",4,1
"627",0,0,1058,29,21,1,"1c8fb86",5,1
"727",1,1,1067,21,25,1,"1c8fb86",6,1
"827",0,0,970,25,36,1,"1c8fb86",7,1
"927",1,0,960,36,8,1,"1c8fb86",8,1
"1027",0,1,1069,8,22,1,"1c8fb86",9,1
"1127",0,0,865,22,27,1,"1c8fb86",10,1
"1226",1,0,1211,27,3,1,"1c8fb86",11,1
"1326",0,0,1043,3,18,1,"1c8fb86",12,1
"1426",1,0,987,18,26,1,"1c8fb86",13,1
"1526",0,1,973,26,9,1,"1c8fb86",14,1
"1626",1,1,880,9,10,1,"1c8fb86",15,1
"1726",1,1,892,10,13,1,"1c8fb86",16,1
"1826",1,1,525,13,7,1,"1c8fb86",17,1
"1926",0,1,816,7,30,1,"1c8fb86",18,1
"2026",0,1,800,30,2,1,"1c8fb86",19,1
"2126",0,1,596,2,24,1,"1c8fb86",20,1
"2226",0,1,626,24,14,1,"1c8fb86",21,1
"2326",0,1,898,14,33,1,"1c8fb86",22,1
"2426",1,0,1237,33,1,1,"1c8fb86",23,1
"2526",1,0,596,1,31,1,"1c8fb86",24,1
"2626",0,0,902,31,23,1,"1c8fb86",25,1
"2726",0,1,773,23,15,1,"1c8fb86",26,1
"2826",1,1,835,15,11,1,"1c8fb86",27,1
"2911",0,1,873,11,19,1,"1c8fb86",28,1
"307",0,1,937,19,17,1,"1c8fb86",29,1
"3111",0,1,1279,17,20,1,"1c8fb86",30,1
"328",0,1,560,20,16,1,"1c8fb86",31,1
"337",1,1,892,16,6,1,"1c8fb86",32,1
"347",0,1,721,6,35,1,"1c8fb86",33,1
"357",0,0,838,35,32,1,"1c8fb86",34,1
"367",0,1,1161,32,5,1,"1c8fb86",35,1
"377",0,1,829,5,28,1,"1c8fb86",36,1
"387",0,0,584,28,34,1,"1c8fb86",37,1
"397",0,1,713,34,12,1,"1c8fb86",38,1
"407",0,0,927,12,4,1,"1c8fb86",39,1
"4111",0,1,584,4,29,1,"1c8fb86",40,1
"428",0,0,1091,29,21,1,"1c8fb86",41,1
"437",1,1,957,21,25,1,"1c8fb86",42,1
"447",0,0,1024,25,36,1,"1c8fb86",43,1
"457",0,1,746,36,8,1,"1c8fb86",44,1
"467",0,1,1160,8,22,1,"1c8fb86",45,1
"477",0,0,611,22,27,1,"1c8fb86",46,1
"487",0,1,864,27,3,1,"1c8fb86",47,1
"497",1,1,1034,3,18,1,"1c8fb86",48,1
"507",0,1,724,18,26,1,"1c8fb86",49,1
"5111",0,1,576,26,9,1,"1c8fb86",50,1
"528",0,0,741,9,10,1,"1c8fb86",51,1
"537",1,1,1103,10,13,1,"1c8fb86",52,1
"547",1,1,811,13,7,1,"1c8fb86",53,1
"557",1,0,810,7,30,1,"1c8fb86",54,1
"567",0,1,724,30,2,1,"1c8fb86",55,1
"577",0,1,592,2,24,1,"1c8fb86",56,1
"587",0,1,928,24,14,1,"1c8fb86",57,1
"597",0,1,851,14,33,1,"1c8fb86",58,1
"607",0,1,1200,33,1,1,"1c8fb86",59,1
"6111",1,0,1226,1,31,1,"1c8fb86",60,1
"628",1,1,1132,31,23,1,"1c8fb86",61,1
"637",0,1,1392,23,15,1,"1c8fb86",62,1
"647",0,0,919,15,11,1,"1c8fb86",63,1
"657",0,1,611,11,19,1,"1c8fb86",64,1
"667",0,1,423,19,17,1,"1c8fb86",65,1
"677",0,1,1286,17,20,1,"1c8fb86",66,1
"687",0,1,777,20,16,1,"1c8fb86",67,1
"697",0,0,804,16,6,1,"1c8fb86",68,1
"707",0,1,704,6,35,1,"1c8fb86",69,1
"7111",0,0,991,35,32,1,"1c8fb86",70,1
"728",1,0,968,32,5,1,"1c8fb86",71,1
"737",1,0,676,5,28,1,"1c8fb86",72,1
"747",0,0,1271,28,33,1,"1c8fb86",73,1
"757",1,1,916,33,23,1,"1c8fb86",74,1
"767",1,1,700,23,21,1,"1c8fb86",75,1
"777",1,1,1039,21,34,1,"1c8fb86",76,1
"787",0,1,1044,34,13,1,"1c8fb86",77,1
"797",0,0,1075,13,18,1,"1c8fb86",78,1
"807",0,1,872,18,28,1,"1c8fb86",79,1
"8111",0,0,625,28,35,1,"1c8fb86",80,1
"828",1,1,616,35,30,1,"1c8fb86",81,1
"837",1,0,702,30,15,1,"1c8fb86",82,1
"847",1,1,918,15,11,1,"1c8fb86",83,1
"857",0,0,769,11,7,1,"1c8fb86",84,1
"867",1,1,1206,7,12,1,"1c8fb86",85,1
"877",0,1,622,12,31,1,"1c8fb86",86,1
"887",0,1,472,31,17,1,"1c8fb86",87,1
"897",1,1,594,17,1,1,"1c8fb86",88,1
"907",0,0,905,1,3,1,"1c8fb86",89,1
"9111",1,0,552,3,27,1,"1c8fb86",90,1
"928",0,1,1001,27,14,1,"1c8fb86",91,1
"937",0,1,581,14,25,1,"1c8fb86",92,1
"947",1,1,823,25,22,1,"1c8fb86",93,1
"957",0,0,922,22,24,1,"1c8fb86",94,1
"967",1,0,1016,24,5,1,"1c8fb86",95,1
"977",0,0,519,5,6,1,"1c8fb86",96,1
"987",0,1,1057,6,36,1,"1c8fb86",97,1
"997",0,0,1063,36,20,1,"1c8fb86",98,1
"1007",1,0,1121,20,4,1,"1c8fb86",99,1
"10111",0,1,1397,4,29,1,"1c8fb86",100,1
"1028",0,1,1098,29,10,1,"1c8fb86",101,1
"1037",0,0,1029,10,9,1,"1c8fb86",102,1
"1047",0,1,594,9,26,1,"1c8fb86",103,1
"1057",1,1,672,26,19,1,"1c8fb86",104,1
"1067",0,1,809,19,16,1,"1c8fb86",105,1
"1077",1,1,917,16,2,1,"1c8fb86",106,1
"1087",0,0,1132,2,8,1,"1c8fb86",107,1
"1097",1,0,717,8,32,1,"1c8fb86",108,1
"1107",0,1,586,32,15,1,"1c8fb86",109,1
"11111",0,0,519,15,8,1,"1c8fb86",110,1
"1128",0,0,731,8,16,1,"1c8fb86",111,1
"1137",0,0,1199,16,11,1,"1c8fb86",112,1
"1147",1,1,569,11,18,1,"1c8fb86",113,1
"1157",1,0,774,18,22,1,"1c8fb86",114,1
"1167",0,0,1097,22,28,1,"1c8fb86",115,1
"1177",0,0,781,28,33,1,"1c8fb86",116,1
"1187",1,1,882,33,36,1,"1c8fb86",117,1
"1197",0,1,992,36,3,1,"1c8fb86",118,1
"1207",1,1,851,3,10,1,"1c8fb86",119,1
"12110",1,1,875,10,12,1,"1c8fb86",120,1
"1227",1,1,944,12,6,1,"1c8fb86",121,1
"1236",0,1,947,6,32,1,"1c8fb86",122,1
"1246",1,0,1194,32,14,1,"1c8fb86",123,1
"1256",0,1,872,14,34,1,"1c8fb86",124,1
"1266",0,0,1136,34,21,1,"1c8fb86",125,1
"1276",1,1,464,21,30,1,"1c8fb86",126,1
"1286",1,0,594,30,1,1,"1c8fb86",127,1
"1296",0,0,1136,1,2,1,"1c8fb86",128,1
"1306",1,1,1038,2,5,1,"1c8fb86",129,1
"13110",1,0,903,5,31,1,"1c8fb86",130,1
"1327",0,0,518,31,27,1,"1c8fb86",131,1
"1336",0,0,480,27,29,1,"1c8fb86",132,1
"1346",1,1,751,29,20,1,"1c8fb86",133,1
"1356",0,0,906,20,26,1,"1c8fb86",134,1
"1366",1,0,1010,26,17,1,"1c8fb86",135,1
"1376",0,0,1430,17,13,1,"1c8fb86",136,1
"1386",1,1,528,13,9,1,"1c8fb86",137,1
"1396",0,1,580,9,25,1,"1c8fb86",138,1
"1406",1,1,1111,25,23,1,"1c8fb86",139,1
"14110",0,0,663,23,24,1,"1c8fb86",140,1
"1427",1,0,774,24,4,1,"1c8fb86",141,1
"1436",1,0,858,4,35,1,"1c8fb86",142,1
"1446",0,0,389,35,19,1,"1c8fb86",143,1
"1456",1,0,737,19,7,1,"1c8fb86",144,1
"1466",1,1,1059,7,5,1,"1c8fb86",145,1
"1476",1,0,420,5,25,1,"1c8fb86",146,1
"1486",1,1,1024,25,32,1,"1c8fb86",147,1
"1496",0,0,510,32,19,1,"1c8fb86",148,1
"1506",0,1,354,19,1,1,"1c8fb86",149,1
"15110",1,1,440,1,3,1,"1c8fb86",150,1
"1527",0,0,882,3,12,1,"1c8fb86",151,1
"1536",1,1,526,12,18,1,"1c8fb86",152,1
"1546",1,1,904,18,6,1,"1c8fb86",153,1
"1556",1,0,386,6,27,1,"1c8fb86",154,1
"1566",0,1,256,27,14,1,"1c8fb86",155,1
"1576",0,1,998,14,26,1,"1c8fb86",156,1
"1586",1,0,1162,26,2,1,"1c8fb86",157,1
"1596",0,1,1326,2,33,1,"1c8fb86",158,1
"1606",1,1,1316,33,24,1,"1c8fb86",159,1
"16110",0,0,1236,24,35,1,"1c8fb86",160,1
"1627",1,0,1251,35,15,1,"1c8fb86",161,1
"1636",0,1,678,15,23,1,"1c8fb86",162,1
"1646",1,1,1155,23,36,1,"1c8fb86",163,1
"1656",1,0,411,36,7,1,"1c8fb86",164,1
"1666",0,1,356,7,20,1,"1c8fb86",165,1
"1676",0,0,424,20,28,1,"1c8fb86",166,1
"1686",0,0,619,28,34,1,"1c8fb86",167,1
"1696",1,0,258,34,17,1,"1c8fb86",168,1
"1706",1,0,1104,17,29,1,"1c8fb86",169,1
"17110",1,1,1270,29,22,1,"1c8fb86",170,1
"1727",1,0,600,22,10,1,"1c8fb86",171,1
"1736",0,0,987,10,8,1,"1c8fb86",172,1
"1746",0,0,537,8,13,1,"1c8fb86",173,1
"1756",1,0,265,13,21,1,"1c8fb86",174,1
"1766",0,1,1047,21,11,1,"1c8fb86",175,1
"1776",0,0,996,11,16,1,"1c8fb86",176,1
"1786",0,1,526,16,30,1,"1c8fb86",177,1
"1796",0,1,731,30,4,1,"1c8fb86",178,1
"1806",0,1,572,4,31,1,"1c8fb86",179,1
"18110",0,1,739,31,9,1,"1c8fb86",180,1
"1827",0,0,567,9,10,1,"1c8fb86",181,1
"1836",1,0,798,10,31,1,"1c8fb86",182,1
"1846",0,0,476,31,32,1,"1c8fb86",183,1
"1856",1,1,452,32,23,1,"1c8fb86",184,1
"1866",1,1,457,23,33,1,"1c8fb86",185,1
"1876",1,1,419,33,25,1,"1c8fb86",186,1
"1886",1,0,581,25,12,1,"1c8fb86",187,1
"1896",0,0,309,12,5,1,"1c8fb86",188,1
"1906",1,1,363,5,17,1,"1c8fb86",189,1
"19110",0,0,618,17,1,1,"1c8fb86",190,1
"1927",1,0,471,1,30,1,"1c8fb86",191,1
"1936",0,0,361,30,34,1,"1c8fb86",192,1
"1946",0,0,500,34,20,1,"1c8fb86",193,1
"1956",1,1,337,20,19,1,"1c8fb86",194,1
"1966",1,1,647,19,27,1,"1c8fb86",195,1
"1976",1,1,376,27,21,1,"1c8fb86",196,1
"1986",1,0,524,21,4,1,"1c8fb86",197,1
"1996",1,1,665,4,3,1,"1c8fb86",198,1
"2006",1,0,301,3,36,1,"1c8fb86",199,1
"20110",0,0,391,36,24,1,"1c8fb86",200,1
"2027",1,0,255,24,2,1,"1c8fb86",201,1
"2036",0,1,592,2,29,1,"1c8fb86",202,1
"2046",0,1,258,29,13,1,"1c8fb86",203,1
"2056",1,1,254,13,11,1,"1c8fb86",204,1
"2066",1,1,312,11,14,1,"1c8fb86",205,1
"2076",1,1,258,14,7,1,"1c8fb86",206,1
"2086",0,0,284,7,6,1,"1c8fb86",207,1
"2096",1,1,247,6,16,1,"1c8fb86",208,1
"2107",1,1,242,16,8,1,"1c8fb86",209,1
"21110",0,1,334,8,22,1,"1c8fb86",210,1
"2127",1,0,369,22,15,1,"1c8fb86",211,1
"2136",1,1,588,15,18,1,"1c8fb86",212,1
"2146",1,0,335,18,26,1,"1c8fb86",213,1
"2156",0,0,220,26,35,1,"1c8fb86",214,1
"2166",1,1,807,35,28,1,"1c8fb86",215,1
"2176",0,1,273,28,9,1,"1c8fb86",216,1
"2186",1,1,300,9,8,1,"1c8fb86",217,1
"2196",0,1,258,8,34,1,"1c8fb86",218,1
"2206",0,1,224,34,6,1,"1c8fb86",219,1
"22110",1,1,660,6,10,1,"1c8fb86",220,1
"2227",0,1,445,10,31,1,"1c8fb86",221,1
"2236",0,0,783,31,36,1,"1c8fb86",222,1
"2246",1,1,600,36,22,1,"1c8fb86",223,1
"2256",1,1,900,22,32,1,"1c8fb86",224,1
"2266",0,1,748,32,7,1,"1c8fb86",225,1
"2276",0,1,589,7,20,1,"1c8fb86",226,1
"2286",0,0,589,20,26,1,"1c8fb86",227,1
"2296",0,0,593,26,25,1,"1c8fb86",228,1
"2306",1,1,556,25,35,1,"1c8fb86",229,1
"23110",1,0,393,35,2,1,"1c8fb86",230,1
"2327",0,0,338,2,13,1,"1c8fb86",231,1
"2336",1,0,268,13,23,1,"1c8fb86",232,1
"2346",0,0,581,23,29,1,"1c8fb86",233,1
"2356",1,1,856,29,30,1,"1c8fb86",234,1
"2366",1,0,476,30,1,1,"1c8fb86",235,1
"2376",0,1,390,1,33,1,"1c8fb86",236,1
"2386",1,0,152,33,18,1,"1c8fb86",237,1
"2396",0,1,658,18,19,1,"1c8fb86",238,1
"2406",0,1,400,19,17,1,"1c8fb86",239,1
"24110",0,1,569,17,28,1,"1c8fb86",240,1
"2427",1,1,253,28,21,1,"1c8fb86",241,1
"2436",0,1,254,21,5,1,"1c8fb86",242,1
"2446",1,0,218,5,27,1,"1c8fb86",243,1
"2456",0,1,470,27,14,1,"1c8fb86",244,1
"2466",0,0,343,14,11,1,"1c8fb86",245,1
"2476",1,1,238,11,3,1,"1c8fb86",246,1
"2486",0,0,369,3,12,1,"1c8fb86",247,1
"2496",1,1,163,12,4,1,"1c8fb86",248,1
"2506",0,0,378,4,9,1,"1c8fb86",249,1
"25110",1,1,287,9,16,1,"1c8fb86",250,1
"2527",-1,-1,0,16,24,1,"1c8fb86",251,1
"2536",0,1,403,24,15,1,"1c8fb86",252,1
"2546",1,1,374,15,15,1,"1c8fb86",253,1
"2556",1,1,254,15,12,1,"1c8fb86",254,1
"2566",0,0,549,12,5,1,"1c8fb86",255,1
"2576",0,1,207,5,24,1,"1c8fb86",256,1
"2586",1,0,389,24,17,1,"1c8fb86",257,1
"2596",0,1,301,17,34,1,"1c8fb86",258,1
"2606",1,0,254,34,2,1,"1c8fb86",259,1
"26110",0,0,211,2,10,1,"1c8fb86",260,1
"2627",0,0,261,10,16,1,"1c8fb86",261,1
"2636",0,1,495,16,25,1,"1c8fb86",262,1
"2646",0,1,774,25,7,1,"1c8fb86",263,1
"2656",1,1,433,7,18,1,"1c8fb86",264,1
"2666",1,0,792,18,26,1,"1c8fb86",265,1
"2676",1,0,674,26,13,1,"1c8fb86",266,1
"2686",0,0,912,13,3,1,"1c8fb86",267,1
"2696",1,1,883,3,4,1,"1c8fb86",268,1
"2706",1,0,451,4,31,1,"1c8fb86",269,1
"27110",1,1,1069,31,33,1,"1c8fb86",270,1
"2727",1,1,446,33,36,1,"1c8fb86",271,1
"2736",1,1,964,36,29,1,"1c8fb86",272,1
"2746",0,1,838,29,1,1,"1c8fb86",273,1
"2756",0,0,1284,1,8,1,"1c8fb86",274,1
"2766",1,0,761,8,35,1,"1c8fb86",275,1
"2776",1,0,782,35,11,1,"1c8fb86",276,1
"2786",1,1,634,11,14,1,"1c8fb86",277,1
"2796",1,0,695,14,32,1,"1c8fb86",278,1
"2806",1,1,548,32,27,1,"1c8fb86",279,1
"28110",0,0,574,27,28,1,"1c8fb86",280,1
"2827",1,1,883,28,23,1,"1c8fb86",281,1
"2836",0,0,969,23,30,1,"1c8fb86",282,1
"2846",1,1,714,30,19,1,"1c8fb86",283,1
"2856",1,1,643,19,20,1,"1c8fb86",284,1
"2866",1,0,715,20,6,1,"1c8fb86",285,1
"2876",1,1,533,6,9,1,"1c8fb86",286,1
"2886",1,0,685,9,21,1,"1c8fb86",287,1
"2896",1,1,752,21,22,1,"1c8fb86",288,1
"2108",-1,-1,0,0,19,1,"1ad6b08",1,1
"329",-1,-1,0,19,4,1,"1ad6b08",2,1
"429",1,1,900,4,11,1,"1ad6b08",3,1
"529",1,1,835,11,13,1,"1ad6b08",4,1
"629",1,1,676,13,10,1,"1ad6b08",5,1
"729",1,0,590,10,31,1,"1ad6b08",6,1
"829",1,1,874,31,25,1,"1ad6b08",7,1
"929",1,1,725,25,36,1,"1ad6b08",8,1
"1029",1,1,808,36,35,1,"1ad6b08",9,1
"1129",1,0,553,35,15,1,"1ad6b08",10,1
"1228",1,0,784,15,22,1,"1ad6b08",11,1
"1328",0,1,734,22,17,1,"1ad6b08",12,1
"1428",0,1,722,17,21,1,"1ad6b08",13,1
"1528",0,0,1062,21,24,1,"1ad6b08",14,1
"1628",1,1,949,24,27,1,"1ad6b08",15,1
"1728",0,1,784,27,12,1,"1ad6b08",16,1
"1828",1,0,700,12,33,1,"1ad6b08",17,1
"1928",0,1,1366,33,9,1,"1ad6b08",18,1
"2028",0,1,1061,9,32,1,"1ad6b08",19,1
"2128",0,1,1082,32,2,1,"1ad6b08",20,1
"2228",0,0,1029,2,7,1,"1ad6b08",21,1
"2328",1,0,1151,7,28,1,"1ad6b08",22,1
"2428",0,0,519,28,20,1,"1ad6b08",23,1
"2528",1,1,345,20,29,1,"1ad6b08",24,1
"2628",1,0,371,29,14,1,"1ad6b08",25,1
"2728",1,1,1358,14,18,1,"1ad6b08",26,1
"2828",1,1,268,18,16,1,"1ad6b08",27,1
"2912",0,1,1053,16,23,1,"1ad6b08",28,1
"308",0,0,1186,23,30,1,"1ad6b08",29,1
"3112",1,0,512,30,8,1,"1ad6b08",30,1
"3210",0,0,291,8,3,1,"1ad6b08",31,1
"338",1,0,393,3,34,1,"1ad6b08",32,1
"348",0,1,333,34,1,1,"1ad6b08",33,1
"358",0,0,327,1,6,1,"1ad6b08",34,1
"368",1,1,307,6,5,1,"1ad6b08",35,1
"378",1,0,249,5,26,1,"1ad6b08",36,1
"388",0,0,287,26,19,1,"1ad6b08",37,1
"398",0,1,269,19,4,1,"1ad6b08",38,1
"408",1,1,246,4,11,1,"1ad6b08",39,1
"4112",0,0,237,11,13,1,"1ad6b08",40,1
"4210",1,1,217,13,10,1,"1ad6b08",41,1
"438",1,0,172,10,31,1,"1ad6b08",42,1
"448",1,1,51,31,25,1,"1ad6b08",43,1
"458",0,0,135,25,36,1,"1ad6b08",44,1
"468",1,1,336,36,35,1,"1ad6b08",45,1
"478",1,0,269,35,15,1,"1ad6b08",46,1
"488",0,1,27,15,22,1,"1ad6b08",47,1
"498",0,1,276,22,17,1,"1ad6b08",48,1
"508",1,0,300,17,21,1,"1ad6b08",49,1
"5112",0,0,326,21,24,1,"1ad6b08",50,1
"5210",1,1,290,24,27,1,"1ad6b08",51,1
"538",1,0,607,27,12,1,"1ad6b08",52,1
"548",0,1,402,12,33,1,"1ad6b08",53,1
"558",0,1,328,33,9,1,"1ad6b08",54,1
"568",0,1,461,9,32,1,"1ad6b08",55,1
"578",0,1,279,32,2,1,"1ad6b08",56,1
"588",0,0,275,2,7,1,"1ad6b08",57,1
"598",0,1,751,7,28,1,"1ad6b08",58,1
"608",0,0,320,28,20,1,"1ad6b08",59,1
"6112",1,1,399,20,29,1,"1ad6b08",60,1
"6210",-1,-1,0,29,14,1,"1ad6b08",61,1
"638",1,1,841,14,18,1,"1ad6b08",62,1
"648",1,1,281,18,16,1,"1ad6b08",63,1
"658",0,1,1118,16,23,1,"1ad6b08",64,1
"668",1,1,1393,23,30,1,"1ad6b08",65,1
"678",1,0,320,30,8,1,"1ad6b08",66,1
"688",0,0,283,8,3,1,"1ad6b08",67,1
"698",0,1,1265,3,34,1,"1ad6b08",68,1
"708",0,1,349,34,1,1,"1ad6b08",69,1
"7112",1,1,1835,1,6,1,"1ad6b08",70,1
"7210",1,1,2500,6,5,1,"1ad6b08",71,1
"738",1,0,566,5,26,1,"1ad6b08",72,1
"748",0,0,432,26,33,1,"1ad6b08",73,1
"758",1,1,350,33,31,1,"1ad6b08",74,1
"768",1,1,309,31,20,1,"1ad6b08",75,1
"778",1,1,304,20,29,1,"1ad6b08",76,1
"788",1,1,327,29,21,1,"1ad6b08",77,1
"798",1,1,398,21,24,1,"1ad6b08",78,1
"808",1,0,284,24,16,1,"1ad6b08",79,1
"8112",0,1,51,16,26,1,"1ad6b08",80,1
"8210",0,0,360,26,23,1,"1ad6b08",81,1
"838",1,0,256,23,11,1,"1ad6b08",82,1
"848",0,0,221,11,17,1,"1ad6b08",83,1
"858",1,1,356,17,6,1,"1ad6b08",84,1
"868",1,1,275,6,3,1,"1ad6b08",85,1
"878",1,1,303,3,12,1,"1ad6b08",86,1
"888",0,1,214,12,19,1,"1ad6b08",87,1
"898",0,1,1134,19,18,1,"1ad6b08",88,1
"908",0,0,318,18,13,1,"1ad6b08",89,1
"9112",1,1,333,13,14,1,"1ad6b08",90,1
"9210",1,1,1641,14,8,1,"1ad6b08",91,1
"938",1,0,1173,8,28,1,"1ad6b08",92,1
"948",1,1,365,28,27,1,"1ad6b08",93,1
"958",0,0,249,27,34,1,"1ad6b08",94,1
"968",0,1,127,34,10,1,"1ad6b08",95,1
"978",0,1,986,10,36,1,"1ad6b08",96,1
"988",0,1,241,36,9,1,"1ad6b08",97,1
"998",1,1,1038,9,15,1,"1ad6b08",98,1
"1008",0,1,981,15,30,1,"1ad6b08",99,1
"10112",1,1,1368,30,25,1,"1ad6b08",100,1
"10210",1,0,1168,25,7,1,"1ad6b08",101,1
"1038",1,1,1901,7,4,1,"1ad6b08",102,1
"1048",0,1,1421,4,32,1,"1ad6b08",103,1
"1058",1,1,722,32,22,1,"1ad6b08",104,1
"1068",0,1,764,22,2,1,"1ad6b08",105,1
"1078",1,1,378,2,5,1,"1ad6b08",106,1
"1088",1,0,211,5,35,1,"1ad6b08",107,1
"1098",1,0,283,35,1,1,"1ad6b08",108,1
"1108",1,0,288,1,33,1,"1ad6b08",109,1
"11112",1,1,255,33,24,1,"1ad6b08",110,1
"11210",1,0,301,24,11,1,"1ad6b08",111,1
"1138",0,0,320,11,8,1,"1ad6b08",112,1
"1148",0,0,377,8,16,1,"1ad6b08",113,1
"1158",0,0,69,16,10,1,"1ad6b08",114,1
"1168",0,1,386,10,20,1,"1ad6b08",115,1
"1178",0,0,112,20,34,1,"1ad6b08",116,1
"1188",0,1,302,34,7,1,"1ad6b08",117,1
"1198",0,0,91,7,6,1,"1ad6b08",118,1
"1208",0,1,145,6,25,1,"1ad6b08",119,1
"12111",0,0,244,25,32,1,"1ad6b08",120,1
"1229",0,1,346,32,15,1,"1ad6b08",121,1
"1237",0,1,115,15,29,1,"1ad6b08",122,1
"1247",-1,-1,0,29,21,1,"1ad6b08",123,1
"1257",0,1,512,21,13,1,"1ad6b08",124,1
"1267",0,1,346,13,22,1,"1ad6b08",125,1
"1277",0,1,168,22,17,1,"1ad6b08",126,1
"1287",0,1,323,17,27,1,"1ad6b08",127,1
"1297",0,1,197,27,12,1,"1ad6b08",128,1
"1307",1,1,333,12,18,1,"1ad6b08",129,1
"13111",1,1,201,18,1,1,"1ad6b08",130,1
"1329",1,1,162,1,5,1,"1ad6b08",131,1
"1337",1,0,5,5,26,1,"1ad6b08",132,1
"1347",1,1,1321,26,31,1,"1ad6b08",133,1
"1357",0,0,98,31,28,1,"1ad6b08",134,1
"1367",1,0,122,28,4,1,"1ad6b08",135,1
"1377",0,1,282,4,30,1,"1ad6b08",136,1
"1387",0,1,1267,30,3,1,"1ad6b08",137,1
"1397",0,1,2476,3,19,1,"1ad6b08",138,1
"1407",0,0,687,19,36,1,"1ad6b08",139,1
"14111",1,1,540,36,23,1,"1ad6b08",140,1
"1429",1,0,899,23,14,1,"1ad6b08",141,1
"1437",1,1,790,14,2,1,"1ad6b08",142,1
"1447",-1,-1,0,2,35,1,"1ad6b08",143,1
"1457",0,1,949,35,9,1,"1ad6b08",144,1
"1467",0,1,375,9,36,1,"1ad6b08",145,1
"1477",0,0,355,36,29,1,"1ad6b08",146,1
"1487",1,1,855,29,25,1,"1ad6b08",147,1
"1497",0,0,368,25,35,1,"1ad6b08",148,1
"1507",1,1,404,35,19,1,"1ad6b08",149,1
"15111",1,0,315,19,6,1,"1ad6b08",150,1
"1529",0,0,262,6,15,1,"1ad6b08",151,1
"1537",1,0,354,15,33,1,"1ad6b08",152,1
"1547",-1,-1,0,33,17,1,"1ad6b08",153,1
"1557",0,1,899,17,24,1,"1ad6b08",154,1
"1567",0,1,1217,24,1,1,"1ad6b08",155,1
"1577",-1,-1,0,1,21,1,"1ad6b08",156,1
"1587",0,1,1747,21,7,1,"1ad6b08",157,1
"1597",-1,-1,0,7,8,1,"1ad6b08",158,1
"1607",0,0,353,8,14,1,"1ad6b08",159,1
"16111",1,1,325,14,18,1,"1ad6b08",160,1
"1629",1,1,76,18,4,1,"1ad6b08",161,1
"1637",1,0,389,4,34,1,"1ad6b08",162,1
"1647",0,1,274,34,10,1,"1ad6b08",163,1
"1657",0,1,190,10,30,1,"1ad6b08",164,1
"1667",0,1,117,30,3,1,"1ad6b08",165,1
"1677",0,1,265,3,31,1,"1ad6b08",166,1
"1687",0,1,39,31,2,1,"1ad6b08",167,1
"1697",0,0,490,2,9,1,"1ad6b08",168,1
"1707",1,1,258,9,16,1,"1ad6b08",169,1
"17111",1,0,50,16,27,1,"1ad6b08",170,1
"1729",0,1,316,27,12,1,"1ad6b08",171,1
"1737",0,1,307,12,23,1,"1ad6b08",172,1
"1747",0,0,345,23,28,1,"1ad6b08",173,1
"1757",1,1,329,28,22,1,"1ad6b08",174,1
"1767",0,0,1308,22,20,1,"1ad6b08",175,1
"1777",1,0,2415,20,5,1,"1ad6b08",176,1
"1787",0,1,267,5,26,1,"1ad6b08",177,1
"1797",0,1,180,26,13,1,"1ad6b08",178,1
"1807",0,1,280,13,32,1,"1ad6b08",179,1
"18111",0,1,656,32,11,1,"1ad6b08",180,1
"1829",0,1,164,11,31,1,"1ad6b08",181,1
"1837",0,0,110,31,35,1,"1ad6b08",182,1
"1847",0,1,1161,35,3,1,"1ad6b08",183,1
"1857",0,1,312,3,21,1,"1ad6b08",184,1
"1867",0,0,868,21,36,1,"1ad6b08",185,1
"1877",1,1,292,36,33,1,"1ad6b08",186,1
"1887",0,1,839,33,13,1,"1ad6b08",187,1
"1897",1,1,863,13,12,1,"1ad6b08",188,1
"1907",1,1,333,12,14,1,"1ad6b08",189,1
"19111",0,1,726,14,28,1,"1ad6b08",190,1
"1929",0,1,309,28,15,1,"1ad6b08",191,1
"1937",0,1,301,15,24,1,"1ad6b08",192,1
"1947",0,0,116,24,27,1,"1ad6b08",193,1
"1957",1,1,397,27,26,1,"1ad6b08",194,1
"1967",1,1,304,26,34,1,"1ad6b08",195,1
"1977",1,0,764,34,9,1,"1ad6b08",196,1
"1987",0,0,258,9,2,1,"1ad6b08",197,1
"1997",1,1,267,2,11,1,"1ad6b08",198,1
"2007",1,1,230,11,6,1,"1ad6b08",199,1
"20111",1,1,515,6,17,1,"1ad6b08",200,1
"2029",1,1,309,17,16,1,"1ad6b08",201,1
"2037",1,1,2266,16,5,1,"1ad6b08",202,1
"2047",1,0,251,5,25,1,"1ad6b08",203,1
"2057",1,1,234,25,20,1,"1ad6b08",204,1
"2067",1,1,260,20,30,1,"1ad6b08",205,1
"2077",0,1,1851,30,10,1,"1ad6b08",206,1
"2087",0,1,14,10,32,1,"1ad6b08",207,1
"2097",0,0,18,32,29,1,"1ad6b08",208,1
"2109",1,0,30,29,4,1,"1ad6b08",209,1
"21111",1,0,285,4,23,1,"1ad6b08",210,1
"2129",0,0,314,23,19,1,"1ad6b08",211,1
"2137",0,1,118,19,18,1,"1ad6b08",212,1
"2147",0,0,231,18,8,1,"1ad6b08",213,1
"2157",1,1,298,8,1,1,"1ad6b08",214,1
"2167",1,1,299,1,7,1,"1ad6b08",215,1
"2177",1,0,287,7,22,1,"1ad6b08",216,1
"2187",0,0,2107,22,32,1,"1ad6b08",217,1
"2197",1,1,754,32,30,1,"1ad6b08",218,1
"2207",1,0,267,30,11,1,"1ad6b08",219,1
"22111",0,0,480,11,5,1,"1ad6b08",220,1
"2229",1,1,870,5,12,1,"1ad6b08",221,1
"2237",1,1,256,12,13,1,"1ad6b08",222,1
"2247",1,0,310,13,34,1,"1ad6b08",223,1
"2257",0,0,176,34,22,1,"1ad6b08",224,1
"2267",1,0,312,22,8,1,"1ad6b08",225,1
"2277",-1,-1,0,8,23,1,"1ad6b08",226,1
"2287",0,1,297,23,2,1,"1ad6b08",227,1
"2297",0,1,558,2,25,1,"1ad6b08",228,1
"2307",0,1,694,25,10,1,"1ad6b08",229,1
"23111",0,1,266,10,21,1,"1ad6b08",230,1
"2329",0,1,284,21,16,1,"1ad6b08",231,1
"2337",0,1,65,16,24,1,"1ad6b08",232,1
"2347",0,1,92,24,7,1,"1ad6b08",233,1
"2357",0,1,93,7,33,1,"1ad6b08",234,1
"2367",0,1,162,33,4,1,"1ad6b08",235,1
"2377",0,1,206,4,26,1,"1ad6b08",236,1
"2387",0,0,400,26,19,1,"1ad6b08",237,1
"2397",1,1,198,19,35,1,"1ad6b08",238,1
"2407",1,1,187,35,28,1,"1ad6b08",239,1
"24111",1,0,41,28,18,1,"1ad6b08",240,1
"2429",0,1,86,18,27,1,"1ad6b08",241,1
"2437",0,1,438,27,9,1,"1ad6b08",242,1
"2447",0,0,1883,9,14,1,"1ad6b08",243,1
"2457",1,1,360,14,3,1,"1ad6b08",244,1
"2467",1,1,102,3,15,1,"1ad6b08",245,1
"2477",1,0,362,15,20,1,"1ad6b08",246,1
"2487",0,1,440,20,6,1,"1ad6b08",247,1
"2497",0,0,519,6,1,1,"1ad6b08",248,1
"2507",1,0,672,1,29,1,"1ad6b08",249,1
"25111",1,1,41,29,31,1,"1ad6b08",250,1
"2529",1,1,252,31,36,1,"1ad6b08",251,1
"2537",1,0,248,36,17,1,"1ad6b08",252,1
"2547",0,1,203,17,27,1,"1ad6b08",253,1
"2557",0,1,202,27,3,1,"1ad6b08",254,1
"2567",0,1,498,3,33,1,"1ad6b08",255,1
"2577",-1,-1,0,33,22,1,"1ad6b08",256,1
"2587",0,1,989,22,13,1,"1ad6b08",257,1
"2597",-1,-1,0,13,6,1,"1ad6b08",258,1
"2607",0,1,538,6,35,1,"1ad6b08",259,1
"26111",0,0,111,35,36,1,"1ad6b08",260,1
"2629",1,1,449,36,31,1,"1ad6b08",261,1
"2637",1,1,1883,31,23,1,"1ad6b08",262,1
"2647",1,0,515,23,16,1,"1ad6b08",263,1
"2657",0,1,335,16,24,1,"1ad6b08",264,1
"2667",0,0,153,24,19,1,"1ad6b08",265,1
"2677",1,0,192,19,1,1,"1ad6b08",266,1
"2687",0,1,373,1,26,1,"1ad6b08",267,1
"2697",0,0,344,26,21,1,"1ad6b08",268,1
"2707",0,1,787,21,5,1,"1ad6b08",269,1
"27111",1,1,752,5,9,1,"1ad6b08",270,1
"2729",0,0,327,9,2,1,"1ad6b08",271,1
"2737",1,1,363,2,18,1,"1ad6b08",272,1
"2747",1,1,418,18,11,1,"1ad6b08",273,1
"2757",1,0,91,11,29,1,"1ad6b08",274,1
"2767",0,0,191,29,34,1,"1ad6b08",275,1
"2777",-1,-1,0,34,12,1,"1ad6b08",276,1
"2787",-1,-1,0,12,4,1,"1ad6b08",277,1
"2797",0,1,1208,4,32,1,"1ad6b08",278,1
"2807",0,0,343,32,30,1,"1ad6b08",279,1
"28111",1,0,554,30,10,1,"1ad6b08",280,1
"2829",0,0,957,10,14,1,"1ad6b08",281,1
"2837",1,0,331,14,25,1,"1ad6b08",282,1
"2847",0,1,1025,25,8,1,"1ad6b08",283,1
"2857",0,0,1087,8,15,1,"1ad6b08",284,1
"2867",1,0,266,15,28,1,"1ad6b08",285,1
"2877",0,1,195,28,17,1,"1ad6b08",286,1
"2887",1,1,793,17,7,1,"1ad6b08",287,1
"2897",1,0,1236,7,20,1,"1ad6b08",288,1
"2130",-1,-1,0,0,7,1,"1e1d66e",1,1
"330",1,0,2005,7,34,1,"1e1d66e",2,1
"430",1,0,901,34,16,1,"1e1d66e",3,1
"530",0,1,685,16,21,1,"1e1d66e",4,1
"630",1,1,1361,21,25,1,"1e1d66e",5,1
"730",0,0,580,25,31,1,"1e1d66e",6,1
"830",1,1,1522,31,30,1,"1e1d66e",7,1
"930",0,1,687,30,3,1,"1e1d66e",8,1
"1030",1,1,1436,3,6,1,"1e1d66e",9,1
"1130",1,1,1429,6,15,1,"1e1d66e",10,1
"1230",1,1,979,15,10,1,"1e1d66e",11,1
"1330",1,0,1025,10,26,1,"1e1d66e",12,1
"1430",0,1,823,26,12,1,"1e1d66e",13,1
"1530",0,1,1055,12,28,1,"1e1d66e",14,1
"1630",0,1,757,28,5,1,"1e1d66e",15,1
"1730",0,0,1099,5,17,1,"1e1d66e",16,1
"1830",0,0,695,17,4,1,"1e1d66e",17,1
"1930",1,1,838,4,1,1,"1e1d66e",18,1
"2030",0,1,615,1,33,1,"1e1d66e",19,1
"2138",1,1,612,33,32,1,"1e1d66e",20,1
"2230",1,1,1184,32,19,1,"1e1d66e",21,1
"2330",0,1,787,19,2,1,"1e1d66e",22,1
"2430",0,1,1559,2,23,1,"1e1d66e",23,1
"2530",0,1,903,23,18,1,"1e1d66e",24,1
"2630",1,1,1563,18,13,1,"1e1d66e",25,1
"2730",1,1,570,13,8,1,"1e1d66e",26,1
"2830",0,1,509,8,27,1,"1e1d66e",27,1
"2913",0,0,825,27,36,1,"1e1d66e",28,1
"309",1,1,766,36,22,1,"1e1d66e",29,1
"3113",1,0,751,22,11,1,"1e1d66e",30,1
"3211",0,0,547,11,9,1,"1e1d66e",31,1
"339",0,1,954,9,20,1,"1e1d66e",32,1
"349",1,1,1783,20,24,1,"1e1d66e",33,1
"359",0,1,1317,24,14,1,"1e1d66e",34,1
"369",1,0,762,14,35,1,"1e1d66e",35,1
"379",1,1,1086,35,29,1,"1e1d66e",36,1
"389",0,1,1836,29,7,1,"1e1d66e",37,1
"399",0,1,2345,7,34,1,"1e1d66e",38,1
"409",0,1,654,34,16,1,"1e1d66e",39,1
"4113",0,1,1003,16,21,1,"1e1d66e",40,1
"4211",1,1,676,21,25,1,"1e1d66e",41,1
"439",0,0,541,25,31,1,"1e1d66e",42,1
"449",1,1,1762,31,30,1,"1e1d66e",43,1
"459",0,1,711,30,3,1,"1e1d66e",44,1
"469",1,1,1387,3,6,1,"1e1d66e",45,1
"479",1,1,1212,6,15,1,"1e1d66e",46,1
"489",1,1,1993,15,10,1,"1e1d66e",47,1
"499",0,1,948,10,26,1,"1e1d66e",48,1
"509",0,1,1647,26,12,1,"1e1d66e",49,1
"5113",0,1,412,12,28,1,"1e1d66e",50,1
"5211",0,1,580,28,5,1,"1e1d66e",51,1
"539",1,1,789,5,17,1,"1e1d66e",52,1
"549",1,1,333,17,4,1,"1e1d66e",53,1
"559",1,1,1081,4,1,1,"1e1d66e",54,1
"569",0,1,1732,1,33,1,"1e1d66e",55,1
"579",1,1,1215,33,32,1,"1e1d66e",56,1
"589",1,1,1216,32,19,1,"1e1d66e",57,1
"599",0,1,1031,19,2,1,"1e1d66e",58,1
"609",0,1,978,2,23,1,"1e1d66e",59,1
"6113",0,1,1081,23,18,1,"1e1d66e",60,1
"6211",1,1,1064,18,13,1,"1e1d66e",61,1
"639",1,1,978,13,8,1,"1e1d66e",62,1
"649",0,1,1006,8,27,1,"1e1d66e",63,1
"659",1,1,1656,27,36,1,"1e1d66e",64,1
"669",1,1,2132,36,22,1,"1e1d66e",65,1
"679",0,1,864,22,11,1,"1e1d66e",66,1
"689",1,1,1324,11,9,1,"1e1d66e",67,1
"699",1,0,1399,9,20,1,"1e1d66e",68,1
"709",0,0,1745,20,24,1,"1e1d66e",69,1
"7113",0,1,1457,24,14,1,"1e1d66e",70,1
"7211",0,1,2387,14,35,1,"1e1d66e",71,1
"739",1,1,954,35,29,1,"1e1d66e",72,1
"749",1,1,245,29,22,1,"1e1d66e",73,1
"759",1,0,2340,22,9,1,"1e1d66e",74,1
"769",0,1,1284,9,30,1,"1e1d66e",75,1
"779",0,1,645,30,16,1,"1e1d66e",76,1
"789",0,0,538,16,5,1,"1e1d66e",77,1
"799",1,0,525,5,23,1,"1e1d66e",78,1
"809",-1,-1,0,23,27,1,"1e1d66e",79,1
"8113",0,1,418,27,13,1,"1e1d66e",80,1
"8211",-1,-1,0,13,36,1,"1e1d66e",81,1
"839",1,1,2116,36,25,1,"1e1d66e",82,1
"849",-1,-1,0,25,19,1,"1e1d66e",83,1
"859",0,0,1017,19,28,1,"1e1d66e",84,1
"869",-1,-1,0,28,17,1,"1e1d66e",85,1
"879",-1,-1,0,17,2,1,"1e1d66e",86,1
"889",-1,-1,0,2,10,1,"1e1d66e",87,1
"899",-1,-1,0,10,24,1,"1e1d66e",88,1
"909",1,1,1453,24,21,1,"1e1d66e",89,1
"9113",0,0,2080,21,33,1,"1e1d66e",90,1
"9211",1,1,477,33,34,1,"1e1d66e",91,1
"939",-1,-1,0,34,8,1,"1e1d66e",92,1
"949",1,0,711,8,20,1,"1e1d66e",93,1
"959",0,1,1310,20,11,1,"1e1d66e",94,1
"969",-1,-1,0,11,6,1,"1e1d66e",95,1
"979",1,1,569,6,15,1,"1e1d66e",96,1
"989",0,0,829,15,12,1,"1e1d66e",97,1
"999",0,1,1445,12,26,1,"1e1d66e",98,1
"1009",0,1,1452,26,1,1,"1e1d66e",99,1
"10113",1,1,2014,1,14,1,"1e1d66e",100,1
"10211",1,1,530,14,7,1,"1e1d66e",101,1
"1039",1,1,417,7,4,1,"1e1d66e",102,1
"1049",0,1,1377,4,32,1,"1e1d66e",103,1
"1059",1,1,1203,32,31,1,"1e1d66e",104,1
"1069",1,1,580,31,35,1,"1e1d66e",105,1
"1079",0,1,1301,35,3,1,"1e1d66e",106,1
"1089",-1,-1,0,3,18,1,"1e1d66e",107,1
"1099",-1,-1,0,18,29,1,"1e1d66e",108,1
"1109",-1,-1,0,29,17,1,"1e1d66e",109,1
"11113",1,1,711,17,14,1,"1e1d66e",110,1
"11211",-1,-1,0,14,10,1,"1e1d66e",111,1
"1139",-1,-1,0,10,4,1,"1e1d66e",112,1
"1149",-1,-1,0,4,20,1,"1e1d66e",113,1
"1159",0,0,1593,20,31,1,"1e1d66e",114,1
"1169",-1,-1,0,31,8,1,"1e1d66e",115,1
"1179",-1,-1,0,8,27,1,"1e1d66e",116,1
"1189",0,1,750,27,7,1,"1e1d66e",117,1
"1199",1,1,573,7,5,1,"1e1d66e",118,1
"1209",1,1,636,5,15,1,"1e1d66e",119,1
"12112",0,1,883,15,35,1,"1e1d66e",120,1
"12210",1,1,2189,35,36,1,"1e1d66e",121,1
"1238",0,1,659,36,6,1,"1e1d66e",122,1
"1248",-1,-1,0,6,34,1,"1e1d66e",123,1
"1258",1,1,1556,34,25,1,"1e1d66e",124,1
"1268",-1,-1,0,25,9,1,"1e1d66e",125,1
"1278",0,1,1641,9,33,1,"1e1d66e",126,1
"1288",1,1,758,33,24,1,"1e1d66e",127,1
"1298",-1,-1,0,24,26,1,"1e1d66e",128,1
"1308",0,1,1076,26,18,1,"1e1d66e",129,1
"13112",-1,-1,0,18,29,1,"1e1d66e",130,1
"13210",1,1,1060,29,21,1,"1e1d66e",131,1
"1338",-1,-1,0,21,2,1,"1e1d66e",132,1
"1348",1,1,687,2,16,1,"1e1d66e",133,1
"1358",-1,-1,0,16,11,1,"1e1d66e",134,1
"1368",-1,-1,0,11,32,1,"1e1d66e",135,1
"1378",-1,-1,0,32,28,1,"1e1d66e",136,1
"1388",0,1,630,28,1,1,"1e1d66e",137,1
"1398",1,1,412,1,12,1,"1e1d66e",138,1
"1408",0,1,783,12,30,1,"1e1d66e",139,1
"14112",1,1,370,30,19,1,"1e1d66e",140,1
"14210",0,1,792,19,13,1,"1e1d66e",141,1
"1438",1,1,1039,13,3,1,"1e1d66e",142,1
"1448",-1,-1,0,3,23,1,"1e1d66e",143,1
"1458",1,1,839,23,22,1,"1e1d66e",144,1
"1468",0,1,1872,22,16,1,"1e1d66e",145,1
"1478",-1,-1,0,16,14,1,"1e1d66e",146,1
"1488",0,1,472,14,24,1,"1e1d66e",147,1
"1498",-1,-1,0,24,35,1,"1e1d66e",148,1
"1508",0,1,1336,35,1,1,"1e1d66e",149,1
"15112",-1,-1,0,1,2,1,"1e1d66e",150,1
"15210",1,1,761,2,13,1,"1e1d66e",151,1
"1538",-1,-1,0,13,15,1,"1e1d66e",152,1
"1548",-1,-1,0,15,29,1,"1e1d66e",153,1
"1558",1,0,287,29,3,1,"1e1d66e",154,1
"1568",1,1,814,3,7,1,"1e1d66e",155,1
"1578",0,1,730,7,21,1,"1e1d66e",156,1
"1588",-1,-1,0,21,23,1,"1e1d66e",157,1
"1598",1,1,1885,23,20,1,"1e1d66e",158,1
"1608",-1,-1,0,20,25,1,"1e1d66e",159,1
"16112",1,0,1519,25,5,1,"1e1d66e",160,1
"16210",-1,-1,0,5,27,1,"1e1d66e",161,1
"1638",0,1,1935,27,10,1,"1e1d66e",162,1
"1648",-1,-1,0,10,28,1,"1e1d66e",163,1
"1658",1,0,782,28,18,1,"1e1d66e",164,1
"1668",-1,-1,0,18,6,1,"1e1d66e",165,1
"1678",-1,-1,0,6,12,1,"1e1d66e",166,1
"1688",-1,-1,0,12,32,1,"1e1d66e",167,1
"1698",1,0,561,32,11,1,"1e1d66e",168,1
"1708",0,1,2500,11,33,1,"1e1d66e",169,1
"17112",1,1,811,33,36,1,"1e1d66e",170,1
"17210",0,1,980,36,4,1,"1e1d66e",171,1
"1738",0,1,1303,4,26,1,"1e1d66e",172,1
"1748",1,1,341,26,22,1,"1e1d66e",173,1
"1758",1,1,622,22,34,1,"1e1d66e",174,1
"1768",1,1,467,34,19,1,"1e1d66e",175,1
"1778",-1,-1,0,19,30,1,"1e1d66e",176,1
"1788",1,0,565,30,17,1,"1e1d66e",177,1
"1798",-1,-1,0,17,9,1,"1e1d66e",178,1
"1808",1,0,2259,9,31,1,"1e1d66e",179,1
"18112",0,1,265,31,8,1,"1e1d66e",180,1
"18210",1,1,991,8,10,1,"1e1d66e",181,1
"1838",1,1,343,10,17,1,"1e1d66e",182,1
"1848",1,1,1560,17,5,1,"1e1d66e",183,1
"1858",-1,-1,0,5,25,1,"1e1d66e",184,1
"1868",1,1,769,25,23,1,"1e1d66e",185,1
"1878",-1,-1,0,23,36,1,"1e1d66e",186,1
"1888",0,1,2140,36,12,1,"1e1d66e",187,1
"1898",-1,-1,0,12,6,1,"1e1d66e",188,1
"1908",0,1,188,6,28,1,"1e1d66e",189,1
"19112",-1,-1,0,28,35,1,"1e1d66e",190,1
"19210",1,0,1389,35,9,1,"1e1d66e",191,1
"1938",0,1,2437,9,31,1,"1e1d66e",192,1
"1948",1,0,460,31,13,1,"1e1d66e",193,1
"1958",0,1,243,13,32,1,"1e1d66e",194,1
"1968",1,1,1359,32,20,1,"1e1d66e",195,1
"1978",0,1,1284,20,14,1,"1e1d66e",196,1
"1988",0,1,941,14,21,1,"1e1d66e",197,1
"1998",1,1,1531,21,34,1,"1e1d66e",198,1
"2008",0,1,834,34,18,1,"1e1d66e",199,1
"20112",0,1,311,18,19,1,"1e1d66e",200,1
"20210",1,1,837,19,30,1,"1e1d66e",201,1
