"","keys","accuracy","rt","Fimg","Simg","feature_index","subID","trialNum","run"
"2",-1,-1,0,0,18,1,"18d3da3",1,1
"3",0,1,1400,18,15,1,"18d3da3",2,1
"4",1,0,1000,15,10,1,"18d3da3",3,1
"5",0,1,1100,10,7,1,"18d3da3",4,1
"6",1,1,800,7,7,1,"18d3da3",5,1
"7",0,1,600,7,8,1,"18d3da3",6,1
"8",-1,-1,0,8,8,1,"18d3da3",7,1
"9",-1,-1,0,8,6,1,"18d3da3",8,1
"10",0,1,300,6,14,1,"18d3da3",9,1
"11",0,0,800,14,14,1,"18d3da3",10,1
"12",1,0,600,14,12,1,"18d3da3",11,1
"13",1,0,600,12,4,1,"18d3da3",12,1
"14",1,1,400,4,4,1,"18d3da3",13,1
"15",1,0,1000,4,9,1,"18d3da3",14,1
"16",1,1,500,9,9,1,"18d3da3",15,1
"17",0,1,2400,9,16,1,"18d3da3",16,1
"18",-1,-1,0,16,13,1,"18d3da3",17,1
"19",1,1,1500,13,13,1,"18d3da3",18,1
"20",0,1,1600,13,3,1,"18d3da3",19,1
"21",1,1,1000,3,3,1,"18d3da3",20,1
"22",0,1,1600,3,2,1,"18d3da3",21,1
"23",0,0,1600,2,2,1,"18d3da3",22,1
"24",0,1,900,2,17,1,"18d3da3",23,1
"25",1,1,500,17,17,1,"18d3da3",24,1
"26",0,1,500,17,11,1,"18d3da3",25,1
"27",1,1,600,11,11,1,"18d3da3",26,1
"28",0,1,700,11,1,1,"18d3da3",27,1
"29",0,1,600,1,5,1,"18d3da3",28,1
"30",0,1,600,5,13,1,"18d3da3",29,1
"31",0,1,2000,13,6,1,"18d3da3",30,1
"32",1,0,700,6,7,1,"18d3da3",31,1
"33",1,1,900,7,7,1,"18d3da3",32,1
"34",1,0,1100,7,10,1,"18d3da3",33,1
"35",0,1,800,10,2,1,"18d3da3",34,1
"36",1,1,2400,2,2,1,"18d3da3",35,1
"37",0,1,500,2,16,1,"18d3da3",36,1
"38",0,1,600,16,9,1,"18d3da3",37,1
"39",1,0,300,9,15,1,"18d3da3",38,1
"40",1,0,700,15,11,1,"18d3da3",39,1
"41",0,0,1900,11,11,1,"18d3da3",40,1
"42",1,0,900,11,5,1,"18d3da3",41,1
"43",1,1,300,5,5,1,"18d3da3",42,1
"44",0,1,700,5,17,1,"18d3da3",43,1
"45",1,0,1100,17,12,1,"18d3da3",44,1
"46",-1,-1,0,12,12,1,"18d3da3",45,1
"47",1,0,200,12,18,1,"18d3da3",46,1
"48",0,1,700,18,1,1,"18d3da3",47,1
"49",1,1,800,1,1,1,"18d3da3",48,1
"50",0,1,1100,1,14,1,"18d3da3",49,1
"51",1,1,1000,14,14,1,"18d3da3",50,1
"52",0,1,1100,14,3,1,"18d3da3",51,1
"53",1,0,400,3,4,1,"18d3da3",52,1
"54",1,0,700,4,8,1,"18d3da3",53,1
"55",1,1,400,8,8,1,"18d3da3",54,1
"56",1,0,800,8,15,1,"18d3da3",55,1
"57",-1,-1,0,15,13,1,"18d3da3",56,1
"58",0,1,700,13,2,1,"18d3da3",57,1
"59",1,0,400,2,5,1,"18d3da3",58,1
"60",0,1,600,5,14,1,"18d3da3",59,1
"61",0,0,1000,14,14,1,"18d3da3",60,1
"62",1,0,600,14,9,1,"18d3da3",61,1
"63",1,0,600,9,12,1,"18d3da3",62,1
"64",0,0,600,12,12,1,"18d3da3",63,1
"65",0,1,400,12,4,1,"18d3da3",64,1
"66",1,1,700,4,4,1,"18d3da3",65,1
"67",0,1,500,4,17,1,"18d3da3",66,1
"68",0,0,900,17,17,1,"18d3da3",67,1
"69",1,0,1000,17,16,1,"18d3da3",68,1
"70",1,1,900,16,16,1,"18d3da3",69,1
"71",0,1,400,16,18,1,"18d3da3",70,1
"72",1,1,500,18,18,1,"18d3da3",71,1
"73",0,1,500,18,8,1,"18d3da3",72,1
"74",1,1,700,8,8,1,"18d3da3",73,1
"75",0,1,600,8,6,1,"18d3da3",74,1
"76",1,1,500,6,6,1,"18d3da3",75,1
"77",1,0,600,6,10,1,"18d3da3",76,1
"78",1,0,400,10,3,1,"18d3da3",77,1
"79",1,1,500,3,3,1,"18d3da3",78,1
"80",0,1,900,3,11,1,"18d3da3",79,1
"81",0,0,700,11,11,1,"18d3da3",80,1
"82",1,0,600,11,1,1,"18d3da3",81,1
"83",0,1,600,1,7,1,"18d3da3",82,1
"84",0,1,700,7,14,1,"18d3da3",83,1
"85",1,1,400,14,14,1,"18d3da3",84,1
"86",0,1,600,14,8,1,"18d3da3",85,1
"87",0,1,400,8,16,1,"18d3da3",86,1
"88",1,1,500,16,16,1,"18d3da3",87,1
"89",1,0,500,16,6,1,"18d3da3",88,1
"90",1,1,300,6,6,1,"18d3da3",89,1
"91",0,1,600,6,18,1,"18d3da3",90,1
"92",0,1,600,18,12,1,"18d3da3",91,1
"93",0,1,500,12,17,1,"18d3da3",92,1
"94",0,1,700,17,15,1,"18d3da3",93,1
"95",1,1,700,15,15,1,"18d3da3",94,1
"96",0,1,600,15,5,1,"18d3da3",95,1
"97",0,1,900,5,3,1,"18d3da3",96,1
"98",0,1,500,3,1,1,"18d3da3",97,1
"99",1,1,500,1,1,1,"18d3da3",98,1
"100",0,1,500,1,13,1,"18d3da3",99,1
"101",1,1,400,13,13,1,"18d3da3",100,1
"102",1,0,600,13,4,1,"18d3da3",101,1
"103",1,0,400,4,9,1,"18d3da3",102,1
"104",1,1,600,9,9,1,"18d3da3",103,1
"105",0,1,500,9,7,1,"18d3da3",104,1
"106",1,1,500,7,7,1,"18d3da3",105,1
"107",0,1,800,7,11,1,"18d3da3",106,1
"108",1,1,700,11,11,1,"18d3da3",107,1
"109",0,1,600,11,2,1,"18d3da3",108,1
"110",0,0,1300,2,2,1,"18d3da3",109,1
"111",0,1,700,2,10,1,"18d3da3",110,1
"112",0,0,600,10,10,1,"18d3da3",111,1
"113",1,0,600,10,13,1,"18d3da3",112,1
"114",0,0,1000,13,13,1,"18d3da3",113,1
"115",1,0,1600,13,1,1,"18d3da3",114,1
"116",0,1,1600,1,7,1,"18d3da3",115,1
"117",1,0,1100,7,5,1,"18d3da3",116,1
"118",1,1,1100,5,5,1,"18d3da3",117,1
"119",0,1,600,5,8,1,"18d3da3",118,1
"120",1,1,700,8,8,1,"18d3da3",119,1
"121",1,0,1800,8,2,1,"18d3da3",120,1
"122",0,1,1500,2,12,1,"18d3da3",121,1
"123",0,1,1700,12,15,1,"18d3da3",122,1
"124",1,1,600,15,15,1,"18d3da3",123,1
"125",0,1,600,15,16,1,"18d3da3",124,1
"126",1,1,600,16,16,1,"18d3da3",125,1
"127",0,1,700,16,18,1,"18d3da3",126,1
"128",1,0,1100,18,10,1,"18d3da3",127,1
"129",1,0,1500,10,4,1,"18d3da3",128,1
"130",0,1,700,4,3,1,"18d3da3",129,1
"131",1,0,500,3,17,1,"18d3da3",130,1
"132",0,1,600,17,11,1,"18d3da3",131,1
"133",1,1,700,11,11,1,"18d3da3",132,1
"134",0,1,400,11,6,1,"18d3da3",133,1
"135",1,0,1100,6,14,1,"18d3da3",134,1
"136",1,1,500,14,14,1,"18d3da3",135,1
"137",0,1,500,14,9,1,"18d3da3",136,1
"138",0,0,600,9,9,1,"18d3da3",137,1
"139",0,1,600,9,17,1,"18d3da3",138,1
"140",1,0,500,17,3,1,"18d3da3",139,1
"141",0,1,600,3,4,1,"18d3da3",140,1
"142",1,1,600,4,4,1,"18d3da3",141,1
"143",1,0,400,4,1,1,"18d3da3",142,1
"144",0,1,600,1,12,1,"18d3da3",143,1
"145",0,0,700,12,12,1,"18d3da3",144,1
"146",0,1,700,12,16,1,"18d3da3",145,1
"147",1,1,1400,16,16,1,"18d3da3",146,1
"148",-1,-1,0,16,2,1,"18d3da3",147,1
"149",1,1,1500,2,2,1,"18d3da3",148,1
"150",0,1,600,2,18,1,"18d3da3",149,1
"151",1,1,500,18,18,1,"18d3da3",150,1
"152",0,1,400,18,13,1,"18d3da3",151,1
"153",0,0,500,13,13,1,"18d3da3",152,1
"154",0,1,400,13,8,1,"18d3da3",153,1
"155",0,1,600,8,6,1,"18d3da3",154,1
"156",1,1,500,6,6,1,"18d3da3",155,1
"157",0,1,700,6,14,1,"18d3da3",156,1
"158",0,1,400,14,11,1,"18d3da3",157,1
"159",0,1,500,11,5,1,"18d3da3",158,1
"160",0,0,1800,5,5,1,"18d3da3",159,1
"161",0,1,800,5,9,1,"18d3da3",160,1
"162",1,1,600,9,9,1,"18d3da3",161,1
"163",0,1,400,9,10,1,"18d3da3",162,1
"164",1,1,500,10,10,1,"18d3da3",163,1
"165",1,0,2100,10,15,1,"18d3da3",164,1
"166",0,0,500,15,15,1,"18d3da3",165,1
"167",1,0,600,15,7,1,"18d3da3",166,1
"168",0,1,400,7,6,1,"18d3da3",167,1
"169",1,1,700,6,6,1,"18d3da3",168,1
"170",0,1,600,6,13,1,"18d3da3",169,1
"171",0,1,500,13,17,1,"18d3da3",170,1
"172",1,1,700,17,17,1,"18d3da3",171,1
"173",1,0,1200,17,14,1,"18d3da3",172,1
"174",1,1,900,14,14,1,"18d3da3",173,1
"175",0,1,1100,14,18,1,"18d3da3",174,1
"176",0,1,2200,18,2,1,"18d3da3",175,1
"177",0,1,1500,2,10,1,"18d3da3",176,1
"178",1,1,1400,10,10,1,"18d3da3",177,1
"179",-1,-1,0,10,15,1,"18d3da3",178,1
"180",0,0,2500,15,15,1,"18d3da3",179,1
"181",1,0,1000,15,8,1,"18d3da3",180,1
"182",1,1,600,8,8,1,"18d3da3",181,1
"183",0,1,800,8,12,1,"18d3da3",182,1
"184",0,1,500,12,4,1,"18d3da3",183,1
"185",1,1,700,4,4,1,"18d3da3",184,1
"186",0,1,500,4,3,1,"18d3da3",185,1
"187",1,1,500,3,3,1,"18d3da3",186,1
"188",-1,0,1600,3,16,1,"18d3da3",187,1
"189",1,1,1000,16,16,1,"18d3da3",188,1
"190",0,1,700,16,11,1,"18d3da3",189,1
"191",1,0,600,11,7,1,"18d3da3",190,1
"192",1,1,500,7,7,1,"18d3da3",191,1
"193",0,1,700,7,1,1,"18d3da3",192,1
"194",1,0,600,1,9,1,"18d3da3",193,1
"195",1,1,600,9,9,1,"18d3da3",194,1
"196",0,1,400,9,5,1,"18d3da3",195,1
"197",0,1,1200,5,15,1,"18d3da3",196,1
"198",0,1,600,15,10,1,"18d3da3",197,1
"199",0,1,1600,10,9,1,"18d3da3",198,1
"200",1,1,1400,9,9,1,"18d3da3",199,1
"201",1,0,1300,9,4,1,"18d3da3",200,1
"202",1,1,800,4,4,1,"18d3da3",201,1
"203",0,1,1100,4,16,1,"18d3da3",202,1
"204",0,1,1600,16,12,1,"18d3da3",203,1
"205",0,0,2300,12,12,1,"18d3da3",204,1
"206",-1,-1,0,12,11,1,"18d3da3",205,1
"207",1,1,700,11,11,1,"18d3da3",206,1
"208",0,1,2200,11,3,1,"18d3da3",207,1
"209",-1,-1,0,3,6,1,"18d3da3",208,1
"210",1,1,500,6,6,1,"18d3da3",209,1
"211",0,1,700,6,13,1,"18d3da3",210,1
"212",1,1,500,13,13,1,"18d3da3",211,1
"213",-1,0,1000,13,1,1,"18d3da3",212,1
"214",1,1,600,1,1,1,"18d3da3",213,1
"215",1,0,700,1,7,1,"18d3da3",214,1
"216",1,1,500,7,7,1,"18d3da3",215,1
"217",0,1,800,7,18,1,"18d3da3",216,1
"218",0,0,1600,18,18,1,"18d3da3",217,1
"219",0,1,1500,18,2,1,"18d3da3",218,1
"220",1,1,800,2,2,1,"18d3da3",219,1
"221",0,1,500,2,5,1,"18d3da3",220,1
"222",0,1,1300,5,17,1,"18d3da3",221,1
"223",0,1,900,17,8,1,"18d3da3",222,1
"224",1,1,1200,8,8,1,"18d3da3",223,1
"225",0,1,1800,8,14,1,"18d3da3",224,1
"226",1,1,900,14,14,1,"18d3da3",225,1
"227",0,1,900,14,3,1,"18d3da3",226,1
"228",1,1,1300,3,3,1,"18d3da3",227,1
"229",1,0,1600,3,16,1,"18d3da3",228,1
"230",1,1,1000,16,16,1,"18d3da3",229,1
"231",0,1,800,16,10,1,"18d3da3",230,1
"232",0,1,800,10,1,1,"18d3da3",231,1
"233",1,1,1100,1,1,1,"18d3da3",232,1
"234",1,0,600,1,2,1,"18d3da3",233,1
"235",0,1,1300,2,6,1,"18d3da3",234,1
"236",0,1,1400,6,5,1,"18d3da3",235,1
"237",1,1,2000,5,5,1,"18d3da3",236,1
"238",0,1,2000,5,8,1,"18d3da3",237,1
"239",1,1,2200,8,8,1,"18d3da3",238,1
"240",0,1,2000,8,12,1,"18d3da3",239,1
"241",-1,-1,0,12,14,1,"18d3da3",240,1
"242",0,1,1000,14,9,1,"18d3da3",241,1
"243",1,1,600,9,9,1,"18d3da3",242,1
"244",0,1,500,9,17,1,"18d3da3",243,1
"245",0,1,700,17,18,1,"18d3da3",244,1
"246",1,1,700,18,18,1,"18d3da3",245,1
"247",0,1,400,18,13,1,"18d3da3",246,1
"248",1,1,400,13,13,1,"18d3da3",247,1
"249",0,1,600,13,7,1,"18d3da3",248,1
"250",1,1,500,7,7,1,"18d3da3",249,1
"251",1,0,500,7,15,1,"18d3da3",250,1
"252",0,1,700,15,4,1,"18d3da3",251,1
"253",0,1,600,4,11,1,"18d3da3",252,1
"254",1,1,400,11,11,1,"18d3da3",253,1
"255",0,1,300,11,17,1,"18d3da3",254,1
"256",0,1,500,17,4,1,"18d3da3",255,1
"257",1,1,600,4,4,1,"18d3da3",256,1
"258",0,1,400,4,10,1,"18d3da3",257,1
"259",1,1,500,10,10,1,"18d3da3",258,1
"260",0,1,500,10,6,1,"18d3da3",259,1
"261",0,0,1100,6,6,1,"18d3da3",260,1
"262",1,0,1100,6,13,1,"18d3da3",261,1
"263",0,1,600,13,2,1,"18d3da3",262,1
"264",0,1,600,2,12,1,"18d3da3",263,1
"265",0,1,700,12,18,1,"18d3da3",264,1
"266",0,1,700,18,8,1,"18d3da3",265,1
"267",0,1,500,8,16,1,"18d3da3",266,1
"268",1,1,600,16,16,1,"18d3da3",267,1
"269",0,1,500,16,5,1,"18d3da3",268,1
"270",0,1,900,5,11,1,"18d3da3",269,1
"271",1,1,600,11,11,1,"18d3da3",270,1
"272",0,1,500,11,3,1,"18d3da3",271,1
"273",0,1,500,3,1,1,"18d3da3",272,1
"274",1,0,700,1,9,1,"18d3da3",273,1
"275",1,0,100,9,15,1,"18d3da3",274,1
"276",0,0,600,15,15,1,"18d3da3",275,1
"277",1,0,900,15,14,1,"18d3da3",276,1
"278",0,1,800,14,7,1,"18d3da3",277,1
"279",-1,-1,0,0,13,1,"9e5f933",1,1
"310",1,0,716,13,1,1,"9e5f933",2,1
"410",0,1,826,1,8,1,"9e5f933",3,1
"510",1,1,612,8,8,1,"9e5f933",4,1
"610",0,1,778,8,16,1,"9e5f933",5,1
"710",1,0,782,16,15,1,"9e5f933",6,1
"810",0,1,433,15,12,1,"9e5f933",7,1
"910",1,0,567,12,18,1,"9e5f933",8,1
"1010",1,1,704,18,18,1,"9e5f933",9,1
"1110",0,1,711,18,5,1,"9e5f933",10,1
"1210",0,1,490,5,9,1,"9e5f933",11,1
"1310",1,1,823,9,9,1,"9e5f933",12,1
"1410",0,1,729,9,3,1,"9e5f933",13,1
"1510",0,1,766,3,6,1,"9e5f933",14,1
"1610",1,0,550,6,17,1,"9e5f933",15,1
"1710",1,1,650,17,17,1,"9e5f933",16,1
"1810",1,0,625,17,14,1,"9e5f933",17,1
"1910",0,1,606,14,7,1,"9e5f933",18,1
"2010",0,1,514,7,11,1,"9e5f933",19,1
"2110",0,1,424,11,10,1,"9e5f933",20,1
"2210",0,1,618,10,4,1,"9e5f933",21,1
"2310",0,1,818,4,2,1,"9e5f933",22,1
"2410",1,1,501,2,2,1,"9e5f933",23,1
"2510",0,1,575,2,16,1,"9e5f933",24,1
"2610",1,1,552,16,16,1,"9e5f933",25,1
"2710",1,0,558,16,14,1,"9e5f933",26,1
"281",1,0,471,14,3,1,"9e5f933",27,1
"291",1,1,704,3,3,1,"9e5f933",28,1
"301",0,1,454,3,1,1,"9e5f933",29,1
"311",1,0,427,1,2,1,"9e5f933",30,1
"321",0,1,753,2,7,1,"9e5f933",31,1
"331",0,1,473,7,12,1,"9e5f933",32,1
"341",0,1,545,12,13,1,"9e5f933",33,1
"351",1,0,518,13,15,1,"9e5f933",34,1
"361",1,1,778,15,15,1,"9e5f933",35,1
"371",0,1,526,15,11,1,"9e5f933",36,1
"381",1,1,691,11,11,1,"9e5f933",37,1
"391",1,0,542,11,9,1,"9e5f933",38,1
"401",0,1,610,9,5,1,"9e5f933",39,1
"411",0,1,519,5,10,1,"9e5f933",40,1
"421",0,1,526,10,8,1,"9e5f933",41,1
"431",1,0,532,8,18,1,"9e5f933",42,1
"441",0,0,539,18,18,1,"9e5f933",43,1
"451",0,1,391,18,6,1,"9e5f933",44,1
"461",1,1,558,6,6,1,"9e5f933",45,1
"471",0,1,467,6,4,1,"9e5f933",46,1
"481",1,0,470,4,17,1,"9e5f933",47,1
"491",0,1,580,17,14,1,"9e5f933",48,1
"501",0,1,394,14,12,1,"9e5f933",49,1
"511",1,0,566,12,15,1,"9e5f933",50,1
"521",1,0,604,15,9,1,"9e5f933",51,1
"531",0,0,445,9,9,1,"9e5f933",52,1
"541",0,1,518,9,8,1,"9e5f933",53,1
"551",1,1,553,8,8,1,"9e5f933",54,1
"561",0,1,562,8,5,1,"9e5f933",55,1
"571",1,1,673,5,5,1,"9e5f933",56,1
"581",0,1,619,5,3,1,"9e5f933",57,1
"591",1,0,721,3,17,1,"9e5f933",58,1
"601",0,1,600,17,11,1,"9e5f933",59,1
"611",1,0,545,11,7,1,"9e5f933",60,1
"621",1,1,489,7,7,1,"9e5f933",61,1
"631",0,1,494,7,1,1,"9e5f933",62,1
"641",1,1,501,1,1,1,"9e5f933",63,1
"651",1,0,511,1,13,1,"9e5f933",64,1
"661",0,1,675,13,4,1,"9e5f933",65,1
"671",0,1,593,4,10,1,"9e5f933",66,1
"681",0,0,853,10,10,1,"9e5f933",67,1
"691",0,1,730,10,18,1,"9e5f933",68,1
"701",0,0,638,18,18,1,"9e5f933",69,1
"711",1,0,484,18,2,1,"9e5f933",70,1
"721",0,1,590,2,6,1,"9e5f933",71,1
"731",0,1,594,6,16,1,"9e5f933",72,1
"741",0,1,668,16,14,1,"9e5f933",73,1
"751",0,0,587,14,14,1,"9e5f933",74,1
"761",1,0,525,14,2,1,"9e5f933",75,1
"771",0,1,500,2,3,1,"9e5f933",76,1
"781",0,1,638,3,9,1,"9e5f933",77,1
"791",1,0,482,9,17,1,"9e5f933",78,1
"801",0,1,618,17,6,1,"9e5f933",79,1
"811",0,1,623,6,11,1,"9e5f933",80,1
"821",1,1,544,11,11,1,"9e5f933",81,1
"831",0,1,673,11,12,1,"9e5f933",82,1
"841",0,1,746,12,1,1,"9e5f933",83,1
"851",0,1,654,1,10,1,"9e5f933",84,1
"861",1,1,626,10,10,1,"9e5f933",85,1
"871",0,1,631,10,18,1,"9e5f933",86,1
"881",0,1,703,18,8,1,"9e5f933",87,1
"891",0,0,778,8,8,1,"9e5f933",88,1
"901",0,1,846,8,5,1,"9e5f933",89,1
"911",0,0,1041,5,5,1,"9e5f933",90,1
"921",0,1,670,5,4,1,"9e5f933",91,1
"931",1,1,511,4,4,1,"9e5f933",92,1
"941",1,0,526,4,13,1,"9e5f933",93,1
"951",0,0,497,13,13,1,"9e5f933",94,1
"961",0,1,503,13,15,1,"9e5f933",95,1
"971",0,1,451,15,7,1,"9e5f933",96,1
"981",1,0,648,7,16,1,"9e5f933",97,1
"991",0,0,662,16,16,1,"9e5f933",98,1
"1001",0,1,540,16,9,1,"9e5f933",99,1
"1011",0,0,542,9,9,1,"9e5f933",100,1
"1021",0,1,454,9,4,1,"9e5f933",101,1
"1031",0,1,814,4,8,1,"9e5f933",102,1
"1041",1,1,501,8,8,1,"9e5f933",103,1
"1051",0,1,1028,8,18,1,"9e5f933",104,1
"1061",0,0,391,18,18,1,"9e5f933",105,1
"1071",1,0,524,18,14,1,"9e5f933",106,1
"1081",0,0,466,14,14,1,"9e5f933",107,1
"1091",0,1,406,14,2,1,"9e5f933",108,1
"1101",0,1,634,2,17,1,"9e5f933",109,1
"1111",0,0,683,17,17,1,"9e5f933",110,1
"1121",0,1,653,17,7,1,"9e5f933",111,1
"1131",0,0,530,7,7,1,"9e5f933",112,1
"1141",0,1,663,7,12,1,"9e5f933",113,1
"1151",1,0,381,12,16,1,"9e5f933",114,1
"1161",1,1,580,16,16,1,"9e5f933",115,1
"1171",0,1,465,16,3,1,"9e5f933",116,1
"1181",0,1,407,3,10,1,"9e5f933",117,1
"1191",1,1,282,10,10,1,"9e5f933",118,1
"1201",0,1,318,10,11,1,"9e5f933",119,1
"1211",0,1,807,11,1,1,"9e5f933",120,1
"1221",1,0,493,1,15,1,"9e5f933",121,1
"1231",0,0,542,15,15,1,"9e5f933",122,1
"1241",0,1,452,15,6,1,"9e5f933",123,1
"1251",1,0,522,6,5,1,"9e5f933",124,1
"1261",1,1,785,5,5,1,"9e5f933",125,1
"1271",0,1,535,5,13,1,"9e5f933",126,1
"1281",1,1,703,13,13,1,"9e5f933",127,1
"1291",0,1,618,13,7,1,"9e5f933",128,1
"1301",0,0,494,7,7,1,"9e5f933",129,1
"1311",1,0,530,7,18,1,"9e5f933",130,1
"1321",0,0,663,18,18,1,"9e5f933",131,1
"1331",1,0,989,18,5,1,"9e5f933",132,1
"1341",0,1,458,5,4,1,"9e5f933",133,1
"1351",0,1,362,4,9,1,"9e5f933",134,1
"1361",0,0,271,9,9,1,"9e5f933",135,1
"1371",1,0,1986,9,1,1,"9e5f933",136,1
"1381",0,1,1310,1,13,1,"9e5f933",137,1
"1391",-1,-1,0,13,13,1,"9e5f933",138,1
"1401",0,1,1300,13,16,1,"9e5f933",139,1
"1411",0,0,2435,16,16,1,"9e5f933",140,1
"1421",-1,-1,0,16,12,1,"9e5f933",141,1
"1431",-1,-1,0,12,10,1,"9e5f933",142,1
"1441",0,1,843,10,2,1,"9e5f933",143,1
"1451",1,1,462,2,2,1,"9e5f933",144,1
"1461",1,0,2077,2,8,1,"9e5f933",145,1
"1471",-1,-1,0,8,8,1,"9e5f933",146,1
"1481",0,1,227,8,14,1,"9e5f933",147,1
"1491",0,0,307,14,14,1,"9e5f933",148,1
"1501",1,0,310,14,6,1,"9e5f933",149,1
"1511",-1,-1,0,6,11,1,"9e5f933",150,1
"1521",0,0,2410,11,11,1,"9e5f933",151,1
"1531",0,1,750,11,17,1,"9e5f933",152,1
"1541",0,1,170,17,3,1,"9e5f933",153,1
"1551",0,1,1237,3,15,1,"9e5f933",154,1
"1561",0,0,635,15,15,1,"9e5f933",155,1
"1571",1,0,452,15,1,1,"9e5f933",156,1
"1581",1,0,394,1,13,1,"9e5f933",157,1
"1591",1,0,562,13,11,1,"9e5f933",158,1
"1601",1,1,405,11,11,1,"9e5f933",159,1
"1611",0,1,707,11,8,1,"9e5f933",160,1
"1621",0,1,684,8,17,1,"9e5f933",161,1
"1631",0,0,627,17,17,1,"9e5f933",162,1
"1641",0,1,443,17,3,1,"9e5f933",163,1
"1651",1,0,577,3,7,1,"9e5f933",164,1
"1661",0,1,455,7,12,1,"9e5f933",165,1
"1671",0,1,496,12,10,1,"9e5f933",166,1
"1681",1,1,565,10,10,1,"9e5f933",167,1
"1691",0,1,517,10,2,1,"9e5f933",168,1
"1701",1,0,463,2,18,1,"9e5f933",169,1
"1711",0,1,440,18,4,1,"9e5f933",170,1
"1721",0,1,345,4,9,1,"9e5f933",171,1
"1731",0,0,322,9,9,1,"9e5f933",172,1
"1741",1,0,490,9,6,1,"9e5f933",173,1
"1751",0,1,340,6,5,1,"9e5f933",174,1
"1761",0,1,478,5,15,1,"9e5f933",175,1
"1771",0,1,517,15,16,1,"9e5f933",176,1
"1781",0,1,656,16,14,1,"9e5f933",177,1
"1791",0,0,787,14,14,1,"9e5f933",178,1
"1801",0,1,666,14,7,1,"9e5f933",179,1
"1811",1,1,934,7,7,1,"9e5f933",180,1
"1821",0,1,557,7,11,1,"9e5f933",181,1
"1831",0,1,599,11,16,1,"9e5f933",182,1
"1841",0,1,604,16,2,1,"9e5f933",183,1
"1851",0,0,578,2,2,1,"9e5f933",184,1
"1861",0,1,556,2,3,1,"9e5f933",185,1
"1871",1,0,729,3,9,1,"9e5f933",186,1
"1881",1,0,645,9,15,1,"9e5f933",187,1
"1891",0,0,778,15,15,1,"9e5f933",188,1
"1901",0,1,973,15,1,1,"9e5f933",189,1
"1911",0,0,628,1,1,1,"9e5f933",190,1
"1921",0,1,601,1,17,1,"9e5f933",191,1
"1931",1,0,543,17,6,1,"9e5f933",192,1
"1941",0,0,361,6,6,1,"9e5f933",193,1
"1951",0,1,624,6,8,1,"9e5f933",194,1
"1961",0,1,663,8,14,1,"9e5f933",195,1
"1971",1,1,475,14,14,1,"9e5f933",196,1
"1981",0,1,738,14,18,1,"9e5f933",197,1
"1991",0,1,621,18,5,1,"9e5f933",198,1
"2001",0,0,723,5,5,1,"9e5f933",199,1
"2011",0,1,1275,5,4,1,"9e5f933",200,1
"2021",1,1,1059,4,4,1,"9e5f933",201,1
"2031",0,1,704,4,10,1,"9e5f933",202,1
"2041",0,1,1294,10,13,1,"9e5f933",203,1
"2051",0,1,1051,13,12,1,"9e5f933",204,1
"2061",1,0,345,12,3,1,"9e5f933",205,1
"2071",0,1,1282,3,5,1,"9e5f933",206,1
"2081",0,1,428,5,7,1,"9e5f933",207,1
"2091",1,1,369,7,7,1,"9e5f933",208,1
"2101",0,1,187,7,10,1,"9e5f933",209,1
"2111",0,0,446,10,10,1,"9e5f933",210,1
"2121",1,0,745,10,14,1,"9e5f933",211,1
"2131",1,1,695,14,14,1,"9e5f933",212,1
"2141",0,1,703,14,8,1,"9e5f933",213,1
"2151",1,1,737,8,8,1,"9e5f933",214,1
"2161",1,0,555,8,9,1,"9e5f933",215,1
"2171",0,0,722,9,9,1,"9e5f933",216,1
"2181",0,1,632,9,11,1,"9e5f933",217,1
"2191",0,0,541,11,11,1,"9e5f933",218,1
"2201",0,1,547,11,18,1,"9e5f933",219,1
"2211",0,0,753,18,18,1,"9e5f933",220,1
"2221",1,0,601,18,2,1,"9e5f933",221,1
"2231",0,1,544,2,4,1,"9e5f933",222,1
"2241",0,0,455,4,4,1,"9e5f933",223,1
"2251",1,0,527,4,12,1,"9e5f933",224,1
"2261",0,1,630,12,17,1,"9e5f933",225,1
"2271",1,0,667,17,6,1,"9e5f933",226,1
"2281",0,1,610,6,13,1,"9e5f933",227,1
"2291",0,0,519,13,13,1,"9e5f933",228,1
"2301",0,1,590,13,15,1,"9e5f933",229,1
"2311",0,0,565,15,15,1,"9e5f933",230,1
"2321",1,0,452,15,1,1,"9e5f933",231,1
"2331",0,1,362,1,16,1,"9e5f933",232,1
"2341",0,0,946,16,16,1,"9e5f933",233,1
"2351",1,0,602,16,1,1,"9e5f933",234,1
"2361",0,0,385,1,1,1,"9e5f933",235,1
"2371",0,1,298,1,9,1,"9e5f933",236,1
"2381",1,1,527,9,9,1,"9e5f933",237,1
"2391",0,1,306,9,11,1,"9e5f933",238,1
"2401",0,1,540,11,17,1,"9e5f933",239,1
"2411",0,1,644,17,4,1,"9e5f933",240,1
"2421",0,0,881,4,4,1,"9e5f933",241,1
"2431",1,0,566,4,12,1,"9e5f933",242,1
"2441",0,1,606,12,2,1,"9e5f933",243,1
"2451",0,0,549,2,2,1,"9e5f933",244,1
"2461",1,0,715,2,7,1,"9e5f933",245,1
"2471",0,1,562,7,5,1,"9e5f933",246,1
"2481",0,1,475,5,14,1,"9e5f933",247,1
"2491",0,0,323,14,14,1,"9e5f933",248,1
"2501",0,1,458,14,8,1,"9e5f933",249,1
"2511",1,1,307,8,8,1,"9e5f933",250,1
"2521",0,1,377,8,3,1,"9e5f933",251,1
"2531",0,0,218,3,3,1,"9e5f933",252,1
"2541",1,0,322,3,6,1,"9e5f933",253,1
"2551",1,1,563,6,6,1,"9e5f933",254,1
"2561",1,0,376,6,10,1,"9e5f933",255,1
"2571",1,1,609,10,10,1,"9e5f933",256,1
"2581",0,1,646,10,13,1,"9e5f933",257,1
"2591",1,1,718,13,13,1,"9e5f933",258,1
"2601",0,1,764,13,18,1,"9e5f933",259,1
"2611",-1,-1,0,18,18,1,"9e5f933",260,1
"2621",0,1,458,18,16,1,"9e5f933",261,1
"2631",0,0,337,16,16,1,"9e5f933",262,1
"2641",1,0,662,16,15,1,"9e5f933",263,1
"280",-1,-1,0,0,17,1,"173d9d9",1,1
"312",-1,0,1020,17,5,1,"173d9d9",2,1
"412",-1,-1,0,5,2,1,"173d9d9",3,1
"512",0,1,1152,2,18,1,"173d9d9",4,1
"612",0,1,1106,18,15,1,"173d9d9",5,1
"712",1,1,1243,15,15,1,"173d9d9",6,1
"812",0,1,918,15,12,1,"173d9d9",7,1
"912",-1,-1,0,12,12,1,"173d9d9",8,1
"1012",0,1,801,12,7,1,"173d9d9",9,1
"1112",1,1,1029,7,7,1,"173d9d9",10,1
"1212",0,1,1214,7,14,1,"173d9d9",11,1
"1312",1,1,832,14,14,1,"173d9d9",12,1
"1412",0,1,794,14,11,1,"173d9d9",13,1
"1512",0,1,1372,11,10,1,"173d9d9",14,1
"1612",1,1,885,10,10,1,"173d9d9",15,1
"1712",0,1,839,10,3,1,"173d9d9",16,1
"1812",1,1,905,3,3,1,"173d9d9",17,1
"1912",0,1,844,3,1,1,"173d9d9",18,1
"2012",0,1,1325,1,4,1,"173d9d9",19,1
"2112",0,0,1391,4,4,1,"173d9d9",20,1
"2212",1,0,744,4,9,1,"173d9d9",21,1
"2312",1,1,627,9,9,1,"173d9d9",22,1
"2412",0,1,731,9,16,1,"173d9d9",23,1
"2512",1,1,541,16,16,1,"173d9d9",24,1
"2612",0,1,600,16,13,1,"173d9d9",25,1
"2711",1,1,786,13,13,1,"173d9d9",26,1
"282",0,1,539,13,8,1,"173d9d9",27,1
"292",0,1,702,8,6,1,"173d9d9",28,1
"302",0,1,704,6,5,1,"173d9d9",29,1
"313",1,1,576,5,5,1,"173d9d9",30,1
"322",0,1,594,5,3,1,"173d9d9",31,1
"332",0,0,1205,3,3,1,"173d9d9",32,1
"342",0,1,1015,3,13,1,"173d9d9",33,1
"352",1,1,832,13,13,1,"173d9d9",34,1
"362",1,0,778,13,9,1,"173d9d9",35,1
"372",0,1,484,9,16,1,"173d9d9",36,1
"382",0,1,622,16,1,1,"173d9d9",37,1
"392",1,1,544,1,1,1,"173d9d9",38,1
"402",0,1,594,1,17,1,"173d9d9",39,1
"413",1,1,947,17,17,1,"173d9d9",40,1
"422",0,1,581,17,4,1,"173d9d9",41,1
"432",1,1,726,4,4,1,"173d9d9",42,1
"442",0,1,1281,4,2,1,"173d9d9",43,1
"452",0,1,994,2,18,1,"173d9d9",44,1
"462",0,1,1628,18,6,1,"173d9d9",45,1
"472",1,0,750,6,14,1,"173d9d9",46,1
"482",1,0,848,14,15,1,"173d9d9",47,1
"492",1,0,794,15,10,1,"173d9d9",48,1
"502",0,1,588,10,12,1,"173d9d9",49,1
"513",1,1,933,12,12,1,"173d9d9",50,1
"522",0,1,495,12,7,1,"173d9d9",51,1
"532",0,1,553,7,8,1,"173d9d9",52,1
"542",1,1,643,8,8,1,"173d9d9",53,1
"552",0,1,845,8,11,1,"173d9d9",54,1
"562",1,0,769,11,8,1,"173d9d9",55,1
"572",1,1,560,8,8,1,"173d9d9",56,1
"582",0,1,579,8,1,1,"173d9d9",57,1
"592",1,1,644,1,1,1,"173d9d9",58,1
"602",0,1,733,1,13,1,"173d9d9",59,1
"613",1,1,928,13,13,1,"173d9d9",60,1
"622",1,0,585,13,9,1,"173d9d9",61,1
"632",1,1,739,9,9,1,"173d9d9",62,1
"642",0,1,365,9,5,1,"173d9d9",63,1
"652",0,1,591,5,14,1,"173d9d9",64,1
"662",0,1,1064,14,10,1,"173d9d9",65,1
"672",1,1,843,10,10,1,"173d9d9",66,1
"682",0,1,436,10,7,1,"173d9d9",67,1
"692",1,1,917,7,7,1,"173d9d9",68,1
"702",0,1,784,7,18,1,"173d9d9",69,1
"713",0,1,625,18,6,1,"173d9d9",70,1
"722",0,1,1140,6,16,1,"173d9d9",71,1
"732",1,1,741,16,16,1,"173d9d9",72,1
"742",0,1,879,16,2,1,"173d9d9",73,1
"752",1,0,905,2,11,1,"173d9d9",74,1
"762",0,1,579,11,3,1,"173d9d9",75,1
"772",0,1,1238,3,15,1,"173d9d9",76,1
"782",1,1,631,15,15,1,"173d9d9",77,1
"792",0,1,536,15,12,1,"173d9d9",78,1
"802",0,0,1026,12,12,1,"173d9d9",79,1
"813",0,1,731,12,17,1,"173d9d9",80,1
"822",0,1,590,17,4,1,"173d9d9",81,1
"832",1,1,943,4,4,1,"173d9d9",82,1
"842",0,1,376,4,7,1,"173d9d9",83,1
"852",1,1,803,7,7,1,"173d9d9",84,1
"862",0,1,476,7,1,1,"173d9d9",85,1
"872",0,0,590,1,1,1,"173d9d9",86,1
"882",0,1,1033,1,2,1,"173d9d9",87,1
"892",0,1,682,2,4,1,"173d9d9",88,1
"902",0,1,611,4,15,1,"173d9d9",89,1
"913",0,1,591,15,18,1,"173d9d9",90,1
"922",1,1,872,18,18,1,"173d9d9",91,1
"932",0,1,521,18,11,1,"173d9d9",92,1
"942",0,1,811,11,8,1,"173d9d9",93,1
"952",0,1,558,8,5,1,"173d9d9",94,1
"962",1,1,687,5,5,1,"173d9d9",95,1
"972",0,1,641,5,14,1,"173d9d9",96,1
"982",1,0,594,14,3,1,"173d9d9",97,1
"992",0,1,748,3,17,1,"173d9d9",98,1
"1002",1,1,750,17,17,1,"173d9d9",99,1
"1013",0,1,417,17,9,1,"173d9d9",100,1
"1022",0,1,858,9,13,1,"173d9d9",101,1
"1032",1,1,788,13,13,1,"173d9d9",102,1
"1042",0,1,365,13,16,1,"173d9d9",103,1
"1052",1,1,575,16,16,1,"173d9d9",104,1
"1062",0,1,401,16,12,1,"173d9d9",105,1
"1072",0,1,643,12,10,1,"173d9d9",106,1
"1082",0,1,725,10,6,1,"173d9d9",107,1
"1092",1,1,711,6,6,1,"173d9d9",108,1
"1102",0,1,952,6,15,1,"173d9d9",109,1
"1113",0,1,581,15,1,1,"173d9d9",110,1
"1122",0,1,516,1,16,1,"173d9d9",111,1
"1132",0,1,526,16,12,1,"173d9d9",112,1
"1142",1,0,688,12,2,1,"173d9d9",113,1
"1152",0,1,849,2,13,1,"173d9d9",114,1
"1162",1,1,1172,13,13,1,"173d9d9",115,1
"1172",0,1,437,13,7,1,"173d9d9",116,1
"1182",0,1,480,7,11,1,"173d9d9",117,1
"1192",1,1,512,11,11,1,"173d9d9",118,1
"1202",0,1,379,11,9,1,"173d9d9",119,1
"1213",0,1,477,9,5,1,"173d9d9",120,1
"1222",1,1,646,5,5,1,"173d9d9",121,1
"1232",0,1,967,5,6,1,"173d9d9",122,1
"1242",1,0,1154,6,17,1,"173d9d9",123,1
"1252",1,1,820,17,17,1,"173d9d9",124,1
"1262",0,1,1310,17,14,1,"173d9d9",125,1
"1272",0,0,1159,14,14,1,"173d9d9",126,1
"1282",0,1,872,14,3,1,"173d9d9",127,1
"1292",0,0,1381,3,3,1,"173d9d9",128,1
"1302",0,1,1716,3,4,1,"173d9d9",129,1
"1313",0,0,1663,4,4,1,"173d9d9",130,1
"1322",0,1,720,4,18,1,"173d9d9",131,1
"1332",1,1,1099,18,18,1,"173d9d9",132,1
"1342",0,1,1005,18,8,1,"173d9d9",133,1
"1352",1,1,598,8,8,1,"173d9d9",134,1
"1362",0,1,599,8,10,1,"173d9d9",135,1
"1372",0,1,489,10,1,1,"173d9d9",136,1
"1382",1,1,883,1,1,1,"173d9d9",137,1
"1392",0,1,324,1,8,1,"173d9d9",138,1
"1402",1,1,631,8,8,1,"173d9d9",139,1
"1413",0,1,600,8,16,1,"173d9d9",140,1
"1422",0,1,715,16,3,1,"173d9d9",141,1
"1432",0,1,636,3,18,1,"173d9d9",142,1
"1442",1,1,758,18,18,1,"173d9d9",143,1
"1452",1,0,856,18,5,1,"173d9d9",144,1
"1462",1,1,666,5,5,1,"173d9d9",145,1
"1472",0,1,787,5,10,1,"173d9d9",146,1
"1482",1,1,966,10,10,1,"173d9d9",147,1
"1492",0,1,751,10,6,1,"173d9d9",148,1
"1502",1,1,705,6,6,1,"173d9d9",149,1
"1513",1,0,972,6,14,1,"173d9d9",150,1
"1522",0,0,1412,14,14,1,"173d9d9",151,1
"1532",0,1,1110,14,13,1,"173d9d9",152,1
"1542",1,1,1000,13,13,1,"173d9d9",153,1
"1552",0,1,978,13,9,1,"173d9d9",154,1
"1562",1,1,1260,9,9,1,"173d9d9",155,1
"1572",0,1,1261,9,2,1,"173d9d9",156,1
"1582",1,0,960,2,12,1,"173d9d9",157,1
"1592",1,1,881,12,12,1,"173d9d9",158,1
"1602",0,1,587,12,4,1,"173d9d9",159,1
"1613",0,1,773,4,17,1,"173d9d9",160,1
"1622",1,1,703,17,17,1,"173d9d9",161,1
"1632",0,1,433,17,11,1,"173d9d9",162,1
"1642",0,1,595,11,7,1,"173d9d9",163,1
"1652",1,1,699,7,7,1,"173d9d9",164,1
"1662",0,1,750,7,15,1,"173d9d9",165,1
"1672",1,1,879,15,15,1,"173d9d9",166,1
"1682",0,1,794,15,2,1,"173d9d9",167,1
"1692",0,1,739,2,10,1,"173d9d9",168,1
"1702",1,0,1037,10,9,1,"173d9d9",169,1
"1713",1,0,751,9,1,1,"173d9d9",170,1
"1722",0,1,561,1,15,1,"173d9d9",171,1
"1732",1,1,690,15,15,1,"173d9d9",172,1
"1742",0,1,1069,15,14,1,"173d9d9",173,1
"1752",1,0,1519,14,7,1,"173d9d9",174,1
"1762",1,1,648,7,7,1,"173d9d9",175,1
"1772",0,1,1138,7,18,1,"173d9d9",176,1
"1782",1,1,1068,18,18,1,"173d9d9",177,1
"1792",0,1,902,18,4,1,"173d9d9",178,1
"1802",0,1,1264,4,3,1,"173d9d9",179,1
"1813",1,1,817,3,3,1,"173d9d9",180,1
"1822",0,1,1002,3,17,1,"173d9d9",181,1
"1832",1,1,981,17,17,1,"173d9d9",182,1
"1842",0,1,913,17,8,1,"173d9d9",183,1
"1852",1,1,945,8,8,1,"173d9d9",184,1
"1862",1,0,1002,8,11,1,"173d9d9",185,1
"1872",1,1,1476,11,11,1,"173d9d9",186,1
"1882",0,1,1077,11,6,1,"173d9d9",187,1
"1892",1,1,1488,6,6,1,"173d9d9",188,1
"1902",0,1,1025,6,16,1,"173d9d9",189,1
"1913",0,0,1442,16,16,1,"173d9d9",190,1
"1922",0,1,702,16,13,1,"173d9d9",191,1
"1932",1,0,942,13,5,1,"173d9d9",192,1
"1942",1,0,1216,5,12,1,"173d9d9",193,1
"1952",0,0,835,12,12,1,"173d9d9",194,1
"1962",0,1,652,12,1,1,"173d9d9",195,1
"1972",1,0,982,1,8,1,"173d9d9",196,1
"1982",1,1,759,8,8,1,"173d9d9",197,1
"1992",0,1,665,8,10,1,"173d9d9",198,1
"2002",1,1,724,10,10,1,"173d9d9",199,1
"2013",0,1,677,10,12,1,"173d9d9",200,1
"2022",1,1,1055,12,12,1,"173d9d9",201,1
"2032",0,1,1080,12,9,1,"173d9d9",202,1
"2042",0,1,1427,9,11,1,"173d9d9",203,1
"2052",0,1,700,11,17,1,"173d9d9",204,1
"2062",1,1,1111,17,17,1,"173d9d9",205,1
"2072",0,1,1369,17,6,1,"173d9d9",206,1
"2082",1,1,1002,6,6,1,"173d9d9",207,1
"2092",0,1,772,6,14,1,"173d9d9",208,1
"2102",0,1,1190,14,3,1,"173d9d9",209,1
"2113",0,1,967,3,13,1,"173d9d9",210,1
"2122",1,1,889,13,13,1,"173d9d9",211,1
"2132",1,0,1035,13,4,1,"173d9d9",212,1
"2142",0,0,924,4,4,1,"173d9d9",213,1
"2152",0,1,606,4,15,1,"173d9d9",214,1
"2162",1,1,553,15,15,1,"173d9d9",215,1
"2172",0,1,499,15,18,1,"173d9d9",216,1
"2182",0,1,573,18,16,1,"173d9d9",217,1
"2192",0,0,718,16,16,1,"173d9d9",218,1
"2202",0,1,800,16,2,1,"173d9d9",219,1
"2213",1,1,1002,2,2,1,"173d9d9",220,1
"2222",-1,0,1323,2,5,1,"173d9d9",221,1
"2232",-1,0,1189,5,5,1,"173d9d9",222,1
"2242",-1,0,575,5,7,1,"173d9d9",223,1
"2252",0,1,793,7,12,1,"173d9d9",224,1
"2262",0,1,795,12,4,1,"173d9d9",225,1
"2272",1,1,901,4,4,1,"173d9d9",226,1
"2282",0,1,591,4,17,1,"173d9d9",227,1
"2292",0,1,1152,17,15,1,"173d9d9",228,1
"2302",0,0,1313,15,15,1,"173d9d9",229,1
"2313",0,1,1347,15,7,1,"173d9d9",230,1
"2322",1,1,2141,7,7,1,"173d9d9",231,1
"2332",0,1,1064,7,10,1,"173d9d9",232,1
"2342",0,1,657,10,6,1,"173d9d9",233,1
"2352",1,1,732,6,6,1,"173d9d9",234,1
"2362",0,1,428,6,2,1,"173d9d9",235,1
"2372",1,1,623,2,2,1,"173d9d9",236,1
"2382",0,1,432,2,14,1,"173d9d9",237,1
"2392",0,1,609,14,1,1,"173d9d9",238,1
"2402",0,0,861,1,1,1,"173d9d9",239,1
"2413",0,1,591,1,18,1,"173d9d9",240,1
"2422",0,1,1455,18,9,1,"173d9d9",241,1
"2432",0,1,529,9,3,1,"173d9d9",242,1
"2442",0,1,1035,3,16,1,"173d9d9",243,1
"2452",0,1,701,16,13,1,"173d9d9",244,1
"2462",0,1,647,13,11,1,"173d9d9",245,1
"2472",0,0,1009,11,11,1,"173d9d9",246,1
"2482",0,1,755,11,5,1,"173d9d9",247,1
"2492",0,0,1108,5,5,1,"173d9d9",248,1
"2502",0,1,864,5,8,1,"173d9d9",249,1
"2513",1,1,1745,8,8,1,"173d9d9",250,1
"2522",0,1,882,8,6,1,"173d9d9",251,1
"2532",1,1,717,6,6,1,"173d9d9",252,1
"2542",0,1,807,6,4,1,"173d9d9",253,1
"2552",1,1,1016,4,4,1,"173d9d9",254,1
"2562",0,1,394,4,10,1,"173d9d9",255,1
"2572",0,1,932,10,15,1,"173d9d9",256,1
"2582",1,1,989,15,15,1,"173d9d9",257,1
"2592",0,1,951,15,3,1,"173d9d9",258,1
"2602",0,0,1042,3,3,1,"173d9d9",259,1
"2613",0,1,1947,3,12,1,"173d9d9",260,1
"2622",0,1,597,12,2,1,"173d9d9",261,1
"2632",0,1,574,2,7,1,"173d9d9",262,1
"2642",1,1,833,7,7,1,"173d9d9",263,1
"2651",0,1,570,7,18,1,"173d9d9",264,1
"2661",1,1,709,18,18,1,"173d9d9",265,1
"2671",0,1,494,18,9,1,"173d9d9",266,1
"2681",0,1,921,9,1,1,"173d9d9",267,1
"2691",1,1,1409,1,1,1,"173d9d9",268,1
"2701",0,1,611,1,16,1,"173d9d9",269,1
"2712",1,0,701,16,14,1,"173d9d9",270,1
"2721",1,1,648,14,14,1,"173d9d9",271,1
"2731",0,1,650,14,17,1,"173d9d9",272,1
"2741",0,1,539,17,13,1,"173d9d9",273,1
"2751",1,1,756,13,13,1,"173d9d9",274,1
"2761",0,1,567,13,5,1,"173d9d9",275,1
"2771",1,0,680,5,11,1,"173d9d9",276,1
"2781",0,1,730,11,8,1,"173d9d9",277,1
"2791",1,1,827,8,8,1,"173d9d9",278,1
"283",-1,-1,0,0,3,1,"1c2f97a",1,1
"314",0,0,1044,3,3,1,"1c2f97a",2,1
"414",0,1,797,3,1,1,"1c2f97a",3,1
"514",0,1,719,1,11,1,"1c2f97a",4,1
"614",0,1,1211,11,6,1,"1c2f97a",5,1
"714",0,0,1280,6,6,1,"1c2f97a",6,1
"814",0,1,980,6,10,1,"1c2f97a",7,1
"914",0,1,786,10,4,1,"1c2f97a",8,1
"1014",0,1,1182,4,5,1,"1c2f97a",9,1
"1114",0,1,1012,5,7,1,"1c2f97a",10,1
"1214",1,0,1089,7,15,1,"1c2f97a",11,1
"1314",1,1,1053,15,15,1,"1c2f97a",12,1
"1414",0,1,1121,15,12,1,"1c2f97a",13,1
"1514",1,1,771,12,12,1,"1c2f97a",14,1
"1614",0,1,1284,12,9,1,"1c2f97a",15,1
"1714",0,1,751,9,16,1,"1c2f97a",16,1
"1814",1,1,870,16,16,1,"1c2f97a",17,1
"1914",0,1,1296,16,13,1,"1c2f97a",18,1
"2014",0,1,736,13,18,1,"1c2f97a",19,1
"2114",0,1,1614,18,14,1,"1c2f97a",20,1
"2214",0,1,664,14,2,1,"1c2f97a",21,1
"2314",0,1,1207,2,8,1,"1c2f97a",22,1
"2414",1,1,1517,8,8,1,"1c2f97a",23,1
"2514",0,1,990,8,17,1,"1c2f97a",24,1
"2614",1,1,796,17,17,1,"1c2f97a",25,1
"2713",0,1,1157,17,4,1,"1c2f97a",26,1
"284",0,1,1950,4,16,1,"1c2f97a",27,1
"293",0,1,957,16,9,1,"1c2f97a",28,1
"303",0,1,1163,9,14,1,"1c2f97a",29,1
"315",0,1,1387,14,18,1,"1c2f97a",30,1
"323",1,1,807,18,18,1,"1c2f97a",31,1
"333",0,1,1059,18,3,1,"1c2f97a",32,1
"343",1,1,780,3,3,1,"1c2f97a",33,1
"353",0,1,782,3,6,1,"1c2f97a",34,1
"363",1,0,807,6,17,1,"1c2f97a",35,1
"373",1,1,908,17,17,1,"1c2f97a",36,1
"383",0,1,722,17,7,1,"1c2f97a",37,1
"393",0,1,645,7,2,1,"1c2f97a",38,1
"403",1,1,1253,2,2,1,"1c2f97a",39,1
"415",0,1,856,2,15,1,"1c2f97a",40,1
"423",1,1,764,15,15,1,"1c2f97a",41,1
"433",0,1,779,15,12,1,"1c2f97a",42,1
"443",0,1,814,12,1,1,"1c2f97a",43,1
"453",0,1,936,1,11,1,"1c2f97a",44,1
"463",1,1,761,11,11,1,"1c2f97a",45,1
"473",0,1,1147,11,10,1,"1c2f97a",46,1
"483",1,1,858,10,10,1,"1c2f97a",47,1
"493",0,1,832,10,8,1,"1c2f97a",48,1
"503",1,1,929,8,8,1,"1c2f97a",49,1
"515",0,1,984,8,5,1,"1c2f97a",50,1
"523",1,1,805,5,5,1,"1c2f97a",51,1
"533",0,1,760,5,13,1,"1c2f97a",52,1
"543",1,1,735,13,13,1,"1c2f97a",53,1
"553",0,1,847,13,3,1,"1c2f97a",54,1
"563",1,1,901,3,3,1,"1c2f97a",55,1
"573",0,1,689,3,1,1,"1c2f97a",56,1
"583",0,1,1482,1,7,1,"1c2f97a",57,1
"593",0,1,643,7,8,1,"1c2f97a",58,1
"603",0,1,796,8,6,1,"1c2f97a",59,1
"615",0,1,735,6,14,1,"1c2f97a",60,1
"623",1,1,718,14,14,1,"1c2f97a",61,1
"633",0,1,706,14,12,1,"1c2f97a",62,1
"643",1,1,886,12,12,1,"1c2f97a",63,1
"653",0,1,689,12,10,1,"1c2f97a",64,1
"663",0,1,1378,10,5,1,"1c2f97a",65,1
"673",1,1,1002,5,5,1,"1c2f97a",66,1
"683",0,1,892,5,17,1,"1c2f97a",67,1
"693",0,1,1003,17,13,1,"1c2f97a",68,1
"703",0,1,1353,13,18,1,"1c2f97a",69,1
"715",0,1,1058,18,4,1,"1c2f97a",70,1
"723",0,1,974,4,16,1,"1c2f97a",71,1
"733",0,0,1210,16,16,1,"1c2f97a",72,1
"743",0,1,811,16,11,1,"1c2f97a",73,1
"753",1,1,714,11,11,1,"1c2f97a",74,1
"763",0,1,669,11,15,1,"1c2f97a",75,1
"773",1,1,967,15,15,1,"1c2f97a",76,1
"783",0,1,691,15,2,1,"1c2f97a",77,1
"793",1,1,769,2,2,1,"1c2f97a",78,1
"803",0,1,774,2,9,1,"1c2f97a",79,1
"815",1,1,605,9,9,1,"1c2f97a",80,1
"823",0,1,607,9,8,1,"1c2f97a",81,1
"833",0,1,613,8,7,1,"1c2f97a",82,1
"843",1,1,1081,7,7,1,"1c2f97a",83,1
"853",0,1,752,7,6,1,"1c2f97a",84,1
"863",0,0,873,6,6,1,"1c2f97a",85,1
"873",0,1,1185,6,1,1,"1c2f97a",86,1
"883",0,1,918,1,10,1,"1c2f97a",87,1
"893",1,1,878,10,10,1,"1c2f97a",88,1
"903",0,1,863,10,17,1,"1c2f97a",89,1
"915",0,1,885,17,5,1,"1c2f97a",90,1
"923",1,1,984,5,5,1,"1c2f97a",91,1
"933",0,1,910,5,12,1,"1c2f97a",92,1
"943",0,1,740,12,4,1,"1c2f97a",93,1
"953",1,1,1261,4,4,1,"1c2f97a",94,1
"963",0,1,740,4,16,1,"1c2f97a",95,1
"973",1,1,1255,16,16,1,"1c2f97a",96,1
"983",0,1,783,16,14,1,"1c2f97a",97,1
"993",0,1,1044,14,2,1,"1c2f97a",98,1
"1003",1,1,1640,2,2,1,"1c2f97a",99,1
"1015",0,1,1574,2,13,1,"1c2f97a",100,1
"1023",0,1,884,13,3,1,"1c2f97a",101,1
"1033",1,0,855,3,15,1,"1c2f97a",102,1
"1043",0,1,1590,15,11,1,"1c2f97a",103,1
"1053",1,1,758,11,11,1,"1c2f97a",104,1
"1063",0,1,824,11,18,1,"1c2f97a",105,1
"1073",1,1,551,18,18,1,"1c2f97a",106,1
"1083",0,1,652,18,9,1,"1c2f97a",107,1
"1093",1,1,984,9,9,1,"1c2f97a",108,1
"1103",0,1,1023,9,12,1,"1c2f97a",109,1
"1115",1,1,597,12,12,1,"1c2f97a",110,1
"1123",0,1,875,12,10,1,"1c2f97a",111,1
"1133",0,1,807,10,18,1,"1c2f97a",112,1
"1143",0,1,936,18,4,1,"1c2f97a",113,1
"1153",0,1,819,4,8,1,"1c2f97a",114,1
"1163",1,1,817,8,8,1,"1c2f97a",115,1
"1173",0,1,723,8,5,1,"1c2f97a",116,1
"1183",1,1,571,5,5,1,"1c2f97a",117,1
"1193",0,1,666,5,3,1,"1c2f97a",118,1
"1203",0,0,1264,3,3,1,"1c2f97a",119,1
"1215",1,0,762,3,17,1,"1c2f97a",120,1
"1223",1,1,405,17,17,1,"1c2f97a",121,1
"1233",0,1,1106,17,14,1,"1c2f97a",122,1
"1243",1,1,904,14,14,1,"1c2f97a",123,1
"1253",0,1,842,14,9,1,"1c2f97a",124,1
"1263",1,1,800,9,9,1,"1c2f97a",125,1
"1273",0,1,675,9,2,1,"1c2f97a",126,1
"1283",1,1,787,2,2,1,"1c2f97a",127,1
"1293",0,1,1009,2,1,1,"1c2f97a",128,1
"1303",0,1,677,1,11,1,"1c2f97a",129,1
"1315",1,1,651,11,11,1,"1c2f97a",130,1
"1323",0,1,687,11,16,1,"1c2f97a",131,1
"1333",0,0,1274,16,16,1,"1c2f97a",132,1
"1343",0,1,1215,16,13,1,"1c2f97a",133,1
"1353",1,1,766,13,13,1,"1c2f97a",134,1
"1363",0,1,870,13,6,1,"1c2f97a",135,1
"1373",1,1,582,6,6,1,"1c2f97a",136,1
"1383",0,1,728,6,15,1,"1c2f97a",137,1
"1393",1,1,701,15,15,1,"1c2f97a",138,1
"1403",0,1,1387,15,7,1,"1c2f97a",139,1
"1415",0,1,1166,7,5,1,"1c2f97a",140,1
"1423",0,1,1456,5,17,1,"1c2f97a",141,1
"1433",1,1,673,17,17,1,"1c2f97a",142,1
"1443",0,1,681,17,13,1,"1c2f97a",143,1
"1453",1,1,1066,13,13,1,"1c2f97a",144,1
"1463",0,1,2031,13,4,1,"1c2f97a",145,1
"1473",0,1,1350,4,15,1,"1c2f97a",146,1
"1483",0,1,2439,15,14,1,"1c2f97a",147,1
"1493",1,1,1123,14,14,1,"1c2f97a",148,1
"1503",0,1,1415,14,6,1,"1c2f97a",149,1
"1515",1,1,1063,6,6,1,"1c2f97a",150,1
"1523",0,1,1502,6,10,1,"1c2f97a",151,1
"1533",1,1,1013,10,10,1,"1c2f97a",152,1
"1543",0,1,902,10,18,1,"1c2f97a",153,1
"1553",1,1,1197,18,18,1,"1c2f97a",154,1
"1563",0,1,1372,18,16,1,"1c2f97a",155,1
"1573",1,1,663,16,16,1,"1c2f97a",156,1
"1583",0,1,700,16,7,1,"1c2f97a",157,1
"1593",0,1,830,7,8,1,"1c2f97a",158,1
"1603",1,0,859,8,11,1,"1c2f97a",159,1
"1615",1,1,571,11,11,1,"1c2f97a",160,1
"1623",0,1,390,11,1,1,"1c2f97a",161,1
"1633",0,1,689,1,12,1,"1c2f97a",162,1
"1643",1,1,563,12,12,1,"1c2f97a",163,1
"1653",0,1,645,12,2,1,"1c2f97a",164,1
"1663",0,1,897,2,9,1,"1c2f97a",165,1
"1673",0,1,667,9,3,1,"1c2f97a",166,1
"1683",1,1,840,3,3,1,"1c2f97a",167,1
"1693",0,1,881,3,7,1,"1c2f97a",168,1
"1703",1,1,609,7,7,1,"1c2f97a",169,1
"1715",0,1,783,7,14,1,"1c2f97a",170,1
"1723",1,0,1150,14,10,1,"1c2f97a",171,1
"1733",1,1,836,10,10,1,"1c2f97a",172,1
"1743",0,1,888,10,18,1,"1c2f97a",173,1
"1753",1,1,513,18,18,1,"1c2f97a",174,1
"1763",0,1,1276,18,6,1,"1c2f97a",175,1
"1773",1,1,554,6,6,1,"1c2f97a",176,1
"1783",0,1,1394,6,9,1,"1c2f97a",177,1
"1793",0,1,2182,9,2,1,"1c2f97a",178,1
"1803",1,1,1731,2,2,1,"1c2f97a",179,1
"1815",0,1,977,2,5,1,"1c2f97a",180,1
"1823",1,1,1249,5,5,1,"1c2f97a",181,1
"1833",0,1,1696,5,4,1,"1c2f97a",182,1
"1843",0,1,1390,4,12,1,"1c2f97a",183,1
"1853",1,1,1095,12,12,1,"1c2f97a",184,1
"1863",0,1,704,12,17,1,"1c2f97a",185,1
"1873",1,0,998,17,16,1,"1c2f97a",186,1
"1883",0,1,832,16,8,1,"1c2f97a",187,1
"1893",0,1,1230,8,1,1,"1c2f97a",188,1
"1903",1,1,654,1,1,1,"1c2f97a",189,1
"1915",0,1,1171,1,11,1,"1c2f97a",190,1
"1923",1,1,797,11,11,1,"1c2f97a",191,1
"1933",0,1,861,11,3,1,"1c2f97a",192,1
"1943",1,1,781,3,3,1,"1c2f97a",193,1
"1953",0,1,690,3,15,1,"1c2f97a",194,1
"1963",0,1,1038,15,13,1,"1c2f97a",195,1
"1973",0,1,1000,13,12,1,"1c2f97a",196,1
"1983",0,1,756,12,5,1,"1c2f97a",197,1
"1993",1,1,840,5,5,1,"1c2f97a",198,1
"2003",0,1,681,5,10,1,"1c2f97a",199,1
"2015",1,0,1053,10,7,1,"1c2f97a",200,1
"2023",1,1,1948,7,7,1,"1c2f97a",201,1
"2033",0,1,789,7,15,1,"1c2f97a",202,1
"2043",1,1,944,15,15,1,"1c2f97a",203,1
"2053",0,1,779,15,14,1,"1c2f97a",204,1
"2063",0,1,831,14,6,1,"1c2f97a",205,1
"2073",1,1,873,6,6,1,"1c2f97a",206,1
"2083",0,1,926,6,18,1,"1c2f97a",207,1
"2093",0,1,1313,18,17,1,"1c2f97a",208,1
"2103",0,1,786,17,4,1,"1c2f97a",209,1
"2115",0,1,1001,4,2,1,"1c2f97a",210,1
"2123",0,0,985,2,2,1,"1c2f97a",211,1
"2133",0,1,1569,2,8,1,"1c2f97a",212,1
"2143",0,1,639,8,3,1,"1c2f97a",213,1
"2153",1,1,913,3,3,1,"1c2f97a",214,1
"2163",0,1,635,3,9,1,"1c2f97a",215,1
"2173",1,0,775,9,1,1,"1c2f97a",216,1
"2183",0,1,712,1,13,1,"1c2f97a",217,1
"2193",1,1,668,13,13,1,"1c2f97a",218,1
"2203",0,1,828,13,16,1,"1c2f97a",219,1
"2215",0,0,779,16,16,1,"1c2f97a",220,1
"2223",0,1,794,16,11,1,"1c2f97a",221,1
"2233",1,1,666,11,11,1,"1c2f97a",222,1
"2243",0,1,627,11,1,1,"1c2f97a",223,1
"2253",0,1,701,1,2,1,"1c2f97a",224,1
"2263",1,1,642,2,2,1,"1c2f97a",225,1
"2273",0,1,676,2,12,1,"1c2f97a",226,1
"2283",1,1,724,12,12,1,"1c2f97a",227,1
"2293",0,1,577,12,13,1,"1c2f97a",228,1
"2303",1,0,940,13,15,1,"1c2f97a",229,1
"2315",0,1,1034,15,10,1,"1c2f97a",230,1
"2323",1,1,589,10,10,1,"1c2f97a",231,1
"2333",0,1,639,10,4,1,"1c2f97a",232,1
"2343",1,1,799,4,4,1,"1c2f97a",233,1
"2353",0,1,590,4,8,1,"1c2f97a",234,1
"2363",1,1,780,8,8,1,"1c2f97a",235,1
"2373",0,1,790,8,3,1,"1c2f97a",236,1
"2383",0,1,1045,3,9,1,"1c2f97a",237,1
"2393",1,1,740,9,9,1,"1c2f97a",238,1
"2403",0,1,776,9,6,1,"1c2f97a",239,1
"2415",1,1,669,6,6,1,"1c2f97a",240,1
"2423",0,1,843,6,14,1,"1c2f97a",241,1
"2433",0,1,731,14,5,1,"1c2f97a",242,1
"2443",0,1,1190,5,11,1,"1c2f97a",243,1
"2453",0,1,2060,11,16,1,"1c2f97a",244,1
"2463",1,1,1138,16,16,1,"1c2f97a",245,1
"2473",0,1,1223,16,17,1,"1c2f97a",246,1
"2483",1,1,1084,17,17,1,"1c2f97a",247,1
"2493",0,1,816,17,7,1,"1c2f97a",248,1
"2503",0,1,957,7,18,1,"1c2f97a",249,1
"2515",1,1,662,18,18,1,"1c2f97a",250,1
"2523",0,0,1640,18,18,1,"1c2f97a",251,1
"2533",0,1,2179,18,15,1,"1c2f97a",252,1
"2543",1,1,850,15,15,1,"1c2f97a",253,1
"2553",0,1,696,15,2,1,"1c2f97a",254,1
"2563",1,1,773,2,2,1,"1c2f97a",255,1
"2573",0,1,620,2,5,1,"1c2f97a",256,1
"2583",0,1,860,5,8,1,"1c2f97a",257,1
"2593",0,1,1013,8,12,1,"1c2f97a",258,1
"2603",0,1,805,12,17,1,"1c2f97a",259,1
"2615",0,1,897,17,11,1,"1c2f97a",260,1
"2623",0,1,832,11,4,1,"1c2f97a",261,1
"2633",0,0,2125,4,4,1,"1c2f97a",262,1
"2643",0,1,2090,4,7,1,"1c2f97a",263,1
"2652",0,1,873,7,1,1,"1c2f97a",264,1
"2662",0,1,733,1,16,1,"1c2f97a",265,1
"2672",0,1,1026,16,10,1,"1c2f97a",266,1
"2682",1,1,982,10,10,1,"1c2f97a",267,1
"2692",0,1,1234,10,6,1,"1c2f97a",268,1
"2702",1,1,782,6,6,1,"1c2f97a",269,1
"2714",0,1,622,6,9,1,"1c2f97a",270,1
"2722",1,1,1207,9,9,1,"1c2f97a",271,1
"2732",0,1,661,9,14,1,"1c2f97a",272,1
"2742",0,1,728,14,3,1,"1c2f97a",273,1
"2752",0,1,670,3,13,1,"1c2f97a",274,1
"287",-1,-1,0,0,14,1,"1e2bc3d",1,1
"316",0,1,676,14,15,1,"1e2bc3d",2,1
"416",1,0,958,15,6,1,"1e2bc3d",3,1
"516",1,0,1323,6,16,1,"1e2bc3d",4,1
"616",0,1,546,16,18,1,"1e2bc3d",5,1
"716",0,0,1015,18,18,1,"1e2bc3d",6,1
"816",0,1,698,18,8,1,"1e2bc3d",7,1
"916",1,0,779,8,4,1,"1e2bc3d",8,1
"1016",0,0,276,4,4,1,"1e2bc3d",9,1
"1116",1,0,787,4,1,1,"1e2bc3d",10,1
"1216",1,1,483,1,1,1,"1e2bc3d",11,1
"1316",0,1,769,1,12,1,"1e2bc3d",12,1
"1416",0,0,940,12,12,1,"1e2bc3d",13,1
"1516",0,1,645,12,3,1,"1e2bc3d",14,1
"1616",0,1,880,3,7,1,"1e2bc3d",15,1
"1716",0,0,984,7,7,1,"1e2bc3d",16,1
"1816",0,1,854,7,13,1,"1e2bc3d",17,1
"1916",0,1,1033,13,5,1,"1e2bc3d",18,1
"2016",1,1,681,5,5,1,"1e2bc3d",19,1
"2116",0,1,657,5,2,1,"1e2bc3d",20,1
"2216",1,1,1300,2,2,1,"1e2bc3d",21,1
"2316",0,1,963,2,9,1,"1e2bc3d",22,1
"2416",0,1,855,9,11,1,"1e2bc3d",23,1
"2516",1,0,1114,11,10,1,"1e2bc3d",24,1
"2616",0,0,779,10,10,1,"1e2bc3d",25,1
"2715",1,0,562,10,17,1,"1e2bc3d",26,1
"288",0,0,836,17,17,1,"1e2bc3d",27,1
"294",0,1,691,17,11,1,"1e2bc3d",28,1
"304",0,1,634,11,15,1,"1e2bc3d",29,1
"317",0,1,738,15,9,1,"1e2bc3d",30,1
"324",1,1,758,9,9,1,"1e2bc3d",31,1
"334",0,1,835,9,1,1,"1e2bc3d",32,1
"344",0,1,704,1,5,1,"1e2bc3d",33,1
"354",0,1,923,5,12,1,"1e2bc3d",34,1
"364",0,0,727,12,12,1,"1e2bc3d",35,1
"374",0,1,878,12,8,1,"1e2bc3d",36,1
"384",0,1,823,8,13,1,"1e2bc3d",37,1
"394",0,0,878,13,13,1,"1e2bc3d",38,1
"404",1,0,777,13,2,1,"1e2bc3d",39,1
"417",0,0,600,2,2,1,"1e2bc3d",40,1
"424",0,1,317,2,4,1,"1e2bc3d",41,1
"434",0,0,341,4,4,1,"1e2bc3d",42,1
"444",0,1,1505,4,6,1,"1e2bc3d",43,1
"454",0,1,973,6,7,1,"1e2bc3d",44,1
"464",1,1,897,7,7,1,"1e2bc3d",45,1
"474",0,1,587,7,10,1,"1e2bc3d",46,1
"484",1,1,916,10,10,1,"1e2bc3d",47,1
"494",0,1,666,10,18,1,"1e2bc3d",48,1
"504",1,1,651,18,18,1,"1e2bc3d",49,1
"517",0,1,593,18,14,1,"1e2bc3d",50,1
"524",0,0,627,14,14,1,"1e2bc3d",51,1
"534",1,0,638,14,17,1,"1e2bc3d",52,1
"544",1,1,654,17,17,1,"1e2bc3d",53,1
"554",0,1,715,17,16,1,"1e2bc3d",54,1
"564",0,0,913,16,16,1,"1e2bc3d",55,1
"574",1,0,367,16,3,1,"1e2bc3d",56,1
"584",0,0,710,3,3,1,"1e2bc3d",57,1
"594",0,1,873,3,9,1,"1e2bc3d",58,1
"604",1,1,730,9,9,1,"1e2bc3d",59,1
"617",0,1,650,9,8,1,"1e2bc3d",60,1
"624",0,0,784,8,8,1,"1e2bc3d",61,1
"634",1,0,396,8,7,1,"1e2bc3d",62,1
"644",1,1,629,7,7,1,"1e2bc3d",63,1
"654",0,1,448,7,12,1,"1e2bc3d",64,1
"664",1,1,1190,12,12,1,"1e2bc3d",65,1
"674",1,0,903,12,11,1,"1e2bc3d",66,1
"684",1,1,1218,11,11,1,"1e2bc3d",67,1
"694",0,1,647,11,4,1,"1e2bc3d",68,1
"704",1,1,1018,4,4,1,"1e2bc3d",69,1
"717",1,0,1210,4,2,1,"1e2bc3d",70,1
"724",1,1,953,2,2,1,"1e2bc3d",71,1
"734",0,1,566,2,18,1,"1e2bc3d",72,1
"744",1,1,976,18,18,1,"1e2bc3d",73,1
"754",-1,-1,0,18,17,1,"1e2bc3d",74,1
"764",1,1,856,17,17,1,"1e2bc3d",75,1
"774",1,0,704,17,6,1,"1e2bc3d",76,1
"784",1,0,1026,6,10,1,"1e2bc3d",77,1
"794",1,1,770,10,10,1,"1e2bc3d",78,1
"804",0,1,417,10,16,1,"1e2bc3d",79,1
"817",0,0,619,16,16,1,"1e2bc3d",80,1
"824",0,1,681,16,1,1,"1e2bc3d",81,1
"834",1,1,643,1,1,1,"1e2bc3d",82,1
"844",0,1,585,1,15,1,"1e2bc3d",83,1
"854",0,0,656,15,15,1,"1e2bc3d",84,1
"864",0,1,583,15,5,1,"1e2bc3d",85,1
"874",1,1,740,5,5,1,"1e2bc3d",86,1
"884",0,1,477,5,3,1,"1e2bc3d",87,1
"894",1,1,828,3,3,1,"1e2bc3d",88,1
"904",0,1,778,3,14,1,"1e2bc3d",89,1
"917",1,0,854,14,13,1,"1e2bc3d",90,1
"924",1,0,970,13,14,1,"1e2bc3d",91,1
"934",-1,-1,0,14,14,1,"1e2bc3d",92,1
"944",0,1,648,14,17,1,"1e2bc3d",93,1
"954",0,0,2079,17,17,1,"1e2bc3d",94,1
"964",0,1,1303,17,12,1,"1e2bc3d",95,1
"974",0,1,1458,12,6,1,"1e2bc3d",96,1
"984",1,0,583,6,1,1,"1e2bc3d",97,1
"994",0,1,819,1,10,1,"1e2bc3d",98,1
"1004",0,0,699,10,10,1,"1e2bc3d",99,1
"1017",0,1,821,10,18,1,"1e2bc3d",100,1
"1024",0,1,915,18,8,1,"1e2bc3d",101,1
"1034",0,0,756,8,8,1,"1e2bc3d",102,1
"1044",0,1,691,8,2,1,"1e2bc3d",103,1
"1054",1,1,910,2,2,1,"1e2bc3d",104,1
"1064",0,1,1041,2,9,1,"1e2bc3d",105,1
"1074",0,1,705,9,7,1,"1e2bc3d",106,1
"1084",1,1,875,7,7,1,"1e2bc3d",107,1
"1094",1,0,709,7,15,1,"1e2bc3d",108,1
"1104",0,1,705,15,3,1,"1e2bc3d",109,1
"1117",0,0,617,3,3,1,"1e2bc3d",110,1
"1124",1,0,719,3,16,1,"1e2bc3d",111,1
"1134",0,1,614,16,5,1,"1e2bc3d",112,1
"1144",1,0,630,5,13,1,"1e2bc3d",113,1
"1154",0,0,740,13,13,1,"1e2bc3d",114,1
"1164",0,1,724,13,4,1,"1e2bc3d",115,1
"1174",1,1,777,4,4,1,"1e2bc3d",116,1
"1184",0,1,736,4,11,1,"1e2bc3d",117,1
"1194",1,1,748,11,11,1,"1e2bc3d",118,1
"1204",0,1,880,11,15,1,"1e2bc3d",119,1
"1217",0,0,1258,15,15,1,"1e2bc3d",120,1
"1224",0,1,911,15,18,1,"1e2bc3d",121,1
"1234",1,0,948,18,1,1,"1e2bc3d",122,1
"1244",0,0,795,1,1,1,"1e2bc3d",123,1
"1254",0,1,704,1,3,1,"1e2bc3d",124,1
"1264",0,1,768,3,4,1,"1e2bc3d",125,1
"1274",1,1,723,4,4,1,"1e2bc3d",126,1
"1284",0,1,766,4,10,1,"1e2bc3d",127,1
"1294",0,1,827,10,16,1,"1e2bc3d",128,1
"1304",0,1,763,16,2,1,"1e2bc3d",129,1
"1317",0,1,817,2,14,1,"1e2bc3d",130,1
"1324",1,1,907,14,14,1,"1e2bc3d",131,1
"1334",0,1,628,14,9,1,"1e2bc3d",132,1
"1344",0,0,814,9,9,1,"1e2bc3d",133,1
"1354",0,1,1505,9,7,1,"1e2bc3d",134,1
"1364",0,0,1268,7,7,1,"1e2bc3d",135,1
"1374",0,1,714,7,12,1,"1e2bc3d",136,1
"1384",0,0,791,12,12,1,"1e2bc3d",137,1
"1394",0,1,578,12,6,1,"1e2bc3d",138,1
"1404",1,0,645,6,17,1,"1e2bc3d",139,1
"1417",1,1,656,17,17,1,"1e2bc3d",140,1
"1424",0,1,1178,17,11,1,"1e2bc3d",141,1
"1434",0,0,1019,11,11,1,"1e2bc3d",142,1
"1444",0,1,953,11,8,1,"1e2bc3d",143,1
"1454",0,1,679,8,5,1,"1e2bc3d",144,1
"1464",1,1,1000,5,5,1,"1e2bc3d",145,1
"1474",0,1,543,5,13,1,"1e2bc3d",146,1
"1484",0,1,875,13,6,1,"1e2bc3d",147,1
"1494",1,1,1386,6,6,1,"1e2bc3d",148,1
"1504",0,1,534,6,4,1,"1e2bc3d",149,1
"1517",0,0,986,4,4,1,"1e2bc3d",150,1
"1524",0,1,598,4,16,1,"1e2bc3d",151,1
"1534",0,1,1361,16,5,1,"1e2bc3d",152,1
"1544",0,0,737,5,5,1,"1e2bc3d",153,1
"1554",0,1,1194,5,13,1,"1e2bc3d",154,1
"1564",0,1,860,13,2,1,"1e2bc3d",155,1
"1574",0,1,887,2,3,1,"1e2bc3d",156,1
"1584",1,0,1044,3,17,1,"1e2bc3d",157,1
"1594",0,0,1169,17,17,1,"1e2bc3d",158,1
"1604",1,0,634,17,10,1,"1e2bc3d",159,1
"1617",1,1,911,10,10,1,"1e2bc3d",160,1
"1624",0,1,593,10,1,1,"1e2bc3d",161,1
"1634",1,1,1216,1,1,1,"1e2bc3d",162,1
"1644",0,1,874,1,8,1,"1e2bc3d",163,1
"1654",1,1,1288,8,8,1,"1e2bc3d",164,1
"1664",0,1,811,8,9,1,"1e2bc3d",165,1
"1674",0,1,687,9,14,1,"1e2bc3d",166,1
"1684",0,1,758,14,12,1,"1e2bc3d",167,1
"1694",0,1,627,12,7,1,"1e2bc3d",168,1
"1704",0,1,922,7,11,1,"1e2bc3d",169,1
"1717",1,1,1168,11,11,1,"1e2bc3d",170,1
"1724",0,1,800,11,18,1,"1e2bc3d",171,1
"1734",0,1,720,18,15,1,"1e2bc3d",172,1
"1744",1,1,1152,15,15,1,"1e2bc3d",173,1
"1754",0,1,528,15,12,1,"1e2bc3d",174,1
"1764",1,0,873,12,2,1,"1e2bc3d",175,1
"1774",0,1,1214,2,18,1,"1e2bc3d",176,1
"1784",1,1,619,18,18,1,"1e2bc3d",177,1
"1794",0,1,573,18,4,1,"1e2bc3d",178,1
"1804",1,1,840,4,4,1,"1e2bc3d",179,1
"1817",0,1,755,4,8,1,"1e2bc3d",180,1
"1824",1,1,735,8,8,1,"1e2bc3d",181,1
"1834",0,1,719,8,5,1,"1e2bc3d",182,1
"1844",0,1,836,5,6,1,"1e2bc3d",183,1
"1854",0,1,737,6,15,1,"1e2bc3d",184,1
"1864",0,1,1039,15,1,1,"1e2bc3d",185,1
"1874",0,1,658,1,16,1,"1e2bc3d",186,1
"1884",1,1,724,16,16,1,"1e2bc3d",187,1
"1894",0,1,527,16,9,1,"1e2bc3d",188,1
"1904",1,1,1148,9,9,1,"1e2bc3d",189,1
"1917",0,1,932,9,17,1,"1e2bc3d",190,1
"1924",1,0,871,17,10,1,"1e2bc3d",191,1
"1934",0,1,718,10,11,1,"1e2bc3d",192,1
"1944",0,0,917,11,11,1,"1e2bc3d",193,1
"1954",0,1,979,11,3,1,"1e2bc3d",194,1
"1964",-1,-1,0,3,3,1,"1e2bc3d",195,1
"1974",-1,-1,0,3,13,1,"1e2bc3d",196,1
"1984",-1,-1,0,13,13,1,"1e2bc3d",197,1
"1994",0,1,827,13,7,1,"1e2bc3d",198,1
"2004",0,0,849,7,7,1,"1e2bc3d",199,1
"2017",0,1,748,7,14,1,"1e2bc3d",200,1
"2024",1,0,539,14,12,1,"1e2bc3d",201,1
"2034",0,0,561,12,12,1,"1e2bc3d",202,1
"2044",0,1,493,12,8,1,"1e2bc3d",203,1
"2054",1,1,794,8,8,1,"1e2bc3d",204,1
"2064",0,1,774,8,7,1,"1e2bc3d",205,1
"2074",0,1,800,7,2,1,"1e2bc3d",206,1
"2084",1,1,920,2,2,1,"1e2bc3d",207,1
"2094",0,1,534,2,6,1,"1e2bc3d",208,1
"2104",0,0,602,6,6,1,"1e2bc3d",209,1
"2117",0,1,733,6,17,1,"1e2bc3d",210,1
"2124",0,1,1091,17,1,1,"1e2bc3d",211,1
"2134",0,1,662,1,16,1,"1e2bc3d",212,1
"2144",1,0,839,16,3,1,"1e2bc3d",213,1
"2154",0,1,740,3,11,1,"1e2bc3d",214,1
"2164",1,1,759,11,11,1,"1e2bc3d",215,1
"2174",0,1,810,11,9,1,"1e2bc3d",216,1
"2184",1,1,798,9,9,1,"1e2bc3d",217,1
"2194",0,1,801,9,10,1,"1e2bc3d",218,1
"2204",1,0,1241,10,15,1,"1e2bc3d",219,1
"2217",0,0,522,15,15,1,"1e2bc3d",220,1
"2224",0,1,770,15,13,1,"1e2bc3d",221,1
"2234",0,1,806,13,5,1,"1e2bc3d",222,1
"2244",1,0,827,5,4,1,"1e2bc3d",223,1
"2254",0,1,839,4,14,1,"1e2bc3d",224,1
"2264",0,1,768,14,18,1,"1e2bc3d",225,1
"2274",1,1,674,18,18,1,"1e2bc3d",226,1
"2284",0,1,902,18,1,1,"1e2bc3d",227,1
"2294",0,1,630,1,15,1,"1e2bc3d",228,1
"2304",1,1,834,15,15,1,"1e2bc3d",229,1
"2317",0,1,684,15,4,1,"1e2bc3d",230,1
"2324",0,1,725,4,3,1,"1e2bc3d",231,1
"2334",0,0,1040,3,3,1,"1e2bc3d",232,1
"2344",1,0,984,3,16,1,"1e2bc3d",233,1
"2354",1,1,983,16,16,1,"1e2bc3d",234,1
"2364",0,1,560,16,11,1,"1e2bc3d",235,1
"2374",1,0,787,11,5,1,"1e2bc3d",236,1
"2384",0,1,515,5,10,1,"1e2bc3d",237,1
"2394",1,1,885,10,10,1,"1e2bc3d",238,1
"2404",0,1,647,10,8,1,"1e2bc3d",239,1
"2417",0,0,594,8,8,1,"1e2bc3d",240,1
"2424",0,1,736,8,13,1,"1e2bc3d",241,1
"2434",0,1,866,13,6,1,"1e2bc3d",242,1
"2444",1,1,884,6,6,1,"1e2bc3d",243,1
"2454",0,1,764,6,14,1,"1e2bc3d",244,1
"2464",0,1,1080,14,17,1,"1e2bc3d",245,1
"2474",1,1,1038,17,17,1,"1e2bc3d",246,1
"2484",0,1,743,17,12,1,"1e2bc3d",247,1
"2494",0,0,947,12,12,1,"1e2bc3d",248,1
"2504",0,1,905,12,9,1,"1e2bc3d",249,1
"2517",1,0,1173,9,7,1,"1e2bc3d",250,1
"2524",1,1,727,7,7,1,"1e2bc3d",251,1
"2534",0,1,666,7,18,1,"1e2bc3d",252,1
"2544",1,1,750,18,18,1,"1e2bc3d",253,1
"2554",0,1,441,18,2,1,"1e2bc3d",254,1
"2564",0,1,686,2,10,1,"1e2bc3d",255,1
"2574",0,1,928,10,16,1,"1e2bc3d",256,1
"2584",1,1,820,16,16,1,"1e2bc3d",257,1
"2594",0,1,499,16,4,1,"1e2bc3d",258,1
"2604",0,0,944,4,4,1,"1e2bc3d",259,1
"2617",0,1,1066,4,13,1,"1e2bc3d",260,1
"2624",0,1,764,13,3,1,"1e2bc3d",261,1
"2634",0,0,1013,3,3,1,"1e2bc3d",262,1
"2644",0,1,696,3,18,1,"1e2bc3d",263,1
"2653",0,0,759,18,18,1,"1e2bc3d",264,1
"2663",0,1,435,18,6,1,"1e2bc3d",265,1
"2673",1,1,615,6,6,1,"1e2bc3d",266,1
"2683",-1,-1,0,6,15,1,"1e2bc3d",267,1
"2693",1,1,770,15,15,1,"1e2bc3d",268,1
"2703",0,1,697,15,17,1,"1e2bc3d",269,1
"2716",1,1,781,17,17,1,"1e2bc3d",270,1
"2723",0,1,471,17,9,1,"1e2bc3d",271,1
"2733",0,0,682,9,9,1,"1e2bc3d",272,1
"2743",0,1,690,9,11,1,"1e2bc3d",273,1
"2753",0,1,1439,11,1,1,"1e2bc3d",274,1
"2762",1,1,908,1,1,1,"1e2bc3d",275,1
"2772",0,1,709,1,7,1,"1e2bc3d",276,1
"2782",1,1,780,7,7,1,"1e2bc3d",277,1
"2792",0,1,811,7,14,1,"1e2bc3d",278,1
"2801",1,1,748,14,14,1,"1e2bc3d",279,1
"2811",0,1,570,14,8,1,"1e2bc3d",280,1
"2821",1,0,899,8,2,1,"1e2bc3d",281,1
"2831",0,1,607,2,12,1,"1e2bc3d",282,1
"2841",0,0,747,12,12,1,"1e2bc3d",283,1
"285",-1,-1,0,12,5,1,"1e2bc3d",284,1
"286",-1,-1,0,5,5,1,"1e2bc3d",285,1
"289",-1,-1,0,0,12,1,"1bead2c",1,1
"318",1,1,513,12,12,1,"1bead2c",2,1
"418",0,1,672,12,8,1,"1bead2c",3,1
"518",0,1,637,8,14,1,"1bead2c",4,1
"618",0,1,549,14,3,1,"1bead2c",5,1
"718",1,1,865,3,3,1,"1bead2c",6,1
"818",0,1,448,3,7,1,"1bead2c",7,1
"918",1,0,617,7,15,1,"1bead2c",8,1
"1018",0,0,960,15,15,1,"1bead2c",9,1
"1118",0,1,505,15,9,1,"1bead2c",10,1
"1218",1,1,426,9,9,1,"1bead2c",11,1
"1318",0,1,467,9,18,1,"1bead2c",12,1
"1418",1,1,575,18,18,1,"1bead2c",13,1
"1518",0,1,521,18,1,1,"1bead2c",14,1
"1618",0,0,699,1,1,1,"1bead2c",15,1
"1718",0,1,569,1,6,1,"1bead2c",16,1
"1818",0,1,1037,6,11,1,"1bead2c",17,1
"1918",0,1,541,11,10,1,"1bead2c",18,1
"2018",0,0,1145,10,10,1,"1bead2c",19,1
"2118",0,1,383,10,13,1,"1bead2c",20,1
"2218",0,1,450,13,5,1,"1bead2c",21,1
"2318",0,1,604,5,2,1,"1bead2c",22,1
"2418",0,1,498,2,16,1,"1bead2c",23,1
"2518",1,1,430,16,16,1,"1bead2c",24,1
"2618",0,1,776,16,17,1,"1bead2c",25,1
"2717",1,1,1134,17,17,1,"1bead2c",26,1
"2810",0,1,563,17,4,1,"1bead2c",27,1
"295",1,1,558,4,4,1,"1bead2c",28,1
"305",0,1,436,4,17,1,"1bead2c",29,1
"319",1,1,805,17,17,1,"1bead2c",30,1
"325",0,1,738,17,14,1,"1bead2c",31,1
"335",1,1,798,14,14,1,"1bead2c",32,1
"345",0,1,625,14,12,1,"1bead2c",33,1
"355",0,1,557,12,3,1,"1bead2c",34,1
"365",0,1,639,3,18,1,"1bead2c",35,1
"375",0,1,444,18,7,1,"1bead2c",36,1
"385",1,1,645,7,7,1,"1bead2c",37,1
"395",0,1,1010,7,4,1,"1bead2c",38,1
"405",0,1,582,4,15,1,"1bead2c",39,1
"419",1,1,920,15,15,1,"1bead2c",40,1
"425",0,1,520,15,16,1,"1bead2c",41,1
"435",0,1,491,16,2,1,"1bead2c",42,1
"445",0,1,748,2,1,1,"1bead2c",43,1
"455",0,1,503,1,10,1,"1bead2c",44,1
"465",1,1,698,10,10,1,"1bead2c",45,1
"475",0,1,548,10,9,1,"1bead2c",46,1
"485",1,1,734,9,9,1,"1bead2c",47,1
"495",0,1,577,9,5,1,"1bead2c",48,1
"505",1,1,551,5,5,1,"1bead2c",49,1
"519",0,1,594,5,13,1,"1bead2c",50,1
"525",1,0,577,13,11,1,"1bead2c",51,1
"535",1,0,998,11,8,1,"1bead2c",52,1
"545",1,1,551,8,8,1,"1bead2c",53,1
"555",0,1,851,8,6,1,"1bead2c",54,1
"565",0,1,900,6,13,1,"1bead2c",55,1
"575",0,1,709,13,2,1,"1bead2c",56,1
"585",1,1,729,2,2,1,"1bead2c",57,1
"595",0,1,508,2,4,1,"1bead2c",58,1
"605",0,1,553,4,15,1,"1bead2c",59,1
"619",1,1,829,15,15,1,"1bead2c",60,1
"625",0,1,574,15,11,1,"1bead2c",61,1
"635",0,0,957,11,11,1,"1bead2c",62,1
"645",0,1,849,11,5,1,"1bead2c",63,1
"655",0,1,694,5,16,1,"1bead2c",64,1
"665",1,1,376,16,16,1,"1bead2c",65,1
"675",0,1,543,16,12,1,"1bead2c",66,1
"685",1,1,866,12,12,1,"1bead2c",67,1
"695",0,1,499,12,7,1,"1bead2c",68,1
"705",0,0,627,7,7,1,"1bead2c",69,1
"719",0,1,807,7,6,1,"1bead2c",70,1
"725",1,0,816,6,17,1,"1bead2c",71,1
"735",0,1,964,17,1,1,"1bead2c",72,1
"745",0,1,856,1,8,1,"1bead2c",73,1
"755",0,1,1839,8,9,1,"1bead2c",74,1
"765",0,1,540,9,18,1,"1bead2c",75,1
"775",1,1,371,18,18,1,"1bead2c",76,1
"785",0,1,371,18,3,1,"1bead2c",77,1
"795",1,0,926,3,10,1,"1bead2c",78,1
"805",0,0,544,10,10,1,"1bead2c",79,1
"819",0,1,582,10,14,1,"1bead2c",80,1
"825",0,1,472,14,2,1,"1bead2c",81,1
"835",1,1,428,2,2,1,"1bead2c",82,1
"845",0,1,681,2,17,1,"1bead2c",83,1
"855",0,0,770,17,17,1,"1bead2c",84,1
"865",0,1,323,17,4,1,"1bead2c",85,1
"875",1,0,600,4,7,1,"1bead2c",86,1
"885",0,0,839,7,7,1,"1bead2c",87,1
"895",0,1,227,7,18,1,"1bead2c",88,1
"905",1,0,448,18,5,1,"1bead2c",89,1
"919",1,1,943,5,5,1,"1bead2c",90,1
"925",0,1,410,5,13,1,"1bead2c",91,1
"935",1,1,458,13,13,1,"1bead2c",92,1
"945",0,1,522,13,15,1,"1bead2c",93,1
"955",0,1,835,15,10,1,"1bead2c",94,1
"965",1,0,1332,10,9,1,"1bead2c",95,1
"975",1,1,657,9,9,1,"1bead2c",96,1
"985",0,1,576,9,8,1,"1bead2c",97,1
"995",1,1,646,8,8,1,"1bead2c",98,1
"1005",0,1,693,8,12,1,"1bead2c",99,1
"1019",0,1,474,12,16,1,"1bead2c",100,1
"1025",1,1,650,16,16,1,"1bead2c",101,1
"1035",0,1,1582,16,1,1,"1bead2c",102,1
"1045",0,1,931,1,11,1,"1bead2c",103,1
"1055",0,1,1891,11,3,1,"1bead2c",104,1
"1065",0,0,672,3,3,1,"1bead2c",105,1
"1075",0,1,308,3,14,1,"1bead2c",106,1
"1085",1,1,525,14,14,1,"1bead2c",107,1
"1095",0,1,596,14,6,1,"1bead2c",108,1
"1105",0,1,1625,6,18,1,"1bead2c",109,1
"1119",0,1,975,18,7,1,"1bead2c",110,1
"1125",1,1,699,7,7,1,"1bead2c",111,1
"1135",0,1,1061,7,3,1,"1bead2c",112,1
"1145",0,0,1221,3,3,1,"1bead2c",113,1
"1155",0,1,628,3,16,1,"1bead2c",114,1
"1165",0,1,497,16,13,1,"1bead2c",115,1
"1175",1,1,782,13,13,1,"1bead2c",116,1
"1185",1,0,942,13,15,1,"1bead2c",117,1
"1195",1,1,793,15,15,1,"1bead2c",118,1
"1205",0,1,562,15,17,1,"1bead2c",119,1
"1219",1,1,796,17,17,1,"1bead2c",120,1
"1225",0,1,626,17,11,1,"1bead2c",121,1
"1235",0,1,497,11,14,1,"1bead2c",122,1
"1245",0,0,684,14,14,1,"1bead2c",123,1
"1255",0,1,615,14,12,1,"1bead2c",124,1
"1265",1,1,494,12,12,1,"1bead2c",125,1
"1275",0,1,726,12,9,1,"1bead2c",126,1
"1285",0,0,627,9,9,1,"1bead2c",127,1
"1295",1,0,985,9,2,1,"1bead2c",128,1
"1305",1,1,628,2,2,1,"1bead2c",129,1
"1319",0,1,603,2,10,1,"1bead2c",130,1
"1325",0,0,639,10,10,1,"1bead2c",131,1
"1335",0,1,1086,10,4,1,"1bead2c",132,1
"1345",1,0,486,4,1,1,"1bead2c",133,1
"1355",1,1,1708,1,1,1,"1bead2c",134,1
"1365",0,1,506,1,8,1,"1bead2c",135,1
"1375",0,1,691,8,5,1,"1bead2c",136,1
"1385",1,1,616,5,5,1,"1bead2c",137,1
"1395",0,1,493,5,6,1,"1bead2c",138,1
"1405",1,1,857,6,6,1,"1bead2c",139,1
"1419",0,1,772,6,16,1,"1bead2c",140,1
"1425",0,1,1150,16,11,1,"1bead2c",141,1
"1435",1,1,1272,11,11,1,"1bead2c",142,1
"1445",0,1,694,11,18,1,"1bead2c",143,1
"1455",0,1,495,18,6,1,"1bead2c",144,1
"1465",0,1,749,6,10,1,"1bead2c",145,1
"1475",1,1,974,10,10,1,"1bead2c",146,1
"1485",0,1,720,10,8,1,"1bead2c",147,1
"1495",0,0,1051,8,8,1,"1bead2c",148,1
"1505",0,1,605,8,4,1,"1bead2c",149,1
"1519",1,0,691,4,1,1,"1bead2c",150,1
"1525",0,1,756,1,7,1,"1bead2c",151,1
"1535",0,1,584,7,12,1,"1bead2c",152,1
"1545",1,1,616,12,12,1,"1bead2c",153,1
"1555",0,1,699,12,14,1,"1bead2c",154,1
"1565",0,0,666,14,14,1,"1bead2c",155,1
"1575",0,1,331,14,9,1,"1bead2c",156,1
"1585",1,1,528,9,9,1,"1bead2c",157,1
"1595",0,1,527,9,17,1,"1bead2c",158,1
"1605",0,1,822,17,15,1,"1bead2c",159,1
"1619",1,1,945,15,15,1,"1bead2c",160,1
"1625",0,1,741,15,13,1,"1bead2c",161,1
"1635",0,1,629,13,3,1,"1bead2c",162,1
"1645",1,0,1179,3,2,1,"1bead2c",163,1
"1655",0,1,1142,2,5,1,"1bead2c",164,1
"1665",0,1,769,5,9,1,"1bead2c",165,1
"1675",1,1,534,9,9,1,"1bead2c",166,1
"1685",0,1,531,9,12,1,"1bead2c",167,1
"1695",0,1,892,12,6,1,"1bead2c",168,1
"1705",1,1,1309,6,6,1,"1bead2c",169,1
"1719",0,1,2043,6,18,1,"1bead2c",170,1
"1725",1,1,866,18,18,1,"1bead2c",171,1
"1735",0,1,421,18,4,1,"1bead2c",172,1
"1745",0,1,1045,4,14,1,"1bead2c",173,1
"1755",0,1,732,14,3,1,"1bead2c",174,1
"1765",1,0,427,3,10,1,"1bead2c",175,1
"1775",1,1,832,10,10,1,"1bead2c",176,1
"1785",0,1,556,10,13,1,"1bead2c",177,1
"1795",0,1,589,13,8,1,"1bead2c",178,1
"1805",1,0,779,8,2,1,"1bead2c",179,1
"1819",1,0,669,2,1,1,"1bead2c",180,1
"1825",1,1,694,1,1,1,"1bead2c",181,1
"1835",0,1,655,1,5,1,"1bead2c",182,1
"1845",0,1,1594,5,7,1,"1bead2c",183,1
"1855",1,1,689,7,7,1,"1bead2c",184,1
"1865",0,1,541,7,11,1,"1bead2c",185,1
"1875",0,1,726,11,16,1,"1bead2c",186,1
"1885",1,0,1257,16,17,1,"1bead2c",187,1
"1895",0,1,1939,17,15,1,"1bead2c",188,1
"1905",1,1,727,15,15,1,"1bead2c",189,1
"1919",0,1,649,15,3,1,"1bead2c",190,1
"1925",0,1,1713,3,14,1,"1bead2c",191,1
"1935",0,1,1311,14,1,1,"1bead2c",192,1
"1945",1,1,1002,1,1,1,"1bead2c",193,1
"1955",0,1,616,1,6,1,"1bead2c",194,1
"1965",1,1,1026,6,6,1,"1bead2c",195,1
"1975",0,1,617,6,12,1,"1bead2c",196,1
"1985",1,1,583,12,12,1,"1bead2c",197,1
"1995",0,1,990,12,11,1,"1bead2c",198,1
"2005",1,1,506,11,11,1,"1bead2c",199,1
"2019",0,1,701,11,7,1,"1bead2c",200,1
"2025",0,1,1087,7,16,1,"1bead2c",201,1
"2035",1,1,905,16,16,1,"1bead2c",202,1
"2045",0,1,677,16,10,1,"1bead2c",203,1
"2055",0,1,1196,10,17,1,"1bead2c",204,1
"2065",0,0,1870,17,17,1,"1bead2c",205,1
"2075",0,1,719,17,13,1,"1bead2c",206,1
"2085",0,1,820,13,15,1,"1bead2c",207,1
"2095",1,1,886,15,15,1,"1bead2c",208,1
"2105",0,1,1188,15,2,1,"1bead2c",209,1
"2119",0,1,1390,2,4,1,"1bead2c",210,1
"2125",1,1,1270,4,4,1,"1bead2c",211,1
"2135",0,1,606,4,8,1,"1bead2c",212,1
"2145",0,1,765,8,18,1,"1bead2c",213,1
"2155",1,1,1027,18,18,1,"1bead2c",214,1
"2165",0,1,1147,18,5,1,"1bead2c",215,1
"2175",1,1,571,5,5,1,"1bead2c",216,1
"2185",0,1,626,5,9,1,"1bead2c",217,1
"2195",0,1,633,9,15,1,"1bead2c",218,1
"2205",1,1,884,15,15,1,"1bead2c",219,1
"2219",0,1,641,15,18,1,"1bead2c",220,1
"2225",0,0,593,18,18,1,"1bead2c",221,1
"2235",0,1,317,18,6,1,"1bead2c",222,1
"2245",0,1,607,6,5,1,"1bead2c",223,1
"2255",0,0,1074,5,5,1,"1bead2c",224,1
"2265",0,1,976,5,3,1,"1bead2c",225,1
"2275",0,1,1510,3,4,1,"1bead2c",226,1
"2285",0,1,1267,4,1,1,"1bead2c",227,1
"2295",1,1,648,1,1,1,"1bead2c",228,1
"2305",0,1,1223,1,8,1,"1bead2c",229,1
"2319",1,1,1590,8,8,1,"1bead2c",230,1
"2325",0,1,803,8,17,1,"1bead2c",231,1
"2335",1,0,1672,17,16,1,"1bead2c",232,1
"2345",1,1,632,16,16,1,"1bead2c",233,1
"2355",0,1,1309,16,7,1,"1bead2c",234,1
"2365",0,1,550,7,11,1,"1bead2c",235,1
"2375",0,1,689,11,13,1,"1bead2c",236,1
"2385",0,0,1323,13,13,1,"1bead2c",237,1
"2395",0,1,1060,13,2,1,"1bead2c",238,1
"2405",0,1,893,2,10,1,"1bead2c",239,1
"2419",1,1,500,10,10,1,"1bead2c",240,1
"2425",0,1,783,10,14,1,"1bead2c",241,1
"2435",0,1,958,14,9,1,"1bead2c",242,1
"2445",0,1,1854,9,12,1,"1bead2c",243,1
"2455",0,1,1115,12,5,1,"1bead2c",244,1
"2465",1,1,1160,5,5,1,"1bead2c",245,1
"2475",0,1,828,5,12,1,"1bead2c",246,1
"2485",0,1,735,12,6,1,"1bead2c",247,1
"2495",1,0,697,6,17,1,"1bead2c",248,1
"2505",0,1,806,17,18,1,"1bead2c",249,1
"2519",1,1,1717,18,18,1,"1bead2c",250,1
"2525",0,1,536,18,1,1,"1bead2c",251,1
"2535",1,1,825,1,1,1,"1bead2c",252,1
"2545",0,1,711,1,10,1,"1bead2c",253,1
"2555",1,1,633,10,10,1,"1bead2c",254,1
"2565",0,1,515,10,11,1,"1bead2c",255,1
"2575",1,0,758,11,8,1,"1bead2c",256,1
"2585",0,1,528,8,7,1,"1bead2c",257,1
"2595",1,0,923,7,4,1,"1bead2c",258,1
"2605",0,1,705,4,16,1,"1bead2c",259,1
"2619",1,1,1026,16,16,1,"1bead2c",260,1
"2625",0,1,602,16,2,1,"1bead2c",261,1
"2635",0,1,662,2,9,1,"1bead2c",262,1
"2645",0,1,492,9,3,1,"1bead2c",263,1
"2654",1,1,2056,3,3,1,"1bead2c",264,1
"2664",0,1,2298,3,15,1,"1bead2c",265,1
"2674",1,0,1345,15,13,1,"1bead2c",266,1
"2684",1,0,956,13,14,1,"1bead2c",267,1
"2694",1,1,612,14,14,1,"1bead2c",268,1
"290",-1,-1,0,0,6,1,"1dc293a",1,1
"320",0,1,1634,6,12,1,"1dc293a",2,1
"420",1,1,918,12,12,1,"1dc293a",3,1
"520",0,1,1435,12,11,1,"1dc293a",4,1
"620",0,1,1601,11,8,1,"1dc293a",5,1
"720",1,1,544,8,8,1,"1dc293a",6,1
"820",0,1,707,8,4,1,"1dc293a",7,1
"920",0,1,652,4,1,1,"1dc293a",8,1
"1020",1,1,614,1,1,1,"1dc293a",9,1
"1120",0,1,691,1,10,1,"1dc293a",10,1
"1220",0,1,621,10,18,1,"1dc293a",11,1
"1320",0,1,875,18,14,1,"1dc293a",12,1
"1420",1,1,621,14,14,1,"1dc293a",13,1
"1520",0,1,1220,14,16,1,"1dc293a",14,1
"1620",0,1,921,16,3,1,"1dc293a",15,1
"1720",0,1,1120,3,5,1,"1dc293a",16,1
"1820",0,1,1344,5,9,1,"1dc293a",17,1
"1920",0,1,702,9,15,1,"1dc293a",18,1
"2020",0,1,757,15,17,1,"1dc293a",19,1
"2120",0,1,574,17,2,1,"1dc293a",20,1
"2220",0,1,757,2,13,1,"1dc293a",21,1
"2320",1,1,470,13,13,1,"1dc293a",22,1
"2420",0,1,1037,13,7,1,"1dc293a",23,1
"2520",1,1,839,7,7,1,"1dc293a",24,1
"2620",0,1,1036,7,14,1,"1dc293a",25,1
"2718",1,1,691,14,14,1,"1dc293a",26,1
"2812",0,1,918,14,18,1,"1dc293a",27,1
"296",0,1,728,18,6,1,"1dc293a",28,1
"306",0,1,2173,6,3,1,"1dc293a",29,1
"3110",0,1,728,3,8,1,"1dc293a",30,1
"326",1,1,987,8,8,1,"1dc293a",31,1
"336",0,1,771,8,7,1,"1dc293a",32,1
"346",1,1,481,7,7,1,"1dc293a",33,1
"356",0,1,621,7,17,1,"1dc293a",34,1
"366",1,1,2180,17,17,1,"1dc293a",35,1
"376",0,1,1113,17,13,1,"1dc293a",36,1
"386",1,1,505,13,13,1,"1dc293a",37,1
"396",0,1,809,13,1,1,"1dc293a",38,1
"406",0,0,1084,1,1,1,"1dc293a",39,1
"4110",0,1,828,1,16,1,"1dc293a",40,1
"426",1,1,711,16,16,1,"1dc293a",41,1
"436",1,0,770,16,10,1,"1dc293a",42,1
"446",0,1,809,10,2,1,"1dc293a",43,1
"456",1,1,674,2,2,1,"1dc293a",44,1
"466",0,1,734,2,15,1,"1dc293a",45,1
"476",0,1,571,15,4,1,"1dc293a",46,1
"486",1,1,796,4,4,1,"1dc293a",47,1
"496",0,1,1710,4,9,1,"1dc293a",48,1
"506",0,1,467,9,11,1,"1dc293a",49,1
"5110",0,1,598,11,5,1,"1dc293a",50,1
"526",1,1,756,5,5,1,"1dc293a",51,1
"536",0,1,1007,5,12,1,"1dc293a",52,1
"546",1,1,907,12,12,1,"1dc293a",53,1
"556",0,1,734,12,7,1,"1dc293a",54,1
"566",0,1,467,7,18,1,"1dc293a",55,1
"576",0,1,526,18,10,1,"1dc293a",56,1
"586",1,1,876,10,10,1,"1dc293a",57,1
"596",0,1,1361,10,3,1,"1dc293a",58,1
"606",0,1,1300,3,6,1,"1dc293a",59,1
"6110",1,1,1179,6,6,1,"1dc293a",60,1
"626",0,1,938,6,12,1,"1dc293a",61,1
"636",1,1,1073,12,12,1,"1dc293a",62,1
"646",0,1,1201,12,11,1,"1dc293a",63,1
"656",0,1,745,11,5,1,"1dc293a",64,1
"666",0,1,593,5,4,1,"1dc293a",65,1
"676",0,1,846,4,14,1,"1dc293a",66,1
"686",0,1,539,14,16,1,"1dc293a",67,1
"696",0,1,576,16,8,1,"1dc293a",68,1
"706",0,1,665,8,1,1,"1dc293a",69,1
"7110",1,1,684,1,1,1,"1dc293a",70,1
"726",0,1,1658,1,9,1,"1dc293a",71,1
"736",0,1,1251,9,13,1,"1dc293a",72,1
"746",1,1,1533,13,13,1,"1dc293a",73,1
"756",0,1,715,13,17,1,"1dc293a",74,1
"766",1,1,890,17,17,1,"1dc293a",75,1
"776",0,1,567,17,15,1,"1dc293a",76,1
"786",0,1,562,15,2,1,"1dc293a",77,1
"796",0,1,693,2,6,1,"1dc293a",78,1
"806",0,0,833,6,6,1,"1dc293a",79,1
"8110",0,1,794,6,5,1,"1dc293a",80,1
"826",1,1,618,5,5,1,"1dc293a",81,1
"836",0,1,678,5,13,1,"1dc293a",82,1
"846",1,1,645,13,13,1,"1dc293a",83,1
"856",0,1,720,13,4,1,"1dc293a",84,1
"866",1,1,737,4,4,1,"1dc293a",85,1
"876",0,1,666,4,3,1,"1dc293a",86,1
"886",0,0,788,3,3,1,"1dc293a",87,1
"896",0,1,630,3,16,1,"1dc293a",88,1
"906",0,1,2434,16,2,1,"1dc293a",89,1
"9110",1,1,1983,2,2,1,"1dc293a",90,1
"926",0,1,766,2,11,1,"1dc293a",91,1
"936",0,1,688,11,9,1,"1dc293a",92,1
"946",1,1,1034,9,9,1,"1dc293a",93,1
"956",0,1,1073,9,1,1,"1dc293a",94,1
"966",0,1,905,1,12,1,"1dc293a",95,1
"976",1,1,798,12,12,1,"1dc293a",96,1
"986",0,1,634,12,7,1,"1dc293a",97,1
"996",0,1,686,7,18,1,"1dc293a",98,1
"1006",0,1,862,18,14,1,"1dc293a",99,1
"10110",1,1,942,14,14,1,"1dc293a",100,1
"1026",0,1,892,14,17,1,"1dc293a",101,1
"1036",1,1,738,17,17,1,"1dc293a",102,1
"1046",0,1,1350,17,10,1,"1dc293a",103,1
"1056",0,1,2007,10,15,1,"1dc293a",104,1
"1066",0,1,1063,15,8,1,"1dc293a",105,1
"1076",0,1,694,8,17,1,"1dc293a",106,1
"1086",0,1,761,17,3,1,"1dc293a",107,1
"1096",0,1,2332,3,13,1,"1dc293a",108,1
"1106",1,1,788,13,13,1,"1dc293a",109,1
"11110",0,1,1568,13,15,1,"1dc293a",110,1
"1126",1,1,763,15,15,1,"1dc293a",111,1
"1136",0,1,1340,15,14,1,"1dc293a",112,1
"1146",0,1,498,14,12,1,"1dc293a",113,1
"1156",1,1,611,12,12,1,"1dc293a",114,1
"1166",0,1,723,12,6,1,"1dc293a",115,1
"1176",0,1,820,6,1,1,"1dc293a",116,1
"1186",1,1,1492,1,1,1,"1dc293a",117,1
"1196",0,1,1578,1,2,1,"1dc293a",118,1
"1206",0,1,1202,2,18,1,"1dc293a",119,1
"12110",1,1,1224,18,18,1,"1dc293a",120,1
"1226",0,1,684,18,16,1,"1dc293a",121,1
"1236",0,1,689,16,9,1,"1dc293a",122,1
"1246",0,1,1818,9,7,1,"1dc293a",123,1
"1256",0,1,800,7,8,1,"1dc293a",124,1
"1266",1,1,1499,8,8,1,"1dc293a",125,1
"1276",0,1,1236,8,4,1,"1dc293a",126,1
"1286",1,1,950,4,4,1,"1dc293a",127,1
"1296",0,1,734,4,5,1,"1dc293a",128,1
"1306",0,0,1687,5,5,1,"1dc293a",129,1
"13110",0,1,1074,5,11,1,"1dc293a",130,1
"1326",0,1,715,11,10,1,"1dc293a",131,1
"1336",1,1,808,10,10,1,"1dc293a",132,1
"1346",0,1,633,10,2,1,"1dc293a",133,1
"1356",1,1,1431,2,2,1,"1dc293a",134,1
"1366",0,1,667,2,15,1,"1dc293a",135,1
"1376",1,1,1404,15,15,1,"1dc293a",136,1
"1386",0,1,731,15,18,1,"1dc293a",137,1
"1396",0,1,555,18,3,1,"1dc293a",138,1
"1406",1,1,740,3,3,1,"1dc293a",139,1
"14110",0,1,743,3,17,1,"1dc293a",140,1
"1426",1,1,1120,17,17,1,"1dc293a",141,1
"1436",0,1,702,17,11,1,"1dc293a",142,1
"1446",0,1,755,11,16,1,"1dc293a",143,1
"1456",0,1,720,16,4,1,"1dc293a",144,1
"1466",0,1,1554,4,9,1,"1dc293a",145,1
"1476",1,1,869,9,9,1,"1dc293a",146,1
"1486",0,1,1440,9,8,1,"1dc293a",147,1
"1496",0,1,795,8,12,1,"1dc293a",148,1
"1506",0,1,861,12,5,1,"1dc293a",149,1
"15110",1,1,1203,5,5,1,"1dc293a",150,1
"1526",0,1,498,5,13,1,"1dc293a",151,1
"1536",1,0,787,13,14,1,"1dc293a",152,1
"1546",1,1,718,14,14,1,"1dc293a",153,1
"1556",0,1,1541,14,1,1,"1dc293a",154,1
"1566",1,1,1082,1,1,1,"1dc293a",155,1
"1576",0,1,827,1,7,1,"1dc293a",156,1
"1586",0,0,2117,7,7,1,"1dc293a",157,1
"1596",0,1,782,7,10,1,"1dc293a",158,1
"1606",1,1,1686,10,10,1,"1dc293a",159,1
"16110",0,1,666,10,6,1,"1dc293a",160,1
"1626",0,1,889,6,7,1,"1dc293a",161,1
"1636",1,1,816,7,7,1,"1dc293a",162,1
"1646",0,1,754,7,6,1,"1dc293a",163,1
"1656",1,1,846,6,6,1,"1dc293a",164,1
"1666",0,1,797,6,12,1,"1dc293a",165,1
"1676",1,1,662,12,12,1,"1dc293a",166,1
"1686",0,1,554,12,3,1,"1dc293a",167,1
"1696",1,1,806,3,3,1,"1dc293a",168,1
"1706",0,1,588,3,14,1,"1dc293a",169,1
"17110",0,1,549,14,5,1,"1dc293a",170,1
"1726",0,1,678,5,18,1,"1dc293a",171,1
"1736",0,1,623,18,4,1,"1dc293a",172,1
"1746",0,1,659,4,1,1,"1dc293a",173,1
"1756",1,1,693,1,1,1,"1dc293a",174,1
"1766",0,1,668,1,11,1,"1dc293a",175,1
"1776",1,1,662,11,11,1,"1dc293a",176,1
"1786",0,1,657,11,16,1,"1dc293a",177,1
"1796",1,1,587,16,16,1,"1dc293a",178,1
"1806",0,1,708,16,2,1,"1dc293a",179,1
"18110",0,1,867,2,9,1,"1dc293a",180,1
"1826",0,1,928,9,15,1,"1dc293a",181,1
"1836",0,1,962,15,8,1,"1dc293a",182,1
"1846",1,1,712,8,8,1,"1dc293a",183,1
"1856",0,1,753,8,13,1,"1dc293a",184,1
"1866",0,1,1118,13,17,1,"1dc293a",185,1
"1876",0,1,1391,17,10,1,"1dc293a",186,1
"1886",0,1,532,10,2,1,"1dc293a",187,1
"1896",1,1,706,2,2,1,"1dc293a",188,1
"1906",0,1,1924,2,12,1,"1dc293a",189,1
"19110",0,1,1039,12,16,1,"1dc293a",190,1
"1926",1,1,545,16,16,1,"1dc293a",191,1
"1936",0,1,655,16,6,1,"1dc293a",192,1
"1946",0,1,714,6,1,1,"1dc293a",193,1
"1956",0,1,662,1,15,1,"1dc293a",194,1
"1966",0,1,731,15,3,1,"1dc293a",195,1
"1976",1,1,775,3,3,1,"1dc293a",196,1
"1986",0,1,737,3,4,1,"1dc293a",197,1
"1996",0,1,1030,4,8,1,"1dc293a",198,1
"2006",1,1,507,8,8,1,"1dc293a",199,1
"20110",0,1,840,8,9,1,"1dc293a",200,1
"2026",1,1,734,9,9,1,"1dc293a",201,1
"2036",0,1,1152,9,7,1,"1dc293a",202,1
"2046",1,1,803,7,7,1,"1dc293a",203,1
"2056",0,1,524,7,14,1,"1dc293a",204,1
"2066",0,1,631,14,5,1,"1dc293a",205,1
"2076",0,0,859,5,5,1,"1dc293a",206,1
"2086",0,1,334,5,17,1,"1dc293a",207,1
"2096",1,1,625,17,17,1,"1dc293a",208,1
"2106",0,1,1188,17,13,1,"1dc293a",209,1
"21110",1,1,672,13,13,1,"1dc293a",210,1
"2126",0,1,577,13,18,1,"1dc293a",211,1
"2136",1,1,435,18,18,1,"1dc293a",212,1
"2146",0,1,1033,18,10,1,"1dc293a",213,1
"2156",0,1,772,10,11,1,"1dc293a",214,1
"2166",1,1,810,11,11,1,"1dc293a",215,1
"2176",0,1,626,11,2,1,"1dc293a",216,1
"2186",1,1,1057,2,2,1,"1dc293a",217,1
"2196",0,1,586,2,15,1,"1dc293a",218,1
"2206",1,1,722,15,15,1,"1dc293a",219,1
"22110",0,1,574,15,5,1,"1dc293a",220,1
"2226",0,1,701,5,11,1,"1dc293a",221,1
"2236",0,1,949,11,8,1,"1dc293a",222,1
"2246",1,1,787,8,8,1,"1dc293a",223,1
"2256",0,1,1058,8,9,1,"1dc293a",224,1
"2266",1,1,583,9,9,1,"1dc293a",225,1
"2276",0,1,1260,9,4,1,"1dc293a",226,1
"2286",0,1,666,4,16,1,"1dc293a",227,1
"2296",0,0,1068,16,16,1,"1dc293a",228,1
"2306",0,1,697,16,18,1,"1dc293a",229,1
"23110",1,1,722,18,18,1,"1dc293a",230,1
"2326",0,1,706,18,3,1,"1dc293a",231,1
"2336",0,1,471,3,7,1,"1dc293a",232,1
"2346",0,1,762,7,12,1,"1dc293a",233,1
"2356",1,1,863,12,12,1,"1dc293a",234,1
"2366",0,1,694,12,6,1,"1dc293a",235,1
"2376",1,1,787,6,6,1,"1dc293a",236,1
"2386",0,1,672,6,1,1,"1dc293a",237,1
"2396",0,1,608,1,14,1,"1dc293a",238,1
"2406",1,1,686,14,14,1,"1dc293a",239,1
"24110",0,1,1527,14,10,1,"1dc293a",240,1
"2426",1,1,877,10,10,1,"1dc293a",241,1
"2436",0,1,1471,10,17,1,"1dc293a",242,1
"2446",0,1,775,17,13,1,"1dc293a",243,1
"2456",1,1,740,13,13,1,"1dc293a",244,1
"2466",0,1,583,13,3,1,"1dc293a",245,1
"2476",1,1,652,3,3,1,"1dc293a",246,1
"2486",0,1,591,3,1,1,"1dc293a",247,1
"2496",1,1,686,1,1,1,"1dc293a",248,1
"2506",0,1,751,1,8,1,"1dc293a",249,1
"25110",1,1,696,8,8,1,"1dc293a",250,1
"2526",0,1,1475,8,9,1,"1dc293a",251,1
"2536",0,1,798,9,2,1,"1dc293a",252,1
"2546",1,1,788,2,2,1,"1dc293a",253,1
"2556",0,1,748,2,7,1,"1dc293a",254,1
"2566",0,1,649,7,14,1,"1dc293a",255,1
"2576",1,1,640,14,14,1,"1dc293a",256,1
"2586",0,1,976,14,12,1,"1dc293a",257,1
"2596",0,1,582,12,4,1,"1dc293a",258,1
"2606",1,1,726,4,4,1,"1dc293a",259,1
"26110",0,1,784,4,5,1,"1dc293a",260,1
"2626",0,1,700,5,6,1,"1dc293a",261,1
"2636",1,1,1302,6,6,1,"1dc293a",262,1
"2646",0,1,573,6,13,1,"1dc293a",263,1
"2655",0,1,880,13,17,1,"1dc293a",264,1
"2665",1,1,894,17,17,1,"1dc293a",265,1
"2675",0,1,1374,17,16,1,"1dc293a",266,1
"2685",0,1,1217,16,10,1,"1dc293a",267,1
"2695",0,1,742,10,18,1,"1dc293a",268,1
"2704",1,1,923,18,18,1,"1dc293a",269,1
"2719",0,1,970,18,11,1,"1dc293a",270,1
"2724",0,1,603,11,15,1,"1dc293a",271,1
"2734",1,1,645,15,15,1,"1dc293a",272,1
"297",-1,-1,0,0,30,1,"18d3da3",1,2
"327",1,1,500,30,30,1,"18d3da3",2,2
"427",0,1,700,30,23,1,"18d3da3",3,2
"527",0,1,700,23,20,1,"18d3da3",4,2
"627",1,1,500,20,20,1,"18d3da3",5,2
"727",0,1,500,20,31,1,"18d3da3",6,2
"827",0,1,600,31,24,1,"18d3da3",7,2
"927",0,0,800,24,24,1,"18d3da3",8,2
"1027",0,1,900,24,26,1,"18d3da3",9,2
"1127",1,0,700,26,35,1,"18d3da3",10,2
"1227",1,1,1700,35,35,1,"18d3da3",11,2
"1327",0,1,800,35,21,1,"18d3da3",12,2
"1427",0,1,1600,21,25,1,"18d3da3",13,2
"1527",1,1,1200,25,25,1,"18d3da3",14,2
"1627",0,1,1100,25,29,1,"18d3da3",15,2
"1727",1,1,600,29,29,1,"18d3da3",16,2
"1827",0,1,700,29,32,1,"18d3da3",17,2
"1927",0,1,600,32,19,1,"18d3da3",18,2
"2027",0,1,700,19,22,1,"18d3da3",19,2
"2127",0,1,800,22,34,1,"18d3da3",20,2
"2227",1,1,1000,34,34,1,"18d3da3",21,2
"2327",1,0,700,34,33,1,"18d3da3",22,2
"2427",1,1,500,33,33,1,"18d3da3",23,2
"2527",0,1,600,33,27,1,"18d3da3",24,2
"2627",-1,0,1400,27,27,1,"18d3da3",25,2
"2720",0,1,700,27,36,1,"18d3da3",26,2
"2813",1,1,1700,36,36,1,"18d3da3",27,2
"298",0,1,700,36,28,1,"18d3da3",28,2
"307",1,1,500,28,28,1,"18d3da3",29,2
"3111",0,1,800,28,35,1,"18d3da3",30,2
"328",0,1,800,35,29,1,"18d3da3",31,2
"337",1,1,800,29,29,1,"18d3da3",32,2
"347",0,1,600,29,31,1,"18d3da3",33,2
"357",0,1,400,31,36,1,"18d3da3",34,2
"367",1,1,500,36,36,1,"18d3da3",35,2
"377",1,0,900,36,19,1,"18d3da3",36,2
"387",1,1,1800,19,19,1,"18d3da3",37,2
"397",0,1,1800,19,30,1,"18d3da3",38,2
"407",1,1,800,30,30,1,"18d3da3",39,2
"4111",0,1,500,30,26,1,"18d3da3",40,2
"428",1,0,800,26,34,1,"18d3da3",41,2
"437",0,1,500,34,27,1,"18d3da3",42,2
"447",1,1,700,27,27,1,"18d3da3",43,2
"457",0,1,500,27,23,1,"18d3da3",44,2
"467",1,1,700,23,23,1,"18d3da3",45,2
"477",0,1,300,23,33,1,"18d3da3",46,2
"487",1,1,600,33,33,1,"18d3da3",47,2
"497",0,1,700,33,28,1,"18d3da3",48,2
"507",0,1,500,28,24,1,"18d3da3",49,2
"5111",0,1,400,24,21,1,"18d3da3",50,2
"528",0,1,300,21,32,1,"18d3da3",51,2
"537",1,0,500,32,20,1,"18d3da3",52,2
"547",0,1,700,20,25,1,"18d3da3",53,2
"557",1,1,700,25,25,1,"18d3da3",54,2
"567",0,1,500,25,22,1,"18d3da3",55,2
"577",1,1,500,22,22,1,"18d3da3",56,2
"587",0,1,500,22,28,1,"18d3da3",57,2
"597",0,1,500,28,24,1,"18d3da3",58,2
"607",0,1,500,24,19,1,"18d3da3",59,2
"6111",1,0,600,19,36,1,"18d3da3",60,2
"628",0,0,800,36,36,1,"18d3da3",61,2
"637",0,1,900,36,31,1,"18d3da3",62,2
"647",1,1,500,31,31,1,"18d3da3",63,2
"657",0,1,600,31,21,1,"18d3da3",64,2
"667",1,1,500,21,21,1,"18d3da3",65,2
"677",0,1,400,21,32,1,"18d3da3",66,2
"687",0,1,500,32,34,1,"18d3da3",67,2
"697",1,1,700,34,34,1,"18d3da3",68,2
"707",0,1,700,34,33,1,"18d3da3",69,2
"7111",1,1,500,33,33,1,"18d3da3",70,2
"728",0,1,400,33,22,1,"18d3da3",71,2
"737",1,1,400,22,22,1,"18d3da3",72,2
"747",1,0,900,22,20,1,"18d3da3",73,2
"757",1,1,500,20,20,1,"18d3da3",74,2
"767",0,1,600,20,35,1,"18d3da3",75,2
"777",1,1,500,35,35,1,"18d3da3",76,2
"787",0,1,500,35,25,1,"18d3da3",77,2
"797",1,1,600,25,25,1,"18d3da3",78,2
"807",0,1,400,25,30,1,"18d3da3",79,2
"8111",0,1,500,30,23,1,"18d3da3",80,2
"828",1,1,700,23,23,1,"18d3da3",81,2
"837",0,1,700,23,26,1,"18d3da3",82,2
"847",-1,-1,0,26,26,1,"18d3da3",83,2
"857",0,1,600,26,29,1,"18d3da3",84,2
"867",1,0,400,29,27,1,"18d3da3",85,2
"877",1,1,900,27,27,1,"18d3da3",86,2
"887",0,1,600,27,28,1,"18d3da3",87,2
"897",0,1,400,28,30,1,"18d3da3",88,2
"907",1,1,500,30,30,1,"18d3da3",89,2
"9111",0,1,500,30,23,1,"18d3da3",90,2
"928",0,1,400,23,27,1,"18d3da3",91,2
"937",1,1,600,27,27,1,"18d3da3",92,2
"947",1,0,700,27,29,1,"18d3da3",93,2
"957",1,1,700,29,29,1,"18d3da3",94,2
"967",0,1,700,29,20,1,"18d3da3",95,2
"977",1,1,600,20,20,1,"18d3da3",96,2
"987",0,1,500,20,24,1,"18d3da3",97,2
"997",1,0,1000,24,32,1,"18d3da3",98,2
"1007",0,1,600,32,22,1,"18d3da3",99,2
"10111",1,1,700,22,22,1,"18d3da3",100,2
"1028",0,1,1500,22,21,1,"18d3da3",101,2
"1037",0,1,400,21,33,1,"18d3da3",102,2
"1047",0,1,500,33,25,1,"18d3da3",103,2
"1057",1,1,500,25,25,1,"18d3da3",104,2
"1067",0,1,300,25,35,1,"18d3da3",105,2
"1077",0,1,600,35,34,1,"18d3da3",106,2
"1087",1,1,700,34,34,1,"18d3da3",107,2
"1097",0,1,500,34,26,1,"18d3da3",108,2
"1107",1,0,700,26,19,1,"18d3da3",109,2
"11111",1,1,400,19,19,1,"18d3da3",110,2
"1128",0,1,2400,19,36,1,"18d3da3",111,2
"1137",1,0,600,36,31,1,"18d3da3",112,2
"1147",-1,-1,0,31,35,1,"18d3da3",113,2
"1157",1,0,500,35,32,1,"18d3da3",114,2
"1167",1,0,100,32,29,1,"18d3da3",115,2
"1177",0,1,1000,29,20,1,"18d3da3",116,2
"1187",0,1,900,20,30,1,"18d3da3",117,2
"1197",0,1,800,30,28,1,"18d3da3",118,2
"1207",1,1,600,28,28,1,"18d3da3",119,2
"12111",1,0,1100,28,26,1,"18d3da3",120,2
"1228",0,0,700,26,26,1,"18d3da3",121,2
"1237",1,0,200,26,25,1,"18d3da3",122,2
"1247",0,0,100,25,25,1,"18d3da3",123,2
"1257",1,0,700,25,33,1,"18d3da3",124,2
"1267",1,1,2300,33,33,1,"18d3da3",125,2
"1277",0,1,400,33,24,1,"18d3da3",126,2
"1287",1,1,200,24,24,1,"18d3da3",127,2
"1297",0,1,300,24,27,1,"18d3da3",128,2
"1307",0,1,300,27,31,1,"18d3da3",129,2
"13111",1,0,400,31,23,1,"18d3da3",130,2
"1328",0,1,400,23,36,1,"18d3da3",131,2
"1337",0,0,1400,36,36,1,"18d3da3",132,2
"1347",0,1,500,36,21,1,"18d3da3",133,2
"1357",0,1,500,21,19,1,"18d3da3",134,2
"1367",0,0,2000,19,19,1,"18d3da3",135,2
"1377",-1,-1,0,19,22,1,"18d3da3",136,2
"1387",0,1,1000,22,34,1,"18d3da3",137,2
"1397",0,0,400,34,34,1,"18d3da3",138,2
"1407",0,1,200,34,23,1,"18d3da3",139,2
"14111",0,1,1700,23,34,1,"18d3da3",140,2
"1428",0,0,1000,34,34,1,"18d3da3",141,2
"1437",1,0,1100,34,26,1,"18d3da3",142,2
"1447",0,1,1900,26,25,1,"18d3da3",143,2
"1457",-1,-1,0,25,25,1,"18d3da3",144,2
"1467",1,0,300,25,30,1,"18d3da3",145,2
"1477",1,0,1100,30,33,1,"18d3da3",146,2
"1487",0,1,500,33,24,1,"18d3da3",147,2
"1497",1,0,500,24,22,1,"18d3da3",148,2
"1507",1,0,600,22,19,1,"18d3da3",149,2
"15111",1,1,500,19,19,1,"18d3da3",150,2
"1528",1,0,2300,19,20,1,"18d3da3",151,2
"1537",0,1,500,20,31,1,"18d3da3",152,2
"1547",0,1,500,31,28,1,"18d3da3",153,2
"1557",1,1,600,28,28,1,"18d3da3",154,2
"1567",0,1,400,28,32,1,"18d3da3",155,2
"1577",0,1,600,32,29,1,"18d3da3",156,2
"1587",1,0,600,29,36,1,"18d3da3",157,2
"1597",0,1,800,36,35,1,"18d3da3",158,2
"1607",1,1,500,35,35,1,"18d3da3",159,2
"16111",0,1,500,35,27,1,"18d3da3",160,2
"1628",1,1,600,27,27,1,"18d3da3",161,2
"1637",0,1,500,27,21,1,"18d3da3",162,2
"1647",1,1,400,21,21,1,"18d3da3",163,2
"1657",0,1,400,21,35,1,"18d3da3",164,2
"1667",0,0,700,35,35,1,"18d3da3",165,2
"1677",0,1,600,35,23,1,"18d3da3",166,2
"1687",0,1,500,23,31,1,"18d3da3",167,2
"1697",0,1,500,31,25,1,"18d3da3",168,2
"1707",1,1,500,25,25,1,"18d3da3",169,2
"17111",0,1,800,25,26,1,"18d3da3",170,2
"1728",0,1,700,26,32,1,"18d3da3",171,2
"1737",0,0,1500,32,32,1,"18d3da3",172,2
"1747",-1,-1,0,32,36,1,"18d3da3",173,2
"1757",1,0,300,36,28,1,"18d3da3",174,2
"1767",0,0,700,28,28,1,"18d3da3",175,2
"1777",0,1,400,28,33,1,"18d3da3",176,2
"1787",0,1,400,33,27,1,"18d3da3",177,2
"1797",1,1,400,27,27,1,"18d3da3",178,2
"1807",1,0,1400,27,34,1,"18d3da3",179,2
"18111",1,0,1100,34,24,1,"18d3da3",180,2
"1828",1,0,600,24,19,1,"18d3da3",181,2
"1837",0,1,600,19,21,1,"18d3da3",182,2
"1847",1,1,700,21,21,1,"18d3da3",183,2
"1857",0,1,500,21,30,1,"18d3da3",184,2
"1867",1,1,600,30,30,1,"18d3da3",185,2
"1877",1,0,700,30,22,1,"18d3da3",186,2
"1887",0,1,200,22,20,1,"18d3da3",187,2
"1897",0,1,500,20,29,1,"18d3da3",188,2
"1907",1,1,500,29,29,1,"18d3da3",189,2
"19111",1,0,500,29,24,1,"18d3da3",190,2
"1928",1,1,500,24,24,1,"18d3da3",191,2
"1937",0,1,400,24,21,1,"18d3da3",192,2
"1947",1,1,500,21,21,1,"18d3da3",193,2
"1957",0,1,700,21,35,1,"18d3da3",194,2
"1967",0,1,600,35,20,1,"18d3da3",195,2
"1977",1,1,400,20,20,1,"18d3da3",196,2
"1987",0,1,200,20,32,1,"18d3da3",197,2
"1997",1,0,500,32,27,1,"18d3da3",198,2
"2007",0,0,700,27,27,1,"18d3da3",199,2
"20111",0,1,400,27,25,1,"18d3da3",200,2
"2028",1,1,500,25,25,1,"18d3da3",201,2
"2037",0,1,500,25,19,1,"18d3da3",202,2
"2047",0,1,400,19,30,1,"18d3da3",203,2
"2057",0,1,300,30,28,1,"18d3da3",204,2
"2067",1,0,700,28,36,1,"18d3da3",205,2
"2077",1,1,600,36,36,1,"18d3da3",206,2
"2087",0,1,500,36,26,1,"18d3da3",207,2
"2097",0,1,500,26,31,1,"18d3da3",208,2
"2107",0,1,600,31,22,1,"18d3da3",209,2
"21111",0,1,2200,22,34,1,"18d3da3",210,2
"2128",0,0,600,34,34,1,"18d3da3",211,2
"2137",0,1,400,34,29,1,"18d3da3",212,2
"2147",0,1,700,29,33,1,"18d3da3",213,2
"2157",1,1,600,33,33,1,"18d3da3",214,2
"2167",0,1,500,33,23,1,"18d3da3",215,2
"2177",0,1,600,23,20,1,"18d3da3",216,2
"2187",1,1,500,20,20,1,"18d3da3",217,2
"2197",0,1,500,20,30,1,"18d3da3",218,2
"2207",1,1,600,30,30,1,"18d3da3",219,2
"22111",0,1,400,30,27,1,"18d3da3",220,2
"2228",0,1,500,27,19,1,"18d3da3",221,2
"2237",1,1,600,19,19,1,"18d3da3",222,2
"2247",0,1,500,19,35,1,"18d3da3",223,2
"2257",0,1,400,35,29,1,"18d3da3",224,2
"2267",0,1,400,29,33,1,"18d3da3",225,2
"2277",0,1,500,33,24,1,"18d3da3",226,2
"2287",0,0,500,24,24,1,"18d3da3",227,2
"2297",0,1,400,24,26,1,"18d3da3",228,2
"2307",0,1,300,26,25,1,"18d3da3",229,2
"23111",1,1,400,25,25,1,"18d3da3",230,2
"2328",0,1,400,25,34,1,"18d3da3",231,2
"2337",0,1,400,34,22,1,"18d3da3",232,2
"2347",1,1,700,22,22,1,"18d3da3",233,2
"2357",0,1,500,22,21,1,"18d3da3",234,2
"2367",0,1,400,21,31,1,"18d3da3",235,2
"2377",1,1,500,31,31,1,"18d3da3",236,2
"2387",1,0,700,31,32,1,"18d3da3",237,2
"2397",1,1,600,32,32,1,"18d3da3",238,2
"2407",0,1,1500,32,36,1,"18d3da3",239,2
"24111",0,0,2400,36,36,1,"18d3da3",240,2
"2428",1,0,400,36,28,1,"18d3da3",241,2
"2437",0,1,400,28,23,1,"18d3da3",242,2
"2447",0,0,600,23,23,1,"18d3da3",243,2
"2457",0,0,700,23,23,1,"18d3da3",244,2
"2467",1,0,600,23,36,1,"18d3da3",245,2
"2477",1,1,500,36,36,1,"18d3da3",246,2
"2487",0,1,800,36,29,1,"18d3da3",247,2
"2497",0,1,500,29,25,1,"18d3da3",248,2
"2507",0,1,500,25,22,1,"18d3da3",249,2
"25111",0,1,800,22,20,1,"18d3da3",250,2
"2528",1,0,2100,20,31,1,"18d3da3",251,2
"2537",0,1,900,31,19,1,"18d3da3",252,2
"2547",0,1,500,19,21,1,"18d3da3",253,2
"2557",0,1,400,21,28,1,"18d3da3",254,2
"2567",0,1,400,28,34,1,"18d3da3",255,2
"2577",1,1,600,34,34,1,"18d3da3",256,2
"2587",0,1,400,34,24,1,"18d3da3",257,2
"2597",1,0,1500,24,30,1,"18d3da3",258,2
"2607",0,1,400,30,35,1,"18d3da3",259,2
"26111",0,1,400,35,32,1,"18d3da3",260,2
"2628",0,1,300,32,26,1,"18d3da3",261,2
"2637",1,1,500,26,26,1,"18d3da3",262,2
"2647",0,1,400,26,33,1,"18d3da3",263,2
"2656",1,1,500,33,33,1,"18d3da3",264,2
"2666",0,1,500,33,27,1,"18d3da3",265,2
"2676",1,1,600,27,27,1,"18d3da3",266,2
"299",-1,-1,0,0,31,1,"9e5f933",1,2
"329",1,0,507,31,36,1,"9e5f933",2,2
"429",0,0,386,36,36,1,"9e5f933",3,2
"529",0,1,402,36,24,1,"9e5f933",4,2
"629",0,0,471,24,24,1,"9e5f933",5,2
"729",1,0,636,24,33,1,"9e5f933",6,2
"829",1,0,350,33,21,1,"9e5f933",7,2
"929",1,1,354,21,21,1,"9e5f933",8,2
"1029",0,1,558,21,27,1,"9e5f933",9,2
"1129",0,1,663,27,32,1,"9e5f933",10,2
"1229",0,0,603,32,32,1,"9e5f933",11,2
"1329",0,1,478,32,35,1,"9e5f933",12,2
"1429",0,0,642,35,35,1,"9e5f933",13,2
"1529",0,1,522,35,30,1,"9e5f933",14,2
"1629",1,0,529,30,19,1,"9e5f933",15,2
"1729",1,1,799,19,19,1,"9e5f933",16,2
"1829",1,0,578,19,29,1,"9e5f933",17,2
"1929",0,1,614,29,26,1,"9e5f933",18,2
"2029",0,1,430,26,20,1,"9e5f933",19,2
"2129",1,0,438,20,23,1,"9e5f933",20,2
"2229",0,1,382,23,25,1,"9e5f933",21,2
"2329",0,1,484,25,28,1,"9e5f933",22,2
"2429",1,1,593,28,28,1,"9e5f933",23,2
"2529",1,0,729,28,34,1,"9e5f933",24,2
"2629",0,1,800,34,22,1,"9e5f933",25,2
"2725",0,0,870,22,22,1,"9e5f933",26,2
"2814",0,1,522,22,28,1,"9e5f933",27,2
"2910",0,1,526,28,24,1,"9e5f933",28,2
"308",0,1,479,24,25,1,"9e5f933",29,2
"3112",0,0,610,25,25,1,"9e5f933",30,2
"3210",0,1,582,25,19,1,"9e5f933",31,2
"338",1,1,651,19,19,1,"9e5f933",32,2
"348",0,1,463,19,34,1,"9e5f933",33,2
"358",0,1,594,34,30,1,"9e5f933",34,2
"368",0,1,567,30,20,1,"9e5f933",35,2
"378",0,0,610,20,20,1,"9e5f933",36,2
"388",1,0,682,20,29,1,"9e5f933",37,2
"398",0,0,594,29,29,1,"9e5f933",38,2
"408",0,1,572,29,23,1,"9e5f933",39,2
"4112",0,0,420,23,23,1,"9e5f933",40,2
"4210",0,1,618,23,27,1,"9e5f933",41,2
"438",0,0,749,27,27,1,"9e5f933",42,2
"448",0,1,533,27,22,1,"9e5f933",43,2
"458",1,1,310,22,22,1,"9e5f933",44,2
"468",0,1,417,22,36,1,"9e5f933",45,2
"478",0,1,555,36,33,1,"9e5f933",46,2
"488",0,1,431,33,32,1,"9e5f933",47,2
"498",0,0,659,32,32,1,"9e5f933",48,2
"508",0,1,472,32,26,1,"9e5f933",49,2
"5112",0,1,906,26,21,1,"9e5f933",50,2
"5210",0,1,627,21,31,1,"9e5f933",51,2
"538",0,1,728,31,35,1,"9e5f933",52,2
"548",0,1,605,35,26,1,"9e5f933",53,2
"558",1,0,612,26,19,1,"9e5f933",54,2
"568",0,0,682,19,19,1,"9e5f933",55,2
"578",0,1,626,19,22,1,"9e5f933",56,2
"588",0,1,342,22,24,1,"9e5f933",57,2
"598",1,0,410,24,31,1,"9e5f933",58,2
"608",0,1,703,31,23,1,"9e5f933",59,2
"6112",0,1,673,23,21,1,"9e5f933",60,2
"6210",0,0,522,21,21,1,"9e5f933",61,2
"638",0,1,567,21,28,1,"9e5f933",62,2
"648",0,1,574,28,30,1,"9e5f933",63,2
"658",0,0,418,30,30,1,"9e5f933",64,2
"668",0,1,554,30,36,1,"9e5f933",65,2
"678",0,0,558,36,36,1,"9e5f933",66,2
"688",0,1,342,36,29,1,"9e5f933",67,2
"698",0,1,670,29,20,1,"9e5f933",68,2
"708",0,1,581,20,27,1,"9e5f933",69,2
"7112",0,1,843,27,25,1,"9e5f933",70,2
"7210",1,1,914,25,25,1,"9e5f933",71,2
"738",0,1,503,25,35,1,"9e5f933",72,2
"748",0,0,508,35,35,1,"9e5f933",73,2
"758",1,0,673,35,33,1,"9e5f933",74,2
"768",0,1,550,33,34,1,"9e5f933",75,2
"778",0,1,427,34,32,1,"9e5f933",76,2
"788",0,1,667,32,31,1,"9e5f933",77,2
"798",0,0,449,31,31,1,"9e5f933",78,2
"808",0,1,615,31,22,1,"9e5f933",79,2
"8112",1,0,430,22,30,1,"9e5f933",80,2
"8210",0,1,598,30,28,1,"9e5f933",81,2
"838",0,0,602,28,28,1,"9e5f933",82,2
"848",0,1,447,28,20,1,"9e5f933",83,2
"858",0,1,578,20,25,1,"9e5f933",84,2
"868",1,1,647,25,25,1,"9e5f933",85,2
"878",0,1,592,25,19,1,"9e5f933",86,2
"888",0,1,694,19,27,1,"9e5f933",87,2
"898",0,1,634,27,32,1,"9e5f933",88,2
"908",0,0,513,32,32,1,"9e5f933",89,2
"9112",0,1,660,32,21,1,"9e5f933",90,2
"9210",0,1,599,21,26,1,"9e5f933",91,2
"938",1,1,669,26,26,1,"9e5f933",92,2
"948",0,1,581,26,23,1,"9e5f933",93,2
"958",0,1,554,23,36,1,"9e5f933",94,2
"968",0,0,594,36,36,1,"9e5f933",95,2
"978",1,0,826,36,33,1,"9e5f933",96,2
"988",0,1,510,33,34,1,"9e5f933",97,2
"998",0,1,451,34,24,1,"9e5f933",98,2
"1008",0,1,493,24,35,1,"9e5f933",99,2
"10112",0,1,343,35,29,1,"9e5f933",100,2
"10210",0,1,578,29,31,1,"9e5f933",101,2
"1038",1,0,520,31,30,1,"9e5f933",102,2
"1048",1,1,626,30,30,1,"9e5f933",103,2
"1058",0,1,597,30,34,1,"9e5f933",104,2
"1068",1,1,571,34,34,1,"9e5f933",105,2
"1078",0,1,644,34,25,1,"9e5f933",106,2
"1088",0,1,687,25,19,1,"9e5f933",107,2
"1098",1,1,854,19,19,1,"9e5f933",108,2
"1108",0,1,803,19,32,1,"9e5f933",109,2
"11112",0,0,1098,32,32,1,"9e5f933",110,2
"11210",0,1,849,32,35,1,"9e5f933",111,2
"1138",1,0,882,35,26,1,"9e5f933",112,2
"1148",0,0,700,26,26,1,"9e5f933",113,2
"1158",1,0,610,26,36,1,"9e5f933",114,2
"1168",0,0,520,36,36,1,"9e5f933",115,2
"1178",0,1,432,36,27,1,"9e5f933",116,2
"1188",1,0,534,27,33,1,"9e5f933",117,2
"1198",1,1,639,33,33,1,"9e5f933",118,2
"1208",0,1,676,33,24,1,"9e5f933",119,2
"12112",0,1,554,24,29,1,"9e5f933",120,2
"12210",1,1,528,29,29,1,"9e5f933",121,2
"1238",0,1,630,29,21,1,"9e5f933",122,2
"1248",0,1,635,21,23,1,"9e5f933",123,2
"1258",1,1,514,23,23,1,"9e5f933",124,2
"1268",0,1,724,23,22,1,"9e5f933",125,2
"1278",1,1,668,22,22,1,"9e5f933",126,2
"1288",0,1,644,22,20,1,"9e5f933",127,2
"1298",0,1,650,20,28,1,"9e5f933",128,2
"1308",0,1,625,28,21,1,"9e5f933",129,2
"13112",1,1,602,21,21,1,"9e5f933",130,2
"13210",0,1,544,21,36,1,"9e5f933",131,2
"1338",1,1,482,36,36,1,"9e5f933",132,2
"1348",0,1,1030,36,29,1,"9e5f933",133,2
"1358",1,1,813,29,29,1,"9e5f933",134,2
"1368",0,1,530,29,28,1,"9e5f933",135,2
"1378",1,1,503,28,28,1,"9e5f933",136,2
"1388",0,1,446,28,30,1,"9e5f933",137,2
"1398",1,0,487,30,20,1,"9e5f933",138,2
"1408",0,1,524,20,34,1,"9e5f933",139,2
"14112",1,1,594,34,34,1,"9e5f933",140,2
"14210",0,1,674,34,32,1,"9e5f933",141,2
"1438",0,1,552,32,23,1,"9e5f933",142,2
"1448",0,1,526,23,26,1,"9e5f933",143,2
"1458",0,1,565,26,31,1,"9e5f933",144,2
"1468",0,0,605,31,31,1,"9e5f933",145,2
"1478",0,1,513,31,35,1,"9e5f933",146,2
"1488",1,1,553,35,35,1,"9e5f933",147,2
"1498",0,1,430,35,27,1,"9e5f933",148,2
"1508",1,0,439,27,19,1,"9e5f933",149,2
"15112",0,0,443,19,19,1,"9e5f933",150,2
"15210",0,1,448,19,25,1,"9e5f933",151,2
"1538",1,1,580,25,25,1,"9e5f933",152,2
"1548",0,1,905,25,22,1,"9e5f933",153,2
"1558",0,1,561,22,33,1,"9e5f933",154,2
"1568",1,0,345,33,24,1,"9e5f933",155,2
"1578",0,1,480,24,20,1,"9e5f933",156,2
"1588",1,1,550,20,20,1,"9e5f933",157,2
"1598",0,1,461,20,25,1,"9e5f933",158,2
"1608",1,1,691,25,25,1,"9e5f933",159,2
"16112",0,1,535,25,34,1,"9e5f933",160,2
"16210",0,1,478,34,31,1,"9e5f933",161,2
"1638",0,1,620,31,21,1,"9e5f933",162,2
"1648",0,0,659,21,21,1,"9e5f933",163,2
"1658",0,1,569,21,32,1,"9e5f933",164,2
"1668",1,1,611,32,32,1,"9e5f933",165,2
"1678",0,1,647,32,27,1,"9e5f933",166,2
"1688",1,1,589,27,27,1,"9e5f933",167,2
"1698",0,1,690,27,29,1,"9e5f933",168,2
"1708",1,1,633,29,29,1,"9e5f933",169,2
"17112",0,1,800,29,35,1,"9e5f933",170,2
"17210",1,0,585,35,19,1,"9e5f933",171,2
"1738",0,0,401,19,19,1,"9e5f933",172,2
"1748",0,1,441,19,26,1,"9e5f933",173,2
"1758",1,1,577,26,26,1,"9e5f933",174,2
"1768",0,1,902,26,33,1,"9e5f933",175,2
"1778",0,1,650,33,28,1,"9e5f933",176,2
"1788",-1,-1,0,28,23,1,"9e5f933",177,2
"1798",0,0,179,23,23,1,"9e5f933",178,2
"1808",0,1,437,23,24,1,"9e5f933",179,2
"18112",1,1,634,24,24,1,"9e5f933",180,2
"18210",0,1,547,24,30,1,"9e5f933",181,2
"1838",0,1,395,30,22,1,"9e5f933",182,2
"1848",0,1,563,22,36,1,"9e5f933",183,2
"1858",0,0,474,36,36,1,"9e5f933",184,2
"1868",0,1,450,36,25,1,"9e5f933",185,2
"1878",0,1,648,25,30,1,"9e5f933",186,2
"1888",1,0,622,30,24,1,"9e5f933",187,2
"1898",0,1,306,24,19,1,"9e5f933",188,2
"1908",1,0,634,19,26,1,"9e5f933",189,2
"19112",0,1,382,26,21,1,"9e5f933",190,2
"19210",0,1,484,21,35,1,"9e5f933",191,2
"1938",0,1,582,35,20,1,"9e5f933",192,2
"1948",1,1,430,20,20,1,"9e5f933",193,2
"1958",0,1,468,20,22,1,"9e5f933",194,2
"1968",1,0,475,22,27,1,"9e5f933",195,2
"1978",0,0,544,27,27,1,"9e5f933",196,2
"1988",0,1,392,27,23,1,"9e5f933",197,2
"1998",0,1,654,23,34,1,"9e5f933",198,2
"2008",0,1,469,34,33,1,"9e5f933",199,2
"20112",0,0,476,33,33,1,"9e5f933",200,2
"20210",1,0,1091,33,29,1,"9e5f933",201,2
"2038",0,1,2290,29,36,1,"9e5f933",202,2
"2048",0,0,622,36,36,1,"9e5f933",203,2
"2058",0,1,724,36,32,1,"9e5f933",204,2
"2068",1,1,540,32,32,1,"9e5f933",205,2
"2078",0,1,866,32,28,1,"9e5f933",206,2
"2088",1,1,586,28,28,1,"9e5f933",207,2
"2098",0,1,558,28,31,1,"9e5f933",208,2
"2108",0,0,561,31,31,1,"9e5f933",209,2
"21112",0,1,374,31,19,1,"9e5f933",210,2
"21210",0,1,414,19,26,1,"9e5f933",211,2
"2138",0,0,549,26,26,1,"9e5f933",212,2
"2148",0,1,661,26,21,1,"9e5f933",213,2
"2158",0,1,506,21,34,1,"9e5f933",214,2
"2168",1,0,640,34,36,1,"9e5f933",215,2
"2178",0,0,454,36,36,1,"9e5f933",216,2
"2188",0,1,523,36,29,1,"9e5f933",217,2
"2198",1,0,723,29,24,1,"9e5f933",218,2
"2208",0,1,471,24,30,1,"9e5f933",219,2
"22112",0,1,1255,30,23,1,"9e5f933",220,2
"22210",1,1,772,23,23,1,"9e5f933",221,2
"2238",0,1,456,23,28,1,"9e5f933",222,2
"2248",1,1,848,28,28,1,"9e5f933",223,2
"2258",0,1,1116,28,20,1,"9e5f933",224,2
"2268",1,0,666,20,31,1,"9e5f933",225,2
"2278",0,1,417,31,27,1,"9e5f933",226,2
"2288",1,0,389,27,22,1,"9e5f933",227,2
"2298",0,1,623,22,25,1,"9e5f933",228,2
"2308",0,1,402,25,32,1,"9e5f933",229,2
"23112",1,0,989,32,35,1,"9e5f933",230,2
"23210",1,1,614,35,35,1,"9e5f933",231,2
"2338",1,0,718,35,33,1,"9e5f933",232,2
"2348",0,0,469,33,33,1,"9e5f933",233,2
"2358",0,1,445,33,24,1,"9e5f933",234,2
"2368",1,1,678,24,24,1,"9e5f933",235,2
"2378",0,1,715,24,21,1,"9e5f933",236,2
"2388",1,0,689,21,26,1,"9e5f933",237,2
"2398",0,1,471,26,23,1,"9e5f933",238,2
"2408",0,1,511,23,19,1,"9e5f933",239,2
"24112",1,0,612,19,20,1,"9e5f933",240,2
"24210",0,1,491,20,32,1,"9e5f933",241,2
"2438",0,1,372,32,36,1,"9e5f933",242,2
"2448",1,0,347,36,22,1,"9e5f933",243,2
"2458",1,1,445,22,22,1,"9e5f933",244,2
"2468",0,1,290,22,27,1,"9e5f933",245,2
"2478",1,0,718,27,31,1,"9e5f933",246,2
"2488",0,1,626,31,28,1,"9e5f933",247,2
"2498",1,0,462,28,29,1,"9e5f933",248,2
"2508",0,1,760,29,25,1,"9e5f933",249,2
"25112",1,0,733,25,34,1,"9e5f933",250,2
"25210",1,1,801,34,34,1,"9e5f933",251,2
"2538",0,1,613,34,30,1,"9e5f933",252,2
"2548",1,1,652,30,30,1,"9e5f933",253,2
"2558",0,1,497,30,35,1,"9e5f933",254,2
"2568",1,0,694,35,33,1,"9e5f933",255,2
"2100",-1,-1,0,0,24,1,"173d9d9",1,2
"330",1,1,723,24,24,1,"173d9d9",2,2
"430",0,1,1070,24,35,1,"173d9d9",3,2
"530",0,1,1447,35,20,1,"173d9d9",4,2
"630",1,0,1216,20,27,1,"173d9d9",5,2
"730",0,0,1307,27,27,1,"173d9d9",6,2
"830",1,0,787,27,29,1,"173d9d9",7,2
"930",1,1,1006,29,29,1,"173d9d9",8,2
"1030",0,1,1729,29,34,1,"173d9d9",9,2
"1130",-1,-1,0,34,34,1,"173d9d9",10,2
"1230",1,0,1189,34,19,1,"173d9d9",11,2
"1330",1,1,861,19,19,1,"173d9d9",12,2
"1430",0,1,656,19,26,1,"173d9d9",13,2
"1530",0,0,761,26,26,1,"173d9d9",14,2
"1630",0,1,964,26,25,1,"173d9d9",15,2
"1730",0,1,1142,25,28,1,"173d9d9",16,2
"1830",1,1,974,28,28,1,"173d9d9",17,2
"1930",0,1,656,28,23,1,"173d9d9",18,2
"2030",0,1,866,23,30,1,"173d9d9",19,2
"2130",1,0,1012,30,32,1,"173d9d9",20,2
"2230",1,1,917,32,32,1,"173d9d9",21,2
"2330",0,1,1032,32,31,1,"173d9d9",22,2
"2430",1,1,1122,31,31,1,"173d9d9",23,2
"2530",0,1,1052,31,36,1,"173d9d9",24,2
"2630",0,0,1069,36,36,1,"173d9d9",25,2
"2726",0,1,871,36,21,1,"173d9d9",26,2
"2815",0,1,697,21,22,1,"173d9d9",27,2
"2911",0,1,708,22,33,1,"173d9d9",28,2
"309",1,1,2101,33,33,1,"173d9d9",29,2
"3113",0,1,478,33,32,1,"173d9d9",30,2
"3211",0,0,760,32,32,1,"173d9d9",31,2
"339",0,1,617,32,33,1,"173d9d9",32,2
"349",1,0,1044,33,28,1,"173d9d9",33,2
"359",0,0,637,28,28,1,"173d9d9",34,2
"369",0,1,1831,28,25,1,"173d9d9",35,2
"379",0,0,1266,25,25,1,"173d9d9",36,2
"389",0,1,618,25,34,1,"173d9d9",37,2
"399",1,1,901,34,34,1,"173d9d9",38,2
"409",0,1,998,34,22,1,"173d9d9",39,2
"4113",0,1,584,22,29,1,"173d9d9",40,2
"4211",1,0,986,29,31,1,"173d9d9",41,2
"439",0,1,1924,31,36,1,"173d9d9",42,2
"449",0,1,750,36,20,1,"173d9d9",43,2
"459",0,1,1047,20,30,1,"173d9d9",44,2
"469",1,1,1241,30,30,1,"173d9d9",45,2
"479",0,1,675,30,21,1,"173d9d9",46,2
"489",1,1,885,21,21,1,"173d9d9",47,2
"499",0,1,454,21,24,1,"173d9d9",48,2
"509",1,1,705,24,24,1,"173d9d9",49,2
"5113",0,1,492,24,35,1,"173d9d9",50,2
"5211",1,1,644,35,35,1,"173d9d9",51,2
"539",0,1,871,35,26,1,"173d9d9",52,2
"549",1,1,1095,26,26,1,"173d9d9",53,2
"559",0,1,1027,26,27,1,"173d9d9",54,2
"569",1,1,1243,27,27,1,"173d9d9",55,2
"579",0,1,765,27,23,1,"173d9d9",56,2
"589",0,0,744,23,23,1,"173d9d9",57,2
"599",0,1,529,23,19,1,"173d9d9",58,2
"609",0,1,1003,19,29,1,"173d9d9",59,2
"6113",0,1,796,29,20,1,"173d9d9",60,2
"6211",0,1,775,20,23,1,"173d9d9",61,2
"639",1,1,881,23,23,1,"173d9d9",62,2
"649",0,1,657,23,30,1,"173d9d9",63,2
"659",1,1,789,30,30,1,"173d9d9",64,2
"669",0,1,717,30,26,1,"173d9d9",65,2
"679",0,1,631,26,25,1,"173d9d9",66,2
"689",0,1,409,25,33,1,"173d9d9",67,2
"699",0,1,1139,33,22,1,"173d9d9",68,2
"709",1,1,1157,22,22,1,"173d9d9",69,2
"7113",0,1,518,22,31,1,"173d9d9",70,2
"7211",0,0,801,31,31,1,"173d9d9",71,2
"739",0,1,498,31,19,1,"173d9d9",72,2
"749",0,1,612,19,27,1,"173d9d9",73,2
"759",0,1,551,27,28,1,"173d9d9",74,2
"769",1,0,872,28,35,1,"173d9d9",75,2
"779",1,1,2146,35,35,1,"173d9d9",76,2
"789",0,1,2076,35,32,1,"173d9d9",77,2
"799",0,1,653,32,21,1,"173d9d9",78,2
"809",1,1,1191,21,21,1,"173d9d9",79,2
"8113",0,1,1329,21,34,1,"173d9d9",80,2
"8211",0,1,834,34,24,1,"173d9d9",81,2
"839",0,1,668,24,36,1,"173d9d9",82,2
"849",0,1,534,36,30,1,"173d9d9",83,2
"859",1,1,776,30,30,1,"173d9d9",84,2
"869",0,1,514,30,28,1,"173d9d9",85,2
"879",0,1,651,28,27,1,"173d9d9",86,2
"889",0,1,622,27,25,1,"173d9d9",87,2
"899",1,1,551,25,25,1,"173d9d9",88,2
"909",0,1,2033,25,26,1,"173d9d9",89,2
"9113",1,1,547,26,26,1,"173d9d9",90,2
"9211",0,1,533,26,19,1,"173d9d9",91,2
"939",0,1,463,19,23,1,"173d9d9",92,2
"949",0,1,496,23,32,1,"173d9d9",93,2
"959",0,0,466,32,32,1,"173d9d9",94,2
"969",0,1,508,32,34,1,"173d9d9",95,2
"979",0,1,566,34,35,1,"173d9d9",96,2
"989",0,1,536,35,20,1,"173d9d9",97,2
"999",1,1,690,20,20,1,"173d9d9",98,2
"1009",0,1,643,20,29,1,"173d9d9",99,2
"10113",0,1,452,29,31,1,"173d9d9",100,2
"10211",1,1,480,31,31,1,"173d9d9",101,2
"1039",0,1,529,31,21,1,"173d9d9",102,2
"1049",0,1,538,21,33,1,"173d9d9",103,2
"1059",1,1,541,33,33,1,"173d9d9",104,2
"1069",0,1,542,33,24,1,"173d9d9",105,2
"1079",1,1,721,24,24,1,"173d9d9",106,2
"1089",0,1,499,24,36,1,"173d9d9",107,2
"1099",0,1,947,36,22,1,"173d9d9",108,2
"1109",1,1,926,22,22,1,"173d9d9",109,2
"11113",0,1,1016,22,20,1,"173d9d9",110,2
"11211",0,1,1033,20,30,1,"173d9d9",111,2
"1139",0,1,1500,30,26,1,"173d9d9",112,2
"1149",1,1,932,26,26,1,"173d9d9",113,2
"1159",0,1,1006,26,33,1,"173d9d9",114,2
"1169",1,1,1400,33,33,1,"173d9d9",115,2
"1179",0,1,698,33,36,1,"173d9d9",116,2
"1189",1,1,844,36,36,1,"173d9d9",117,2
"1199",0,1,478,36,25,1,"173d9d9",118,2
"1209",0,1,1103,25,19,1,"173d9d9",119,2
"12113",1,1,936,19,19,1,"173d9d9",120,2
"12211",0,1,771,19,23,1,"173d9d9",121,2
"1239",0,1,1077,23,24,1,"173d9d9",122,2
"1249",1,1,814,24,24,1,"173d9d9",123,2
"1259",0,1,554,24,29,1,"173d9d9",124,2
"1269",1,0,442,29,21,1,"173d9d9",125,2
"1279",0,1,884,21,34,1,"173d9d9",126,2
"1289",-1,-1,0,34,27,1,"173d9d9",127,2
"1299",-1,-1,0,27,28,1,"173d9d9",128,2
"1309",-1,-1,0,28,28,1,"173d9d9",129,2
"13113",0,1,772,28,22,1,"173d9d9",130,2
"13211",0,0,869,22,22,1,"173d9d9",131,2
"1339",0,1,824,22,35,1,"173d9d9",132,2
"1349",0,1,528,35,31,1,"173d9d9",133,2
"1359",0,0,875,31,31,1,"173d9d9",134,2
"1369",0,1,1997,31,32,1,"173d9d9",135,2
"1379",1,1,1183,32,32,1,"173d9d9",136,2
"1389",0,1,1464,32,24,1,"173d9d9",137,2
"1399",0,1,1481,24,32,1,"173d9d9",138,2
"1409",1,1,948,32,32,1,"173d9d9",139,2
"14113",0,1,910,32,30,1,"173d9d9",140,2
"14211",0,1,616,30,25,1,"173d9d9",141,2
"1439",0,1,833,25,28,1,"173d9d9",142,2
"1449",0,1,1299,28,23,1,"173d9d9",143,2
"1459",0,1,701,23,19,1,"173d9d9",144,2
"1469",0,0,815,19,19,1,"173d9d9",145,2
"1479",0,1,929,19,21,1,"173d9d9",146,2
"1489",0,1,522,21,33,1,"173d9d9",147,2
"1499",0,0,1388,33,33,1,"173d9d9",148,2
"1509",0,1,926,33,36,1,"173d9d9",149,2
"15113",1,1,856,36,36,1,"173d9d9",150,2
"15211",0,1,650,36,31,1,"173d9d9",151,2
"1539",0,0,635,31,31,1,"173d9d9",152,2
"1549",0,1,781,31,34,1,"173d9d9",153,2
"1559",0,1,759,34,26,1,"173d9d9",154,2
"1569",1,1,1122,26,26,1,"173d9d9",155,2
"1579",0,1,979,26,35,1,"173d9d9",156,2
"1589",0,1,701,35,27,1,"173d9d9",157,2
"1599",1,1,983,27,27,1,"173d9d9",158,2
"1609",0,1,537,27,29,1,"173d9d9",159,2
"16113",0,0,924,29,29,1,"173d9d9",160,2
"16211",0,1,461,29,20,1,"173d9d9",161,2
"1639",0,0,807,20,20,1,"173d9d9",162,2
"1649",0,1,384,20,22,1,"173d9d9",163,2
"1659",1,1,690,22,22,1,"173d9d9",164,2
"1669",0,1,827,22,20,1,"173d9d9",165,2
"1679",0,1,534,20,26,1,"173d9d9",166,2
"1689",1,1,720,26,26,1,"173d9d9",167,2
"1699",0,1,441,26,21,1,"173d9d9",168,2
"1709",0,1,651,21,19,1,"173d9d9",169,2
"17113",-1,-1,0,19,28,1,"173d9d9",170,2
"17211",-1,-1,0,28,28,1,"173d9d9",171,2
"1739",-1,-1,0,28,33,1,"173d9d9",172,2
"1749",-1,-1,0,33,33,1,"173d9d9",173,2
"1759",-1,-1,0,33,24,1,"173d9d9",174,2
"1769",-1,-1,0,24,24,1,"173d9d9",175,2
"1779",0,1,585,24,32,1,"173d9d9",176,2
"1789",1,1,490,32,32,1,"173d9d9",177,2
"1799",0,1,363,32,35,1,"173d9d9",178,2
"1809",1,1,653,35,35,1,"173d9d9",179,2
"18113",0,1,456,35,22,1,"173d9d9",180,2
"18211",0,1,514,22,36,1,"173d9d9",181,2
"1839",0,0,1051,36,36,1,"173d9d9",182,2
"1849",0,1,692,36,25,1,"173d9d9",183,2
"1859",0,0,518,25,25,1,"173d9d9",184,2
"1869",0,1,656,25,34,1,"173d9d9",185,2
"1879",1,1,754,34,34,1,"173d9d9",186,2
"1889",0,1,588,34,29,1,"173d9d9",187,2
"1899",0,0,605,29,29,1,"173d9d9",188,2
"1909",0,1,287,29,30,1,"173d9d9",189,2
"19113",0,1,441,30,31,1,"173d9d9",190,2
"19211",1,1,563,31,31,1,"173d9d9",191,2
"1939",0,1,518,31,23,1,"173d9d9",192,2
"1949",0,1,590,23,27,1,"173d9d9",193,2
"1959",0,0,737,27,27,1,"173d9d9",194,2
"1969",0,1,219,27,25,1,"173d9d9",195,2
"1979",1,1,748,25,25,1,"173d9d9",196,2
"1989",0,1,495,25,27,1,"173d9d9",197,2
"1999",0,1,464,27,22,1,"173d9d9",198,2
"2009",1,1,513,22,22,1,"173d9d9",199,2
"20113",0,1,91,22,24,1,"173d9d9",200,2
"20211",0,1,534,24,26,1,"173d9d9",201,2
"2039",0,1,1232,26,35,1,"173d9d9",202,2
"2049",1,1,769,35,35,1,"173d9d9",203,2
"2059",0,1,642,35,36,1,"173d9d9",204,2
"2069",0,1,461,36,20,1,"173d9d9",205,2
"2079",0,1,438,20,33,1,"173d9d9",206,2
"2089",0,0,1033,33,33,1,"173d9d9",207,2
"2099",0,1,323,33,30,1,"173d9d9",208,2
"2109",0,0,756,30,30,1,"173d9d9",209,2
"21113",0,1,565,30,34,1,"173d9d9",210,2
"21211",1,1,535,34,34,1,"173d9d9",211,2
"2139",0,1,394,34,29,1,"173d9d9",212,2
