"","keys","accuracy","rt","Fimg","Simg","feature_index","subID","trialNum","run"
"2",0,1,1802,0,7,1,"1dc68e2",1,1
"3",1,1,1321,7,7,1,"1dc68e2",2,1
"4",0,1,1094,7,5,1,"1dc68e2",3,1
"5",1,1,1236,5,5,1,"1dc68e2",4,1
"6",0,1,1190,5,3,1,"1dc68e2",5,1
"7",1,1,1910,3,3,1,"1dc68e2",6,1
"8",0,1,2042,3,6,1,"1dc68e2",7,1
"9",0,0,1534,6,6,1,"1dc68e2",8,1
"10",0,1,2224,6,15,1,"1dc68e2",9,1
"11",0,0,1769,15,15,1,"1dc68e2",10,1
"12",1,0,1652,15,1,1,"1dc68e2",11,1
"13",1,0,1119,1,17,1,"1dc68e2",12,1
"14",1,1,1431,17,17,1,"1dc68e2",13,1
"15",0,1,1419,17,9,1,"1dc68e2",14,1
"16",0,0,1091,9,9,1,"1dc68e2",15,1
"17",0,1,985,9,2,1,"1dc68e2",16,1
"18",0,1,539,2,13,1,"1dc68e2",17,1
"19",0,0,967,13,13,1,"1dc68e2",18,1
"20",0,1,1619,13,16,1,"1dc68e2",19,1
"21",1,1,1016,16,16,1,"1dc68e2",20,1
"22",0,1,1167,16,12,1,"1dc68e2",21,1
"23",0,1,542,12,11,1,"1dc68e2",22,1
"24",0,1,427,11,14,1,"1dc68e2",23,1
"25",1,1,1172,14,14,1,"1dc68e2",24,1
"26",0,1,681,14,18,1,"1dc68e2",25,1
"27",0,0,863,18,18,1,"1dc68e2",26,1
"28",1,0,1403,18,4,1,"1dc68e2",27,1
"29",0,0,508,4,4,1,"1dc68e2",28,1
"30",0,1,1606,4,10,1,"1dc68e2",29,1
"31",0,0,931,10,10,1,"1dc68e2",30,1
"32",0,1,2256,10,8,1,"1dc68e2",31,1
"33",1,1,1347,8,8,1,"1dc68e2",32,1
"34",0,1,599,8,3,1,"1dc68e2",33,1
"35",1,1,1207,3,3,1,"1dc68e2",34,1
"36",0,1,1368,3,18,1,"1dc68e2",35,1
"37",1,0,1545,18,16,1,"1dc68e2",36,1
"38",0,1,1199,16,4,1,"1dc68e2",37,1
"39",0,1,1934,4,11,1,"1dc68e2",38,1
"40",0,1,724,11,15,1,"1dc68e2",39,1
"41",1,1,1831,15,15,1,"1dc68e2",40,1
"42",0,1,1089,15,2,1,"1dc68e2",41,1
"43",1,1,642,2,2,1,"1dc68e2",42,1
"44",0,1,926,2,14,1,"1dc68e2",43,1
"45",0,1,1861,14,12,1,"1dc68e2",44,1
"46",1,1,678,12,12,1,"1dc68e2",45,1
"47",0,1,1526,12,6,1,"1dc68e2",46,1
"48",0,0,1590,6,6,1,"1dc68e2",47,1
"49",0,1,1391,6,5,1,"1dc68e2",48,1
"50",0,1,1324,5,9,1,"1dc68e2",49,1
"51",0,1,1847,9,17,1,"1dc68e2",50,1
"52",1,1,1133,17,17,1,"1dc68e2",51,1
"53",0,1,1026,17,7,1,"1dc68e2",52,1
"54",0,1,1267,7,13,1,"1dc68e2",53,1
"55",0,1,1295,13,1,1,"1dc68e2",54,1
"56",0,1,2056,1,10,1,"1dc68e2",55,1
"57",1,1,1400,10,10,1,"1dc68e2",56,1
"58",0,1,1806,10,8,1,"1dc68e2",57,1
"59",0,1,1227,8,1,1,"1dc68e2",58,1
"60",0,1,906,1,11,1,"1dc68e2",59,1
"61",1,0,1915,11,10,1,"1dc68e2",60,1
"62",1,1,994,10,10,1,"1dc68e2",61,1
"63",1,0,495,10,13,1,"1dc68e2",62,1
"64",1,1,2458,13,13,1,"1dc68e2",63,1
"65",-1,-1,0,13,7,1,"1dc68e2",64,1
"66",-1,-1,0,7,5,1,"1dc68e2",65,1
"67",1,1,892,5,5,1,"1dc68e2",66,1
"68",0,1,2484,5,12,1,"1dc68e2",67,1
"69",-1,-1,0,12,4,1,"1dc68e2",68,1
"70",0,1,961,4,2,1,"1dc68e2",69,1
"71",-1,-1,0,2,18,1,"1dc68e2",70,1
"72",1,1,2089,18,18,1,"1dc68e2",71,1
"73",-1,-1,0,18,14,1,"1dc68e2",72,1
"74",-1,-1,0,14,14,1,"1dc68e2",73,1
"75",0,1,44,14,16,1,"1dc68e2",74,1
"76",0,0,822,16,16,1,"1dc68e2",75,1
"77",1,0,1649,16,8,1,"1dc68e2",76,1
"78",1,0,1660,8,15,1,"1dc68e2",77,1
"79",0,1,1688,15,9,1,"1dc68e2",78,1
"80",0,0,928,9,9,1,"1dc68e2",79,1
"81",1,0,2360,9,3,1,"1dc68e2",80,1
"82",0,1,645,3,6,1,"1dc68e2",81,1
"83",0,1,592,6,17,1,"1dc68e2",82,1
"84",0,1,2500,17,10,1,"1dc68e2",83,1
"85",0,1,319,10,2,1,"1dc68e2",84,1
"86",1,1,1661,2,2,1,"1dc68e2",85,1
"87",1,0,866,2,3,1,"1dc68e2",86,1
"88",1,1,1599,3,3,1,"1dc68e2",87,1
"89",1,0,2487,3,1,1,"1dc68e2",88,1
"90",0,0,71,1,1,1,"1dc68e2",89,1
"91",0,1,1248,1,11,1,"1dc68e2",90,1
"92",1,1,1440,11,11,1,"1dc68e2",91,1
"93",0,1,1239,11,8,1,"1dc68e2",92,1
"94",0,1,987,8,16,1,"1dc68e2",93,1
"95",1,1,859,16,16,1,"1dc68e2",94,1
"96",0,1,868,16,15,1,"1dc68e2",95,1
"97",1,1,574,15,15,1,"1dc68e2",96,1
"98",0,1,338,15,4,1,"1dc68e2",97,1
"99",1,1,396,4,4,1,"1dc68e2",98,1
"100",0,1,757,4,5,1,"1dc68e2",99,1
"101",1,1,410,5,5,1,"1dc68e2",100,1
"102",0,1,471,5,7,1,"1dc68e2",101,1
"103",1,0,348,7,17,1,"1dc68e2",102,1
"104",1,1,1117,17,17,1,"1dc68e2",103,1
"105",1,0,1022,17,12,1,"1dc68e2",104,1
"106",0,1,927,12,18,1,"1dc68e2",105,1
"107",0,1,1280,18,6,1,"1dc68e2",106,1
"108",0,1,1243,6,9,1,"1dc68e2",107,1
"109",0,1,900,9,14,1,"1dc68e2",108,1
"110",-1,-1,0,14,13,1,"1dc68e2",109,1
"111",0,1,2334,13,9,1,"1dc68e2",110,1
"112",1,1,2213,9,9,1,"1dc68e2",111,1
"113",0,1,1554,9,2,1,"1dc68e2",112,1
"114",1,0,677,2,14,1,"1dc68e2",113,1
"115",0,1,965,14,3,1,"1dc68e2",114,1
"116",1,1,1254,3,3,1,"1dc68e2",115,1
"117",0,1,764,3,12,1,"1dc68e2",116,1
"118",1,0,1008,12,18,1,"1dc68e2",117,1
"119",0,0,936,18,18,1,"1dc68e2",118,1
"120",0,1,914,18,1,1,"1dc68e2",119,1
"121",0,1,744,1,8,1,"1dc68e2",120,1
"122",0,1,1233,8,11,1,"1dc68e2",121,1
"123",0,1,736,11,13,1,"1dc68e2",122,1
"124",0,1,2355,13,15,1,"1dc68e2",123,1
"125",-1,-1,0,15,5,1,"1dc68e2",124,1
"126",-1,-1,0,5,5,1,"1dc68e2",125,1
"127",0,1,1170,5,10,1,"1dc68e2",126,1
"128",0,1,659,10,7,1,"1dc68e2",127,1
"129",-1,-1,0,7,7,1,"1dc68e2",128,1
"130",0,1,718,7,4,1,"1dc68e2",129,1
"131",0,0,712,4,4,1,"1dc68e2",130,1
"132",1,0,818,4,6,1,"1dc68e2",131,1
"133",1,1,1902,6,6,1,"1dc68e2",132,1
"134",0,1,1002,6,17,1,"1dc68e2",133,1
"135",0,1,1783,17,16,1,"1dc68e2",134,1
"136",1,1,2114,16,16,1,"1dc68e2",135,1
"137",0,1,935,16,10,1,"1dc68e2",136,1
"138",0,1,1899,10,15,1,"1dc68e2",137,1
"139",0,1,1192,15,11,1,"1dc68e2",138,1
"140",1,1,534,11,11,1,"1dc68e2",139,1
"141",0,1,823,11,2,1,"1dc68e2",140,1
"142",1,1,1228,2,2,1,"1dc68e2",141,1
"143",1,0,504,2,14,1,"1dc68e2",142,1
"144",0,0,559,14,14,1,"1dc68e2",143,1
"145",0,1,843,14,3,1,"1dc68e2",144,1
"146",1,1,1471,3,3,1,"1dc68e2",145,1
"147",0,1,2043,3,9,1,"1dc68e2",146,1
"148",1,1,998,9,9,1,"1dc68e2",147,1
"149",0,1,229,9,4,1,"1dc68e2",148,1
"150",1,1,608,4,4,1,"1dc68e2",149,1
"151",0,1,806,4,6,1,"1dc68e2",150,1
"152",1,1,1016,6,6,1,"1dc68e2",151,1
"153",-1,-1,0,6,7,1,"1dc68e2",152,1
"154",1,1,237,7,7,1,"1dc68e2",153,1
"155",0,1,391,7,17,1,"1dc68e2",154,1
"156",1,1,1292,17,17,1,"1dc68e2",155,1
"157",1,0,2093,17,5,1,"1dc68e2",156,1
"158",0,1,2076,5,18,1,"1dc68e2",157,1
"159",-1,-1,0,18,18,1,"1dc68e2",158,1
"160",0,1,2313,18,12,1,"1dc68e2",159,1
"161",1,1,1789,12,12,1,"1dc68e2",160,1
"162",-1,-1,0,12,8,1,"1dc68e2",161,1
"163",1,1,805,8,8,1,"1dc68e2",162,1
"164",0,1,709,8,1,1,"1dc68e2",163,1
"165",0,1,488,1,16,1,"1dc68e2",164,1
"166",-1,-1,0,16,13,1,"1dc68e2",165,1
"167",0,1,783,13,11,1,"1dc68e2",166,1
"168",0,1,2274,11,15,1,"1dc68e2",167,1
"169",-1,-1,0,15,18,1,"1dc68e2",168,1
"170",0,0,1106,18,18,1,"1dc68e2",169,1
"171",0,1,1833,18,3,1,"1dc68e2",170,1
"172",-1,-1,0,3,3,1,"1dc68e2",171,1
"173",0,1,2221,3,8,1,"1dc68e2",172,1
"174",1,1,2473,8,8,1,"1dc68e2",173,1
"175",-1,-1,0,8,13,1,"1dc68e2",174,1
"176",0,1,308,13,9,1,"1dc68e2",175,1
"177",1,1,687,9,9,1,"1dc68e2",176,1
"178",0,1,647,9,17,1,"1dc68e2",177,1
"179",0,1,630,17,10,1,"1dc68e2",178,1
"180",0,1,427,10,2,1,"1dc68e2",179,1
"181",0,1,1796,2,7,1,"1dc68e2",180,1
"182",0,1,451,7,6,1,"1dc68e2",181,1
"183",1,1,1623,6,6,1,"1dc68e2",182,1
"184",-1,-1,0,6,5,1,"1dc68e2",183,1
"185",1,1,578,5,5,1,"1dc68e2",184,1
"186",0,1,1622,5,12,1,"1dc68e2",185,1
"187",0,1,928,12,4,1,"1dc68e2",186,1
"188",-1,-1,0,4,4,1,"1dc68e2",187,1
"189",0,1,1690,4,14,1,"1dc68e2",188,1
"190",1,1,1919,14,14,1,"1dc68e2",189,1
"191",0,1,1372,14,16,1,"1dc68e2",190,1
"192",1,1,2329,16,16,1,"1dc68e2",191,1
"193",-1,-1,0,16,1,1,"1dc68e2",192,1
"194",0,0,203,1,1,1,"1dc68e2",193,1
"195",0,1,1114,1,14,1,"1dc68e2",194,1
"196",1,1,1118,14,14,1,"1dc68e2",195,1
"197",0,1,2141,14,16,1,"1dc68e2",196,1
"198",-1,-1,0,16,7,1,"1dc68e2",197,1
"199",0,1,2482,7,17,1,"1dc68e2",198,1
"200",1,1,1086,17,17,1,"1dc68e2",199,1
"201",0,1,1159,17,2,1,"1dc68e2",200,1
"202",0,1,818,2,4,1,"1dc68e2",201,1
"203",1,1,622,4,4,1,"1dc68e2",202,1
"204",0,1,1072,4,12,1,"1dc68e2",203,1
"205",1,1,1325,12,12,1,"1dc68e2",204,1
"206",0,1,1253,12,11,1,"1dc68e2",205,1
"207",1,1,689,11,11,1,"1dc68e2",206,1
"208",0,1,1942,11,3,1,"1dc68e2",207,1
"209",0,0,2190,3,3,1,"1dc68e2",208,1
"210",0,1,1096,3,18,1,"1dc68e2",209,1
"211",1,1,2179,18,18,1,"1dc68e2",210,1
"212",0,1,859,18,8,1,"1dc68e2",211,1
"213",1,1,1212,8,8,1,"1dc68e2",212,1
"214",-1,-1,0,8,5,1,"1dc68e2",213,1
"215",1,0,1480,5,9,1,"1dc68e2",214,1
"216",1,1,1755,9,9,1,"1dc68e2",215,1
"217",0,1,453,9,15,1,"1dc68e2",216,1
"218",1,1,1485,15,15,1,"1dc68e2",217,1
"219",0,1,646,15,10,1,"1dc68e2",218,1
"220",0,1,710,10,13,1,"1dc68e2",219,1
"221",1,1,996,13,13,1,"1dc68e2",220,1
"222",0,1,1256,13,6,1,"1dc68e2",221,1
"223",0,1,2350,6,1,1,"1dc68e2",222,1
"224",-1,-1,0,1,8,1,"1dc68e2",223,1
"225",1,1,666,8,8,1,"1dc68e2",224,1
"226",0,1,2408,8,4,1,"1dc68e2",225,1
"227",0,1,1112,4,10,1,"1dc68e2",226,1
"228",0,1,2072,10,3,1,"1dc68e2",227,1
"229",1,1,1986,3,3,1,"1dc68e2",228,1
"230",0,1,2049,3,2,1,"1dc68e2",229,1
"231",1,1,900,2,2,1,"1dc68e2",230,1
"232",0,1,438,2,11,1,"1dc68e2",231,1
"233",1,1,382,11,11,1,"1dc68e2",232,1
"234",0,1,428,11,15,1,"1dc68e2",233,1
"235",1,1,905,15,15,1,"1dc68e2",234,1
"236",0,1,427,15,5,1,"1dc68e2",235,1
"237",1,1,817,5,5,1,"1dc68e2",236,1
"238",0,1,1137,5,7,1,"1dc68e2",237,1
"239",1,1,2232,7,7,1,"1dc68e2",238,1
"240",0,1,1217,7,16,1,"1dc68e2",239,1
"241",1,1,1090,16,16,1,"1dc68e2",240,1
"242",0,1,1237,16,14,1,"1dc68e2",241,1
"243",0,0,2428,14,14,1,"1dc68e2",242,1
"244",0,1,1059,14,1,1,"1dc68e2",243,1
"245",0,0,2202,1,1,1,"1dc68e2",244,1
"246",0,1,629,1,13,1,"1dc68e2",245,1
"247",0,1,859,13,12,1,"1dc68e2",246,1
"248",1,1,1006,12,12,1,"1dc68e2",247,1
"249",1,0,2131,12,6,1,"1dc68e2",248,1
"250",0,1,2229,6,9,1,"1dc68e2",249,1
"251",0,1,1060,9,18,1,"1dc68e2",250,1
"252",0,1,947,18,17,1,"1dc68e2",251,1
"253",1,1,1050,17,17,1,"1dc68e2",252,1
"254",0,1,1090,17,3,1,"1dc68e2",253,1
"255",1,1,982,3,3,1,"1dc68e2",254,1
"256",0,1,1867,3,5,1,"1dc68e2",255,1
"257",1,1,1121,5,5,1,"1dc68e2",256,1
"258",0,1,1474,5,16,1,"1dc68e2",257,1
"259",0,1,1151,16,17,1,"1dc68e2",258,1
"260",0,1,1320,17,8,1,"1dc68e2",259,1
"261",0,1,1478,8,1,1,"1dc68e2",260,1
"262",0,1,1221,1,4,1,"1dc68e2",261,1
"263",1,1,889,4,4,1,"1dc68e2",262,1
"264",0,1,1148,4,14,1,"1dc68e2",263,1
"265",0,1,271,14,10,1,"1dc68e2",264,1
"266",0,1,762,10,2,1,"1dc68e2",265,1
"267",0,1,554,2,12,1,"1dc68e2",266,1
"268",1,1,591,12,12,1,"1dc68e2",267,1
"269",0,1,1102,12,15,1,"1dc68e2",268,1
"270",0,1,944,15,18,1,"1dc68e2",269,1
"271",0,1,532,18,9,1,"1dc68e2",270,1
"272",0,1,896,9,13,1,"1dc68e2",271,1
"273",1,1,854,13,13,1,"1dc68e2",272,1
"274",0,1,811,13,11,1,"1dc68e2",273,1
"275",0,1,455,11,7,1,"1dc68e2",274,1
"276",0,1,474,7,6,1,"1dc68e2",275,1
"277",1,1,929,6,6,1,"1dc68e2",276,1
"278",1,0,1207,0,17,1,"11ace14",1,1
"310",0,0,800,17,17,1,"11ace14",2,1
"410",1,0,1519,17,14,1,"11ace14",3,1
"510",-1,-1,0,14,14,1,"11ace14",4,1
"610",-1,-1,0,14,7,1,"11ace14",5,1
"710",-1,-1,0,7,12,1,"11ace14",6,1
"810",1,1,301,12,12,1,"11ace14",7,1
"910",0,1,1210,12,2,1,"11ace14",8,1
"1010",0,1,762,2,8,1,"11ace14",9,1
"1110",0,1,802,8,11,1,"11ace14",10,1
"1210",0,0,574,11,11,1,"11ace14",11,1
"1310",0,1,1640,11,9,1,"11ace14",12,1
"1410",1,0,1501,9,5,1,"11ace14",13,1
"1510",1,1,1170,5,5,1,"11ace14",14,1
"1610",0,1,1936,5,10,1,"11ace14",15,1
"1710",0,0,819,10,10,1,"11ace14",16,1
"1810",1,0,1076,10,15,1,"11ace14",17,1
"1910",0,0,663,15,15,1,"11ace14",18,1
"2010",1,0,1651,15,4,1,"11ace14",19,1
"2110",1,0,1253,4,18,1,"11ace14",20,1
"2210",0,0,1101,18,18,1,"11ace14",21,1
"2310",-1,-1,0,18,6,1,"11ace14",22,1
"2410",1,0,950,6,16,1,"11ace14",23,1
"2510",0,0,1035,16,16,1,"11ace14",24,1
"2610",1,0,869,16,3,1,"11ace14",25,1
"279",0,1,1069,3,13,1,"11ace14",26,1
"281",1,0,1184,13,1,1,"11ace14",27,1
"291",0,0,1021,1,1,1,"11ace14",28,1
"301",1,0,1174,1,14,1,"11ace14",29,1
"311",1,0,714,14,9,1,"11ace14",30,1
"321",0,1,1008,9,16,1,"11ace14",31,1
"331",0,0,819,16,16,1,"11ace14",32,1
"341",1,0,1457,16,12,1,"11ace14",33,1
"351",0,1,583,12,1,1,"11ace14",34,1
"361",0,0,984,1,1,1,"11ace14",35,1
"371",1,0,646,1,17,1,"11ace14",36,1
"381",0,0,324,17,17,1,"11ace14",37,1
"391",0,1,1400,17,2,1,"11ace14",38,1
"401",1,1,1422,2,2,1,"11ace14",39,1
"411",-1,0,1118,2,6,1,"11ace14",40,1
"421",0,0,1812,6,6,1,"11ace14",41,1
"431",0,1,1569,6,7,1,"11ace14",42,1
"441",0,0,967,7,7,1,"11ace14",43,1
"451",1,0,321,7,4,1,"11ace14",44,1
"461",0,0,283,4,4,1,"11ace14",45,1
"471",1,0,1462,4,5,1,"11ace14",46,1
"481",0,1,892,5,8,1,"11ace14",47,1
"491",0,1,1851,8,10,1,"11ace14",48,1
"501",1,1,1402,10,10,1,"11ace14",49,1
"511",0,1,1427,10,11,1,"11ace14",50,1
"521",0,1,1897,11,13,1,"11ace14",51,1
"531",1,0,1116,13,18,1,"11ace14",52,1
"541",0,1,913,18,3,1,"11ace14",53,1
"551",0,0,1240,3,3,1,"11ace14",54,1
"561",1,0,440,3,15,1,"11ace14",55,1
"571",0,0,359,15,15,1,"11ace14",56,1
"581",1,0,228,15,13,1,"11ace14",57,1
"591",0,1,1086,13,6,1,"11ace14",58,1
"601",1,0,636,6,10,1,"11ace14",59,1
"611",0,1,1617,10,9,1,"11ace14",60,1
"621",0,0,1526,9,9,1,"11ace14",61,1
"631",1,0,1635,9,2,1,"11ace14",62,1
"641",1,0,1629,2,1,1,"11ace14",63,1
"651",0,1,1500,1,15,1,"11ace14",64,1
"661",0,1,885,15,14,1,"11ace14",65,1
"671",0,0,1033,14,14,1,"11ace14",66,1
"681",1,0,485,14,16,1,"11ace14",67,1
"691",0,0,256,16,16,1,"11ace14",68,1
"701",1,0,550,16,11,1,"11ace14",69,1
"711",0,1,1164,11,17,1,"11ace14",70,1
"721",-1,-1,0,17,8,1,"11ace14",71,1
"731",0,0,1168,8,8,1,"11ace14",72,1
"741",1,0,1319,8,4,1,"11ace14",73,1
"751",0,1,1233,4,7,1,"11ace14",74,1
"761",0,1,1352,7,12,1,"11ace14",75,1
"771",0,1,835,12,3,1,"11ace14",76,1
"781",0,1,1265,3,5,1,"11ace14",77,1
"791",1,0,1065,5,18,1,"11ace14",78,1
"801",0,1,1385,18,15,1,"11ace14",79,1
"811",0,1,1674,15,2,1,"11ace14",80,1
"821",1,1,1544,2,2,1,"11ace14",81,1
"831",0,1,1188,2,11,1,"11ace14",82,1
"841",0,1,1288,11,13,1,"11ace14",83,1
"851",1,0,907,13,8,1,"11ace14",84,1
"861",0,0,1095,8,8,1,"11ace14",85,1
"871",0,1,1418,8,4,1,"11ace14",86,1
"881",0,0,1583,4,4,1,"11ace14",87,1
"891",1,0,388,4,16,1,"11ace14",88,1
"901",0,1,561,16,6,1,"11ace14",89,1
"911",0,0,790,6,6,1,"11ace14",90,1
"921",0,1,675,6,17,1,"11ace14",91,1
"931",1,0,1119,17,5,1,"11ace14",92,1
"941",0,1,806,5,18,1,"11ace14",93,1
"951",0,1,1052,18,14,1,"11ace14",94,1
"961",0,1,855,14,3,1,"11ace14",95,1
"971",1,1,1156,3,3,1,"11ace14",96,1
"981",1,0,1362,3,7,1,"11ace14",97,1
"991",0,1,465,7,10,1,"11ace14",98,1
"1001",0,1,1055,10,12,1,"11ace14",99,1
"1011",1,1,300,12,12,1,"11ace14",100,1
"1021",0,1,385,12,9,1,"11ace14",101,1
"1031",0,0,665,9,9,1,"11ace14",102,1
"1041",1,0,320,9,1,1,"11ace14",103,1
"1051",0,1,548,1,16,1,"11ace14",104,1
"1061",1,0,870,16,8,1,"11ace14",105,1
"1071",0,1,701,8,1,1,"11ace14",106,1
"1081",1,0,1583,1,11,1,"11ace14",107,1
"1091",0,0,621,11,11,1,"11ace14",108,1
"1101",0,1,1115,11,14,1,"11ace14",109,1
"1111",0,0,632,14,14,1,"11ace14",110,1
"1121",0,1,966,14,17,1,"11ace14",111,1
"1131",0,1,1919,17,13,1,"11ace14",112,1
"1141",1,1,1062,13,13,1,"11ace14",113,1
"1151",1,0,1366,13,18,1,"11ace14",114,1
"1161",1,0,1512,18,4,1,"11ace14",115,1
"1171",0,1,1298,4,2,1,"11ace14",116,1
"1181",0,0,1615,2,2,1,"11ace14",117,1
"1191",1,0,672,2,5,1,"11ace14",118,1
"1201",1,0,1487,5,15,1,"11ace14",119,1
"1211",0,0,1272,15,15,1,"11ace14",120,1
"1221",0,1,1619,15,9,1,"11ace14",121,1
"1231",0,0,574,9,9,1,"11ace14",122,1
"1241",0,1,1585,9,3,1,"11ace14",123,1
"1251",1,1,1780,3,3,1,"11ace14",124,1
"1261",1,0,960,3,7,1,"11ace14",125,1
"1271",0,0,532,7,7,1,"11ace14",126,1
"1281",0,1,1036,7,6,1,"11ace14",127,1
"1291",1,1,701,6,6,1,"11ace14",128,1
"1301",1,0,1689,6,12,1,"11ace14",129,1
"1311",0,1,2229,12,10,1,"11ace14",130,1
"1321",0,1,1140,10,15,1,"11ace14",131,1
"1331",1,0,269,15,2,1,"11ace14",132,1
"1341",1,1,1624,2,2,1,"11ace14",133,1
"1351",0,1,1935,2,5,1,"11ace14",134,1
"1361",0,0,1238,5,5,1,"11ace14",135,1
"1371",1,0,324,5,17,1,"11ace14",136,1
"1381",0,0,1114,17,17,1,"11ace14",137,1
"1391",1,0,1922,17,6,1,"11ace14",138,1
"1401",0,0,941,6,6,1,"11ace14",139,1
"1411",1,0,1252,6,9,1,"11ace14",140,1
"1421",0,0,848,9,9,1,"11ace14",141,1
"1431",1,0,1359,9,4,1,"11ace14",142,1
"1441",0,0,1441,4,4,1,"11ace14",143,1
"1451",0,1,1006,4,10,1,"11ace14",144,1
"1461",1,1,1471,10,10,1,"11ace14",145,1
"1471",0,1,900,10,1,1,"11ace14",146,1
"1481",0,0,1058,1,1,1,"11ace14",147,1
"1491",0,1,1699,1,3,1,"11ace14",148,1
"1501",1,1,954,3,3,1,"11ace14",149,1
"1511",1,0,1314,3,18,1,"11ace14",150,1
"1521",-1,-1,0,18,12,1,"11ace14",151,1
"1531",0,0,1274,12,12,1,"11ace14",152,1
"1541",1,0,623,12,8,1,"11ace14",153,1
"1551",0,0,1585,8,8,1,"11ace14",154,1
"1561",1,0,1477,8,7,1,"11ace14",155,1
"1571",1,0,1055,7,13,1,"11ace14",156,1
"1581",1,0,336,13,11,1,"11ace14",157,1
"1591",0,1,891,11,16,1,"11ace14",158,1
"1601",0,0,1135,16,16,1,"11ace14",159,1
"1611",0,1,1066,16,14,1,"11ace14",160,1
"1621",1,0,1634,14,7,1,"11ace14",161,1
"1631",0,1,945,7,10,1,"11ace14",162,1
"1641",0,1,1306,10,12,1,"11ace14",163,1
"1651",1,0,1284,12,11,1,"11ace14",164,1
"1661",0,0,1205,11,11,1,"11ace14",165,1
"1671",0,1,1305,11,15,1,"11ace14",166,1
"1681",1,0,882,15,18,1,"11ace14",167,1
"1691",0,0,395,18,18,1,"11ace14",168,1
"1701",1,0,358,18,3,1,"11ace14",169,1
"1711",0,0,460,3,3,1,"11ace14",170,1
"1721",0,1,665,3,13,1,"11ace14",171,1
"1731",1,0,1547,13,14,1,"11ace14",172,1
"1741",1,0,1773,14,5,1,"11ace14",173,1
"1751",0,0,637,5,5,1,"11ace14",174,1
"1761",0,1,1267,5,17,1,"11ace14",175,1
"1771",0,1,1245,17,8,1,"11ace14",176,1
"1781",1,1,1647,8,8,1,"11ace14",177,1
"1791",0,1,1677,8,9,1,"11ace14",178,1
"1801",1,0,1017,9,4,1,"11ace14",179,1
"1811",1,1,1739,4,4,1,"11ace14",180,1
"1821",0,1,1996,4,1,1,"11ace14",181,1
"1831",1,1,1760,1,1,1,"11ace14",182,1
"1841",0,1,1292,1,2,1,"11ace14",183,1
"1851",0,1,1122,2,16,1,"11ace14",184,1
"1861",1,0,2189,16,6,1,"11ace14",185,1
"1871",1,0,1456,6,5,1,"11ace14",186,1
"1881",0,0,1139,5,5,1,"11ace14",187,1
"1891",0,1,2113,5,2,1,"11ace14",188,1
"1901",0,1,953,2,14,1,"11ace14",189,1
"1911",1,0,1007,14,11,1,"11ace14",190,1
"1921",0,1,1068,11,17,1,"11ace14",191,1
"1931",1,0,1228,17,10,1,"11ace14",192,1
"1941",0,1,1166,10,6,1,"11ace14",193,1
"1951",1,1,2122,6,6,1,"11ace14",194,1
"1961",0,1,785,6,3,1,"11ace14",195,1
"1971",1,1,1496,3,3,1,"11ace14",196,1
"1981",0,1,2469,3,13,1,"11ace14",197,1
"1991",1,1,1216,13,13,1,"11ace14",198,1
"2001",0,1,1232,13,7,1,"11ace14",199,1
"2011",1,0,1284,7,1,1,"11ace14",200,1
"2021",0,0,1306,1,1,1,"11ace14",201,1
"2031",0,1,1258,1,16,1,"11ace14",202,1
"2041",0,1,1436,16,18,1,"11ace14",203,1
"2051",1,1,1127,18,18,1,"11ace14",204,1
"2061",0,1,1859,18,15,1,"11ace14",205,1
"2071",1,1,1255,15,15,1,"11ace14",206,1
"2081",0,1,646,15,4,1,"11ace14",207,1
"2091",1,0,1159,4,12,1,"11ace14",208,1
"2101",0,0,1000,12,12,1,"11ace14",209,1
"2111",0,1,1001,12,8,1,"11ace14",210,1
"2121",1,0,1204,8,9,1,"11ace14",211,1
"2131",0,1,715,9,8,1,"11ace14",212,1
"2141",0,0,1699,8,8,1,"11ace14",213,1
"2151",1,0,804,8,11,1,"11ace14",214,1
"2161",0,1,2320,11,10,1,"11ace14",215,1
"2171",0,0,1227,10,10,1,"11ace14",216,1
"2181",1,0,1766,10,12,1,"11ace14",217,1
"2191",0,0,602,12,12,1,"11ace14",218,1
"2201",0,1,478,12,17,1,"11ace14",219,1
"2211",-1,0,461,17,17,1,"11ace14",220,1
"2221",0,1,342,17,16,1,"11ace14",221,1
"2231",1,0,510,16,7,1,"11ace14",222,1
"2241",0,0,329,7,7,1,"11ace14",223,1
"2251",1,0,487,7,5,1,"11ace14",224,1
"2261",1,1,1520,5,5,1,"11ace14",225,1
"2271",0,1,1212,5,6,1,"11ace14",226,1
"2281",1,0,666,6,4,1,"11ace14",227,1
"2291",1,0,1716,4,9,1,"11ace14",228,1
"2301",0,1,1730,9,14,1,"11ace14",229,1
"2311",0,1,1235,14,15,1,"11ace14",230,1
"2321",1,0,1056,15,13,1,"11ace14",231,1
"2331",0,0,1519,13,13,1,"11ace14",232,1
"2341",1,0,864,13,3,1,"11ace14",233,1
"2351",0,0,981,3,3,1,"11ace14",234,1
"2361",1,0,926,3,2,1,"11ace14",235,1
"2371",0,1,723,2,1,1,"11ace14",236,1
"2381",0,1,1096,1,18,1,"11ace14",237,1
"2391",1,1,633,18,18,1,"11ace14",238,1
"2401",0,1,1427,18,11,1,"11ace14",239,1
"2411",0,1,1756,11,10,1,"11ace14",240,1
"2421",1,0,1304,10,9,1,"11ace14",241,1
"2431",0,1,1521,9,1,1,"11ace14",242,1
"2441",0,1,1506,1,13,1,"11ace14",243,1
"2451",0,0,1329,13,13,1,"11ace14",244,1
"2461",1,0,1693,13,6,1,"11ace14",245,1
"2471",0,0,908,6,6,1,"11ace14",246,1
"2481",0,1,694,6,3,1,"11ace14",247,1
"2491",1,1,1026,3,3,1,"11ace14",248,1
"2501",0,1,1664,3,8,1,"11ace14",249,1
"2511",0,1,1176,8,18,1,"11ace14",250,1
"2521",-1,0,720,18,14,1,"11ace14",251,1
"2531",0,0,490,14,14,1,"11ace14",252,1
"2541",1,0,470,14,15,1,"11ace14",253,1
"2551",0,0,558,15,15,1,"11ace14",254,1
"2561",1,0,304,15,2,1,"11ace14",255,1
"2571",0,1,292,2,7,1,"11ace14",256,1
"2581",0,0,556,7,7,1,"11ace14",257,1
"2591",1,0,431,7,5,1,"11ace14",258,1
"2601",0,1,420,5,12,1,"11ace14",259,1
"2611",0,1,2198,12,17,1,"11ace14",260,1
"2621",1,1,1267,17,17,1,"11ace14",261,1
"2631",0,1,998,17,4,1,"11ace14",262,1
"2641",1,0,1371,4,16,1,"11ace14",263,1
"2651",0,0,1112,16,16,1,"11ace14",264,1
"280",-1,-1,0,0,17,1,"1a36ee0",1,1
"312",0,1,441,17,5,1,"1a36ee0",2,1
"412",1,1,464,5,5,1,"1a36ee0",3,1
"512",0,1,530,5,6,1,"1a36ee0",4,1
"612",1,1,403,6,6,1,"1a36ee0",5,1
"712",1,0,512,6,3,1,"1a36ee0",6,1
"812",1,1,794,3,3,1,"1a36ee0",7,1
"912",0,1,751,3,10,1,"1a36ee0",8,1
"1012",1,1,594,10,10,1,"1a36ee0",9,1
"1112",1,0,894,10,8,1,"1a36ee0",10,1
"1212",0,1,555,8,18,1,"1a36ee0",11,1
"1312",0,1,658,18,11,1,"1a36ee0",12,1
"1412",0,1,667,11,14,1,"1a36ee0",13,1
"1512",1,1,730,14,14,1,"1a36ee0",14,1
"1612",1,0,481,14,16,1,"1a36ee0",15,1
"1712",1,1,922,16,16,1,"1a36ee0",16,1
"1812",0,1,459,16,2,1,"1a36ee0",17,1
"1912",0,1,536,2,7,1,"1a36ee0",18,1
"2012",0,1,856,7,9,1,"1a36ee0",19,1
"2112",1,1,1178,9,9,1,"1a36ee0",20,1
"2212",0,1,732,9,12,1,"1a36ee0",21,1
"2312",0,1,453,12,1,1,"1a36ee0",22,1
"2412",0,1,965,1,15,1,"1a36ee0",23,1
"2512",0,0,926,15,15,1,"1a36ee0",24,1
"2612",1,0,893,15,13,1,"1a36ee0",25,1
"2710",1,0,737,13,4,1,"1a36ee0",26,1
"282",1,1,1350,4,4,1,"1a36ee0",27,1
"292",1,0,1416,4,17,1,"1a36ee0",28,1
"302",1,0,1656,17,13,1,"1a36ee0",29,1
"313",0,1,383,13,2,1,"1a36ee0",30,1
"322",1,1,615,2,2,1,"1a36ee0",31,1
"332",1,0,660,2,7,1,"1a36ee0",32,1
"342",1,0,1326,7,15,1,"1a36ee0",33,1
"352",1,0,963,15,4,1,"1a36ee0",34,1
"362",0,1,584,4,14,1,"1a36ee0",35,1
"372",1,0,560,14,10,1,"1a36ee0",36,1
"382",0,1,788,10,3,1,"1a36ee0",37,1
"392",1,1,1206,3,3,1,"1a36ee0",38,1
"402",0,1,566,3,12,1,"1a36ee0",39,1
"413",1,0,676,12,8,1,"1a36ee0",40,1
"422",0,0,823,8,8,1,"1a36ee0",41,1
"432",0,1,445,8,6,1,"1a36ee0",42,1
"442",0,0,639,6,6,1,"1a36ee0",43,1
"452",1,0,411,6,16,1,"1a36ee0",44,1
"462",0,1,598,16,11,1,"1a36ee0",45,1
"472",1,0,1218,11,9,1,"1a36ee0",46,1
"482",1,1,637,9,9,1,"1a36ee0",47,1
"492",1,0,775,9,1,1,"1a36ee0",48,1
"502",0,0,694,1,1,1,"1a36ee0",49,1
"513",1,0,1291,1,18,1,"1a36ee0",50,1
"522",1,0,603,18,5,1,"1a36ee0",51,1
"532",1,1,1272,5,5,1,"1a36ee0",52,1
"542",0,1,948,5,15,1,"1a36ee0",53,1
"552",0,1,679,15,2,1,"1a36ee0",54,1
"562",0,1,687,2,8,1,"1a36ee0",55,1
"572",0,1,482,8,10,1,"1a36ee0",56,1
"582",0,0,948,10,10,1,"1a36ee0",57,1
"592",0,1,730,10,18,1,"1a36ee0",58,1
"602",1,1,1007,18,18,1,"1a36ee0",59,1
"613",0,1,1022,18,13,1,"1a36ee0",60,1
"622",1,1,648,13,13,1,"1a36ee0",61,1
"632",0,1,616,13,6,1,"1a36ee0",62,1
"642",0,1,1072,6,5,1,"1a36ee0",63,1
"652",0,1,744,5,4,1,"1a36ee0",64,1
"662",0,1,704,4,14,1,"1a36ee0",65,1
"672",0,1,653,14,16,1,"1a36ee0",66,1
"682",1,1,589,16,16,1,"1a36ee0",67,1
"692",1,0,870,16,3,1,"1a36ee0",68,1
"702",0,1,532,3,17,1,"1a36ee0",69,1
"713",0,1,548,17,1,1,"1a36ee0",70,1
"722",0,1,744,1,7,1,"1a36ee0",71,1
"732",0,0,635,7,7,1,"1a36ee0",72,1
"742",0,1,490,7,11,1,"1a36ee0",73,1
"752",1,0,569,11,9,1,"1a36ee0",74,1
"762",0,0,808,9,9,1,"1a36ee0",75,1
"772",0,1,577,9,12,1,"1a36ee0",76,1
"782",1,1,454,12,12,1,"1a36ee0",77,1
"792",0,1,355,12,15,1,"1a36ee0",78,1
"802",1,0,583,15,13,1,"1a36ee0",79,1
"813",1,1,827,13,13,1,"1a36ee0",80,1
"822",0,1,549,13,3,1,"1a36ee0",81,1
"832",1,1,516,3,3,1,"1a36ee0",82,1
"842",0,1,419,3,8,1,"1a36ee0",83,1
"852",0,0,781,8,8,1,"1a36ee0",84,1
"862",1,0,911,8,1,1,"1a36ee0",85,1
"872",0,1,539,1,11,1,"1a36ee0",86,1
"882",1,1,632,11,11,1,"1a36ee0",87,1
"892",1,0,434,11,12,1,"1a36ee0",88,1
"902",0,1,614,12,16,1,"1a36ee0",89,1
"913",1,1,551,16,16,1,"1a36ee0",90,1
"922",0,1,383,16,4,1,"1a36ee0",91,1
"932",0,1,535,4,5,1,"1a36ee0",92,1
"942",0,0,888,5,5,1,"1a36ee0",93,1
"952",0,1,679,5,17,1,"1a36ee0",94,1
"962",0,1,1018,17,6,1,"1a36ee0",95,1
"972",1,1,466,6,6,1,"1a36ee0",96,1
"982",0,1,569,6,18,1,"1a36ee0",97,1
"992",1,1,482,18,18,1,"1a36ee0",98,1
"1002",0,1,578,18,7,1,"1a36ee0",99,1
"1013",1,1,559,7,7,1,"1a36ee0",100,1
"1022",1,0,931,7,14,1,"1a36ee0",101,1
"1032",1,0,772,14,10,1,"1a36ee0",102,1
"1042",0,1,753,10,9,1,"1a36ee0",103,1
"1052",1,1,559,9,9,1,"1a36ee0",104,1
"1062",0,1,729,9,2,1,"1a36ee0",105,1
"1072",1,1,747,2,2,1,"1a36ee0",106,1
"1082",0,1,867,2,5,1,"1a36ee0",107,1
"1092",0,1,1170,5,8,1,"1a36ee0",108,1
"1102",1,1,959,8,8,1,"1a36ee0",109,1
"1113",0,1,690,8,6,1,"1a36ee0",110,1
"1122",1,1,487,6,6,1,"1a36ee0",111,1
"1132",0,1,1200,6,18,1,"1a36ee0",112,1
"1142",1,1,1189,18,18,1,"1a36ee0",113,1
"1152",0,1,1061,18,15,1,"1a36ee0",114,1
"1162",0,1,518,15,17,1,"1a36ee0",115,1
"1172",0,1,780,17,12,1,"1a36ee0",116,1
"1182",1,1,1142,12,12,1,"1a36ee0",117,1
"1192",0,1,442,12,16,1,"1a36ee0",118,1
"1202",0,1,622,16,4,1,"1a36ee0",119,1
"1213",0,0,732,4,4,1,"1a36ee0",120,1
"1222",0,1,1015,4,11,1,"1a36ee0",121,1
"1232",1,0,863,11,2,1,"1a36ee0",122,1
"1242",0,0,667,2,2,1,"1a36ee0",123,1
"1252",0,1,622,2,13,1,"1a36ee0",124,1
"1262",0,1,570,13,9,1,"1a36ee0",125,1
"1272",0,1,592,9,3,1,"1a36ee0",126,1
"1282",0,1,608,3,7,1,"1a36ee0",127,1
"1292",1,1,799,7,7,1,"1a36ee0",128,1
"1302",0,1,902,7,10,1,"1a36ee0",129,1
"1313",1,1,605,10,10,1,"1a36ee0",130,1
"1322",1,0,621,10,1,1,"1a36ee0",131,1
"1332",0,1,505,1,14,1,"1a36ee0",132,1
"1342",0,0,749,14,14,1,"1a36ee0",133,1
"1352",0,1,795,14,18,1,"1a36ee0",134,1
"1362",1,1,654,18,18,1,"1a36ee0",135,1
"1372",0,1,643,18,10,1,"1a36ee0",136,1
"1382",1,1,615,10,10,1,"1a36ee0",137,1
"1392",0,1,443,10,7,1,"1a36ee0",138,1
"1402",0,1,474,7,1,1,"1a36ee0",139,1
"1413",0,0,422,1,1,1,"1a36ee0",140,1
"1422",1,0,716,1,16,1,"1a36ee0",141,1
"1432",0,1,521,16,12,1,"1a36ee0",142,1
"1442",0,0,1013,12,12,1,"1a36ee0",143,1
"1452",0,1,704,12,17,1,"1a36ee0",144,1
"1462",0,1,552,17,5,1,"1a36ee0",145,1
"1472",1,0,308,5,11,1,"1a36ee0",146,1
"1482",0,0,1007,11,11,1,"1a36ee0",147,1
"1492",1,0,1648,11,2,1,"1a36ee0",148,1
"1502",1,1,972,2,2,1,"1a36ee0",149,1
"1513",1,0,1187,2,8,1,"1a36ee0",150,1
"1522",1,0,1394,8,3,1,"1a36ee0",151,1
"1532",1,1,972,3,3,1,"1a36ee0",152,1
"1542",0,1,944,3,9,1,"1a36ee0",153,1
"1552",0,0,549,9,9,1,"1a36ee0",154,1
"1562",1,0,953,9,14,1,"1a36ee0",155,1
"1572",0,1,797,14,6,1,"1a36ee0",156,1
"1582",0,1,581,6,4,1,"1a36ee0",157,1
"1592",1,0,719,4,13,1,"1a36ee0",158,1
"1602",-1,-1,0,13,15,1,"1a36ee0",159,1
"1613",0,1,556,15,5,1,"1a36ee0",160,1
"1622",0,1,1320,5,3,1,"1a36ee0",161,1
"1632",1,0,606,3,13,1,"1a36ee0",162,1
"1642",1,0,688,13,12,1,"1a36ee0",163,1
"1652",1,1,1061,12,12,1,"1a36ee0",164,1
"1662",0,1,906,12,10,1,"1a36ee0",165,1
"1672",0,0,666,10,10,1,"1a36ee0",166,1
"1682",0,1,954,10,6,1,"1a36ee0",167,1
"1692",1,1,655,6,6,1,"1a36ee0",168,1
"1702",0,1,829,6,8,1,"1a36ee0",169,1
"1713",1,1,595,8,8,1,"1a36ee0",170,1
"1722",0,1,561,8,2,1,"1a36ee0",171,1
"1732",1,0,566,2,15,1,"1a36ee0",172,1
"1742",0,0,757,15,15,1,"1a36ee0",173,1
"1752",1,0,969,15,7,1,"1a36ee0",174,1
"1762",1,1,1073,7,7,1,"1a36ee0",175,1
"1772",0,1,1022,7,11,1,"1a36ee0",176,1
"1782",0,1,507,11,4,1,"1a36ee0",177,1
"1792",1,1,602,4,4,1,"1a36ee0",178,1
"1802",1,0,1007,4,14,1,"1a36ee0",179,1
"1813",0,1,829,14,9,1,"1a36ee0",180,1
"1822",0,0,543,9,9,1,"1a36ee0",181,1
"1832",0,1,510,9,17,1,"1a36ee0",182,1
"1842",1,1,362,17,17,1,"1a36ee0",183,1
"1852",0,1,562,17,1,1,"1a36ee0",184,1
"1862",0,1,601,1,16,1,"1a36ee0",185,1
"1872",1,1,614,16,16,1,"1a36ee0",186,1
"1882",0,1,687,16,18,1,"1a36ee0",187,1
"1892",0,0,600,18,18,1,"1a36ee0",188,1
"1902",0,1,343,18,7,1,"1a36ee0",189,1
"1913",0,1,537,7,5,1,"1a36ee0",190,1
"1922",1,0,677,5,18,1,"1a36ee0",191,1
"1932",1,0,772,18,2,1,"1a36ee0",192,1
"1942",0,0,636,2,2,1,"1a36ee0",193,1
"1952",0,1,637,2,15,1,"1a36ee0",194,1
"1962",1,0,797,15,16,1,"1a36ee0",195,1
"1972",0,1,423,16,1,1,"1a36ee0",196,1
"1982",0,1,586,1,6,1,"1a36ee0",197,1
"1992",1,1,820,6,6,1,"1a36ee0",198,1
"2002",1,0,641,6,17,1,"1a36ee0",199,1
"2013",0,1,696,17,9,1,"1a36ee0",200,1
"2022",1,1,568,9,9,1,"1a36ee0",201,1
"2032",0,1,462,9,3,1,"1a36ee0",202,1
"2042",0,1,531,3,12,1,"1a36ee0",203,1
"2052",1,1,416,12,12,1,"1a36ee0",204,1
"2062",0,1,697,12,14,1,"1a36ee0",205,1
"2072",1,1,568,14,14,1,"1a36ee0",206,1
"2082",0,1,402,14,8,1,"1a36ee0",207,1
"2092",0,1,594,8,13,1,"1a36ee0",208,1
"2102",1,1,686,13,13,1,"1a36ee0",209,1
"2113",1,0,717,13,4,1,"1a36ee0",210,1
"2122",1,1,633,4,4,1,"1a36ee0",211,1
"2132",0,1,713,4,10,1,"1a36ee0",212,1
"2142",0,1,501,10,11,1,"1a36ee0",213,1
"2152",1,1,749,11,11,1,"1a36ee0",214,1
"2162",0,1,601,11,13,1,"1a36ee0",215,1
"2172",0,1,487,13,5,1,"1a36ee0",216,1
"2182",1,1,541,5,5,1,"1a36ee0",217,1
"2192",0,1,314,5,3,1,"1a36ee0",218,1
"2202",1,0,539,3,14,1,"1a36ee0",219,1
"2213",1,0,651,14,16,1,"1a36ee0",220,1
"2222",0,1,382,16,8,1,"1a36ee0",221,1
"2232",1,0,591,8,18,1,"1a36ee0",222,1
"2242",1,1,489,18,18,1,"1a36ee0",223,1
"2252",0,1,419,18,4,1,"1a36ee0",224,1
"2262",0,1,694,4,17,1,"1a36ee0",225,1
"2272",0,1,671,17,12,1,"1a36ee0",226,1
"2282",1,1,456,12,12,1,"1a36ee0",227,1
"2292",0,1,369,12,15,1,"1a36ee0",228,1
"2302",1,0,400,15,7,1,"1a36ee0",229,1
"2313",1,1,361,7,7,1,"1a36ee0",230,1
"2322",0,1,543,7,9,1,"1a36ee0",231,1
"2332",0,1,711,9,10,1,"1a36ee0",232,1
"2342",1,0,416,10,6,1,"1a36ee0",233,1
"2352",1,1,591,6,6,1,"1a36ee0",234,1
"2362",0,1,437,6,11,1,"1a36ee0",235,1
"2372",0,1,856,11,1,1,"1a36ee0",236,1
"2382",0,0,359,1,1,1,"1a36ee0",237,1
"2392",0,1,861,1,2,1,"1a36ee0",238,1
"2402",1,1,518,2,2,1,"1a36ee0",239,1
"2413",0,1,343,2,7,1,"1a36ee0",240,1
"2422",1,1,863,7,7,1,"1a36ee0",241,1
"2432",0,1,1039,7,6,1,"1a36ee0",242,1
"2442",0,0,1091,6,6,1,"1a36ee0",243,1
"2452",1,0,879,6,13,1,"1a36ee0",244,1
"2462",0,1,660,13,1,1,"1a36ee0",245,1
"2472",1,1,571,1,1,1,"1a36ee0",246,1
"2482",0,1,371,1,10,1,"1a36ee0",247,1
"2492",0,1,480,10,4,1,"1a36ee0",248,1
"2502",0,1,534,4,8,1,"1a36ee0",249,1
"2513",0,1,1398,8,14,1,"1a36ee0",250,1
"2522",0,0,1218,14,14,1,"1a36ee0",251,1
"2532",0,1,808,14,18,1,"1a36ee0",252,1
"2542",1,1,463,18,18,1,"1a36ee0",253,1
"2552",0,1,358,18,15,1,"1a36ee0",254,1
"2562",1,1,387,15,15,1,"1a36ee0",255,1
"2572",0,1,240,15,2,1,"1a36ee0",256,1
"2582",0,0,795,2,2,1,"1a36ee0",257,1
"2592",0,1,573,2,5,1,"1a36ee0",258,1
"2602",0,1,478,5,3,1,"1a36ee0",259,1
"2613",1,0,370,3,17,1,"1a36ee0",260,1
"2622",1,1,590,17,17,1,"1a36ee0",261,1
"2632",0,1,774,17,16,1,"1a36ee0",262,1
"2642",0,0,907,16,16,1,"1a36ee0",263,1
"2652",0,1,639,16,11,1,"1a36ee0",264,1
"2661",1,1,493,11,11,1,"1a36ee0",265,1
"2671",0,1,601,11,9,1,"1a36ee0",266,1
"2681",0,0,449,9,9,1,"1a36ee0",267,1
"2691",0,1,597,9,12,1,"1a36ee0",268,1
"2701",0,0,336,12,12,1,"1a36ee0",269,1
"283",-1,-1,0,0,15,1,"15b774e",1,1
"314",1,1,939,15,15,1,"15b774e",2,1
"414",0,1,842,15,6,1,"15b774e",3,1
"514",1,0,750,6,16,1,"15b774e",4,1
"614",1,1,969,16,16,1,"15b774e",5,1
"714",0,1,803,16,4,1,"15b774e",6,1
"814",1,1,649,4,4,1,"15b774e",7,1
"914",0,1,692,4,1,1,"15b774e",8,1
"1014",0,1,949,1,11,1,"15b774e",9,1
"1114",0,0,1246,11,11,1,"15b774e",10,1
"1214",0,1,996,11,18,1,"15b774e",11,1
"1314",0,1,1006,18,10,1,"15b774e",12,1
"1414",0,1,1265,10,14,1,"15b774e",13,1
"1514",0,0,1096,14,14,1,"15b774e",14,1
"1614",0,1,686,14,5,1,"15b774e",15,1
"1714",0,0,959,5,5,1,"15b774e",16,1
"1814",0,1,564,5,3,1,"15b774e",17,1
"1914",1,1,927,3,3,1,"15b774e",18,1
"2014",0,1,724,3,17,1,"15b774e",19,1
"2114",1,1,1055,17,17,1,"15b774e",20,1
"2214",0,1,651,17,8,1,"15b774e",21,1
"2314",1,1,1310,8,8,1,"15b774e",22,1
"2414",0,1,546,8,13,1,"15b774e",23,1
"2514",1,1,1006,13,13,1,"15b774e",24,1
"2614",0,1,1184,13,12,1,"15b774e",25,1
"2711",0,1,915,12,7,1,"15b774e",26,1
"284",0,1,617,7,2,1,"15b774e",27,1
"293",0,1,1331,2,9,1,"15b774e",28,1
"303",1,1,918,9,9,1,"15b774e",29,1
"315",0,1,707,9,17,1,"15b774e",30,1
"323",1,1,731,17,17,1,"15b774e",31,1
"333",0,1,1171,17,1,1,"15b774e",32,1
"343",1,1,1031,1,1,1,"15b774e",33,1
"353",0,1,587,1,16,1,"15b774e",34,1
"363",1,1,831,16,16,1,"15b774e",35,1
"373",0,1,923,16,2,1,"15b774e",36,1
"383",0,1,1068,2,14,1,"15b774e",37,1
"393",1,1,760,14,14,1,"15b774e",38,1
"403",0,1,691,14,5,1,"15b774e",39,1
"415",1,1,886,5,5,1,"15b774e",40,1
"423",0,1,1133,5,12,1,"15b774e",41,1
"433",1,1,860,12,12,1,"15b774e",42,1
"443",1,0,765,12,11,1,"15b774e",43,1
"453",0,1,729,11,9,1,"15b774e",44,1
"463",1,1,821,9,9,1,"15b774e",45,1
"473",0,1,886,9,6,1,"15b774e",46,1
"483",1,1,1829,6,6,1,"15b774e",47,1
"493",0,1,1544,6,4,1,"15b774e",48,1
"503",0,1,1013,4,8,1,"15b774e",49,1
"515",1,1,862,8,8,1,"15b774e",50,1
"523",0,1,581,8,3,1,"15b774e",51,1
"533",0,1,840,3,15,1,"15b774e",52,1
"543",1,1,796,15,15,1,"15b774e",53,1
"553",0,1,735,15,7,1,"15b774e",54,1
"563",1,1,1897,7,7,1,"15b774e",55,1
"573",1,0,2290,7,13,1,"15b774e",56,1
"583",0,0,1593,13,13,1,"15b774e",57,1
"593",0,1,1049,13,18,1,"15b774e",58,1
"603",0,0,831,18,18,1,"15b774e",59,1
"615",0,1,1516,18,10,1,"15b774e",60,1
"623",0,1,1310,10,7,1,"15b774e",61,1
"633",-1,-1,0,7,7,1,"15b774e",62,1
"643",-1,-1,0,7,2,1,"15b774e",63,1
"653",0,0,2013,2,2,1,"15b774e",64,1
"663",-1,-1,0,2,1,1,"15b774e",65,1
"673",-1,-1,0,1,12,1,"15b774e",66,1
"683",-1,-1,0,12,9,1,"15b774e",67,1
"693",-1,-1,0,9,11,1,"15b774e",68,1
"703",-1,-1,0,11,11,1,"15b774e",69,1
"715",-1,-1,0,11,8,1,"15b774e",70,1
"723",-1,-1,0,8,8,1,"15b774e",71,1
"733",-1,-1,0,8,6,1,"15b774e",72,1
"743",-1,-1,0,6,16,1,"15b774e",73,1
"753",0,1,1177,16,4,1,"15b774e",74,1
"763",1,1,700,4,4,1,"15b774e",75,1
"773",0,1,724,4,17,1,"15b774e",76,1
"783",1,0,886,17,3,1,"15b774e",77,1
"793",1,1,1059,3,3,1,"15b774e",78,1
"803",0,1,677,3,5,1,"15b774e",79,1
"815",0,1,1042,5,13,1,"15b774e",80,1
"823",1,1,706,13,13,1,"15b774e",81,1
"833",0,1,1617,13,15,1,"15b774e",82,1
"843",1,1,1002,15,15,1,"15b774e",83,1
"853",1,0,1068,15,10,1,"15b774e",84,1
"863",1,0,1111,10,14,1,"15b774e",85,1
"873",1,1,723,14,14,1,"15b774e",86,1
"883",0,1,552,14,18,1,"15b774e",87,1
"893",0,1,1162,18,16,1,"15b774e",88,1
"903",1,1,1741,16,16,1,"15b774e",89,1
"915",0,1,700,16,8,1,"15b774e",90,1
"923",0,0,830,8,8,1,"15b774e",91,1
"933",0,1,1235,8,18,1,"15b774e",92,1
"943",1,1,795,18,18,1,"15b774e",93,1
"953",0,1,771,18,12,1,"15b774e",94,1
"963",1,0,917,12,1,1,"15b774e",95,1
"973",0,1,817,1,9,1,"15b774e",96,1
"983",0,1,991,9,13,1,"15b774e",97,1
"993",1,1,668,13,13,1,"15b774e",98,1
"1003",0,1,471,13,14,1,"15b774e",99,1
"1015",1,0,1327,14,15,1,"15b774e",100,1
"1023",1,0,1044,15,10,1,"15b774e",101,1
"1033",0,1,896,10,7,1,"15b774e",102,1
"1043",1,1,850,7,7,1,"15b774e",103,1
"1053",0,1,753,7,17,1,"15b774e",104,1
"1063",0,1,722,17,2,1,"15b774e",105,1
"1073",0,0,858,2,2,1,"15b774e",106,1
"1083",0,1,933,2,11,1,"15b774e",107,1
"1093",0,0,878,11,11,1,"15b774e",108,1
"1103",0,1,761,11,6,1,"15b774e",109,1
"1115",1,1,1124,6,6,1,"15b774e",110,1
"1123",0,1,676,6,4,1,"15b774e",111,1
"1133",0,1,628,4,3,1,"15b774e",112,1
"1143",0,1,692,3,5,1,"15b774e",113,1
"1153",0,1,762,5,3,1,"15b774e",114,1
"1163",1,1,1368,3,3,1,"15b774e",115,1
"1173",0,1,544,3,14,1,"15b774e",116,1
"1183",1,1,900,14,14,1,"15b774e",117,1
"1193",0,1,824,14,10,1,"15b774e",118,1
"1203",1,1,713,10,10,1,"15b774e",119,1
"1215",0,1,590,10,8,1,"15b774e",120,1
"1223",1,1,773,8,8,1,"15b774e",121,1
"1233",0,1,950,8,11,1,"15b774e",122,1
"1243",0,1,689,11,6,1,"15b774e",123,1
"1253",1,0,875,6,2,1,"15b774e",124,1
"1263",1,1,554,2,2,1,"15b774e",125,1
"1273",0,1,713,2,9,1,"15b774e",126,1
"1283",1,1,759,9,9,1,"15b774e",127,1
"1293",0,1,535,9,17,1,"15b774e",128,1
"1303",1,1,789,17,17,1,"15b774e",129,1
"1315",0,1,653,17,12,1,"15b774e",130,1
"1323",1,0,651,12,5,1,"15b774e",131,1
"1333",0,1,620,5,4,1,"15b774e",132,1
"1343",1,1,610,4,4,1,"15b774e",133,1
"1353",0,1,560,4,7,1,"15b774e",134,1
"1363",1,0,590,7,1,1,"15b774e",135,1
"1373",0,1,516,1,18,1,"15b774e",136,1
"1383",0,1,869,18,15,1,"15b774e",137,1
"1393",0,1,1058,15,16,1,"15b774e",138,1
"1403",0,0,627,16,16,1,"15b774e",139,1
"1415",0,1,664,16,13,1,"15b774e",140,1
"1423",1,1,934,13,13,1,"15b774e",141,1
"1433",0,1,654,13,16,1,"15b774e",142,1
"1443",1,1,622,16,16,1,"15b774e",143,1
"1453",1,0,718,16,3,1,"15b774e",144,1
"1463",0,1,1701,3,18,1,"15b774e",145,1
"1473",1,0,1264,18,9,1,"15b774e",146,1
"1483",0,0,804,9,9,1,"15b774e",147,1
"1493",1,0,655,9,13,1,"15b774e",148,1
"1503",1,1,2045,13,13,1,"15b774e",149,1
"1515",0,1,822,13,15,1,"15b774e",150,1
"1523",0,0,879,15,15,1,"15b774e",151,1
"1533",0,1,875,15,6,1,"15b774e",152,1
"1543",0,1,921,6,4,1,"15b774e",153,1
"1553",1,1,855,4,4,1,"15b774e",154,1
"1563",0,1,634,4,1,1,"15b774e",155,1
"1573",0,1,716,1,14,1,"15b774e",156,1
"1583",1,1,836,14,14,1,"15b774e",157,1
"1593",0,1,681,14,17,1,"15b774e",158,1
"1603",1,1,696,17,17,1,"15b774e",159,1
"1615",0,1,654,17,8,1,"15b774e",160,1
"1623",1,1,749,8,8,1,"15b774e",161,1
"1633",0,1,532,8,10,1,"15b774e",162,1
"1643",1,1,908,10,10,1,"15b774e",163,1
"1653",0,1,447,10,11,1,"15b774e",164,1
"1663",0,1,1012,11,2,1,"15b774e",165,1
"1673",0,1,778,2,12,1,"15b774e",166,1
"1683",0,1,909,12,5,1,"15b774e",167,1
"1693",0,1,658,5,7,1,"15b774e",168,1
"1703",0,1,713,7,16,1,"15b774e",169,1
"1715",0,1,677,16,13,1,"15b774e",170,1
"1723",1,1,735,13,13,1,"15b774e",171,1
"1733",0,1,705,13,9,1,"15b774e",172,1
"1743",1,1,1161,9,9,1,"15b774e",173,1
"1753",0,1,789,9,3,1,"15b774e",174,1
"1763",0,1,839,3,4,1,"15b774e",175,1
"1773",0,1,575,4,5,1,"15b774e",176,1
"1783",0,1,865,5,14,1,"15b774e",177,1
"1793",0,1,800,14,17,1,"15b774e",178,1
"1803",0,1,668,17,18,1,"15b774e",179,1
"1815",0,1,1424,18,15,1,"15b774e",180,1
"1823",1,1,1807,15,15,1,"15b774e",181,1
"1833",1,0,2483,15,10,1,"15b774e",182,1
"1843",0,1,849,10,6,1,"15b774e",183,1
"1853",0,1,649,6,11,1,"15b774e",184,1
"1863",0,1,1190,11,1,1,"15b774e",185,1
"1873",0,1,1540,1,8,1,"15b774e",186,1
"1883",0,0,856,8,8,1,"15b774e",187,1
"1893",1,0,636,8,2,1,"15b774e",188,1
"1903",1,1,700,2,2,1,"15b774e",189,1
"1915",0,1,510,2,7,1,"15b774e",190,1
"1923",0,0,844,7,7,1,"15b774e",191,1
"1933",0,1,902,7,12,1,"15b774e",192,1
"1943",1,0,1784,12,5,1,"15b774e",193,1
"1953",1,1,542,5,5,1,"15b774e",194,1
"1963",0,1,494,5,10,1,"15b774e",195,1
"1973",1,1,881,10,10,1,"15b774e",196,1
"1983",0,1,823,10,3,1,"15b774e",197,1
"1993",1,1,1298,3,3,1,"15b774e",198,1
"2003",0,1,606,3,7,1,"15b774e",199,1
"2015",1,1,650,7,7,1,"15b774e",200,1
"2023",0,1,504,7,2,1,"15b774e",201,1
"2033",1,1,403,2,2,1,"15b774e",202,1
"2043",0,1,496,2,17,1,"15b774e",203,1
"2053",1,0,788,17,15,1,"15b774e",204,1
"2063",1,1,777,15,15,1,"15b774e",205,1
"2073",0,1,610,15,14,1,"15b774e",206,1
"2083",1,0,879,14,1,1,"15b774e",207,1
"2093",1,1,455,1,1,1,"15b774e",208,1
"2103",0,1,528,1,8,1,"15b774e",209,1
"2115",1,0,861,8,6,1,"15b774e",210,1
"2123",1,1,1142,6,6,1,"15b774e",211,1
"2133",0,1,441,6,4,1,"15b774e",212,1
"2143",1,1,614,4,4,1,"15b774e",213,1
"2153",0,1,697,4,13,1,"15b774e",214,1
"2163",1,1,565,13,13,1,"15b774e",215,1
"2173",0,1,696,13,18,1,"15b774e",216,1
"2183",1,1,581,18,18,1,"15b774e",217,1
"2193",0,1,1032,18,11,1,"15b774e",218,1
"2203",1,1,569,11,11,1,"15b774e",219,1
"2215",0,1,595,11,16,1,"15b774e",220,1
"2223",1,0,449,16,12,1,"15b774e",221,1
"2233",0,1,576,12,9,1,"15b774e",222,1
"2243",1,1,547,9,9,1,"15b774e",223,1
"2253",0,1,793,9,16,1,"15b774e",224,1
"2263",1,1,729,16,16,1,"15b774e",225,1
"2273",0,1,749,16,8,1,"15b774e",226,1
"2283",0,1,1012,8,10,1,"15b774e",227,1
"2293",0,1,924,10,4,1,"15b774e",228,1
"2303",0,1,680,4,11,1,"15b774e",229,1
"2315",1,1,1032,11,11,1,"15b774e",230,1
"2323",0,1,597,11,3,1,"15b774e",231,1
"2333",0,0,906,3,3,1,"15b774e",232,1
"2343",0,1,636,3,9,1,"15b774e",233,1
"2353",0,1,533,9,17,1,"15b774e",234,1
"2363",1,1,737,17,17,1,"15b774e",235,1
"2373",0,1,591,17,13,1,"15b774e",236,1
"2383",0,1,573,13,2,1,"15b774e",237,1
"2393",0,1,802,2,18,1,"15b774e",238,1
"2403",1,0,837,18,12,1,"15b774e",239,1
"2415",1,1,612,12,12,1,"15b774e",240,1
"2423",0,1,420,12,14,1,"15b774e",241,1
"2433",1,1,621,14,14,1,"15b774e",242,1
"2443",1,0,559,14,15,1,"15b774e",243,1
"2453",1,1,570,15,15,1,"15b774e",244,1
"2463",0,1,2404,15,6,1,"15b774e",245,1
"2473",0,1,788,6,1,1,"15b774e",246,1
"2483",0,1,883,1,5,1,"15b774e",247,1
"2493",1,1,628,5,5,1,"15b774e",248,1
"2503",0,1,663,5,7,1,"15b774e",249,1
"2515",0,1,721,7,18,1,"15b774e",250,1
"2523",1,1,634,18,18,1,"15b774e",251,1
"2533",0,1,492,18,17,1,"15b774e",252,1
"2543",1,1,633,17,17,1,"15b774e",253,1
"2553",0,1,559,17,2,1,"15b774e",254,1
"2563",1,0,2496,2,9,1,"15b774e",255,1
"2573",1,0,626,9,1,1,"15b774e",256,1
"2583",0,1,597,1,12,1,"15b774e",257,1
"2593",1,1,735,12,12,1,"15b774e",258,1
"2603",1,0,1459,12,11,1,"15b774e",259,1
"2615",0,1,600,11,16,1,"15b774e",260,1
"2623",0,1,843,16,8,1,"15b774e",261,1
"2633",0,1,675,8,5,1,"15b774e",262,1
"2643",1,1,833,5,5,1,"15b774e",263,1
"2653",0,1,641,5,13,1,"15b774e",264,1
"2662",1,1,673,13,13,1,"15b774e",265,1
"2672",0,1,599,13,3,1,"15b774e",266,1
"2682",0,0,790,3,3,1,"15b774e",267,1
"2692",0,1,660,3,15,1,"15b774e",268,1
"2702",0,1,1335,15,10,1,"15b774e",269,1
"2712",1,1,1026,10,10,1,"15b774e",270,1
"2721",1,0,891,10,7,1,"15b774e",271,1
"2731",1,1,756,7,7,1,"15b774e",272,1
"2741",1,0,708,7,14,1,"15b774e",273,1
"2751",1,1,744,14,14,1,"15b774e",274,1
"2761",0,1,518,14,4,1,"15b774e",275,1
"2771",1,1,735,4,4,1,"15b774e",276,1
"2781",0,1,501,4,6,1,"15b774e",277,1
"285",-1,-1,0,0,18,1,"1695138",1,1
"316",-1,-1,0,18,18,1,"1695138",2,1
"416",-1,-1,0,18,13,1,"1695138",3,1
"516",-1,-1,0,13,13,1,"1695138",4,1
"616",-1,-1,0,13,11,1,"1695138",5,1
"716",-1,-1,0,11,11,1,"1695138",6,1
"816",-1,-1,0,11,7,1,"1695138",7,1
"916",-1,-1,0,7,7,1,"1695138",8,1
"1016",-1,-1,0,7,4,1,"1695138",9,1
"1116",-1,-1,0,4,4,1,"1695138",10,1
"1216",-1,-1,0,4,2,1,"1695138",11,1
"1316",-1,-1,0,2,2,1,"1695138",12,1
"1416",-1,-1,0,2,12,1,"1695138",13,1
"1516",-1,-1,0,12,1,1,"1695138",14,1
"1616",-1,-1,0,1,1,1,"1695138",15,1
"1716",-1,-1,0,1,14,1,"1695138",16,1
"1816",-1,-1,0,14,14,1,"1695138",17,1
"1916",-1,-1,0,14,17,1,"1695138",18,1
"2016",-1,-1,0,17,15,1,"1695138",19,1
"2116",-1,-1,0,15,9,1,"1695138",20,1
"2216",-1,-1,0,9,8,1,"1695138",21,1
"2316",-1,-1,0,8,6,1,"1695138",22,1
"2416",-1,-1,0,6,16,1,"1695138",23,1
"2516",-1,-1,0,16,3,1,"1695138",24,1
"2616",-1,-1,0,3,3,1,"1695138",25,1
"2713",-1,-1,0,3,10,1,"1695138",26,1
"286",-1,-1,0,10,10,1,"1695138",27,1
"294",-1,-1,0,10,5,1,"1695138",28,1
"304",-1,-1,0,5,5,1,"1695138",29,1
"317",-1,-1,0,5,1,1,"1695138",30,1
"324",-1,-1,0,1,1,1,"1695138",31,1
"334",-1,-1,0,1,11,1,"1695138",32,1
"344",-1,-1,0,11,8,1,"1695138",33,1
"354",-1,-1,0,8,5,1,"1695138",34,1
"364",-1,-1,0,5,5,1,"1695138",35,1
"374",-1,-1,0,5,14,1,"1695138",36,1
"384",-1,-1,0,14,14,1,"1695138",37,1
"394",-1,-1,0,14,17,1,"1695138",38,1
"404",-1,-1,0,17,6,1,"1695138",39,1
"417",-1,-1,0,6,10,1,"1695138",40,1
"424",-1,-1,0,10,10,1,"1695138",41,1
"434",-1,-1,0,10,12,1,"1695138",42,1
"444",-1,-1,0,12,12,1,"1695138",43,1
"454",-1,-1,0,12,7,1,"1695138",44,1
"464",-1,-1,0,7,2,1,"1695138",45,1
"474",-1,-1,0,2,2,1,"1695138",46,1
"484",-1,-1,0,2,16,1,"1695138",47,1
"494",-1,-1,0,16,15,1,"1695138",48,1
"504",-1,-1,0,15,15,1,"1695138",49,1
"517",-1,-1,0,15,4,1,"1695138",50,1
"524",-1,-1,0,4,13,1,"1695138",51,1
"534",-1,-1,0,13,13,1,"1695138",52,1
"544",-1,-1,0,13,3,1,"1695138",53,1
"554",-1,-1,0,3,3,1,"1695138",54,1
"564",-1,-1,0,3,9,1,"1695138",55,1
"574",-1,-1,0,9,9,1,"1695138",56,1
"584",-1,-1,0,9,18,1,"1695138",57,1
"594",-1,-1,0,18,18,1,"1695138",58,1
"604",-1,-1,0,18,10,1,"1695138",59,1
"617",-1,-1,0,10,10,1,"1695138",60,1
"624",-1,-1,0,10,5,1,"1695138",61,1
"634",-1,-1,0,5,5,1,"1695138",62,1
"644",-1,-1,0,5,14,1,"1695138",63,1
"654",-1,-1,0,14,13,1,"1695138",64,1
"664",-1,-1,0,13,11,1,"1695138",65,1
"674",-1,-1,0,11,11,1,"1695138",66,1
"684",-1,-1,0,11,1,1,"1695138",67,1
"694",-1,-1,0,1,1,1,"1695138",68,1
"704",-1,-1,0,1,7,1,"1695138",69,1
"717",-1,-1,0,7,6,1,"1695138",70,1
"724",-1,-1,0,6,17,1,"1695138",71,1
"734",-1,-1,0,17,17,1,"1695138",72,1
"744",-1,-1,0,17,9,1,"1695138",73,1
"754",-1,-1,0,9,2,1,"1695138",74,1
"764",-1,-1,0,2,2,1,"1695138",75,1
"774",-1,-1,0,2,8,1,"1695138",76,1
"784",-1,-1,0,8,18,1,"1695138",77,1
"794",-1,-1,0,18,18,1,"1695138",78,1
"804",-1,-1,0,18,3,1,"1695138",79,1
"817",-1,-1,0,3,3,1,"1695138",80,1
"824",-1,-1,0,3,16,1,"1695138",81,1
"834",-1,-1,0,16,16,1,"1695138",82,1
"844",-1,-1,0,16,4,1,"1695138",83,1
"854",-1,-1,0,4,12,1,"1695138",84,1
"864",-1,-1,0,12,15,1,"1695138",85,1
"874",-1,-1,0,15,15,1,"1695138",86,1
"884",-1,-1,0,15,8,1,"1695138",87,1
"894",-1,-1,0,8,14,1,"1695138",88,1
"904",-1,-1,0,14,13,1,"1695138",89,1
"917",-1,-1,0,13,13,1,"1695138",90,1
"924",-1,-1,0,13,11,1,"1695138",91,1
"934",-1,-1,0,11,11,1,"1695138",92,1
"944",-1,-1,0,11,3,1,"1695138",93,1
"954",-1,-1,0,3,3,1,"1695138",94,1
"964",-1,-1,0,3,16,1,"1695138",95,1
"974",-1,-1,0,16,16,1,"1695138",96,1
"984",-1,-1,0,16,17,1,"1695138",97,1
"994",-1,-1,0,17,6,1,"1695138",98,1
"1004",-1,-1,0,6,6,1,"1695138",99,1
"1017",-1,-1,0,6,18,1,"1695138",100,1
"1024",-1,-1,0,18,2,1,"1695138",101,1
"1034",-1,-1,0,2,1,1,"1695138",102,1
"1044",-1,-1,0,1,15,1,"1695138",103,1
"1054",-1,-1,0,15,15,1,"1695138",104,1
"1064",-1,-1,0,15,4,1,"1695138",105,1
"1074",-1,-1,0,4,4,1,"1695138",106,1
"1084",-1,-1,0,4,9,1,"1695138",107,1
"1094",-1,-1,0,9,9,1,"1695138",108,1
"1104",-1,-1,0,9,7,1,"1695138",109,1
"1117",-1,-1,0,7,12,1,"1695138",110,1
"1124",-1,-1,0,12,5,1,"1695138",111,1
"1134",-1,-1,0,5,10,1,"1695138",112,1
"1144",-1,-1,0,10,10,1,"1695138",113,1
"1154",-1,-1,0,10,17,1,"1695138",114,1
"1164",-1,-1,0,17,13,1,"1695138",115,1
"1174",-1,-1,0,13,8,1,"1695138",116,1
"1184",-1,-1,0,8,9,1,"1695138",117,1
"1194",-1,-1,0,9,4,1,"1695138",118,1
"1204",-1,-1,0,4,2,1,"1695138",119,1
"1217",-1,-1,0,2,2,1,"1695138",120,1
"1224",-1,-1,0,2,16,1,"1695138",121,1
"1234",-1,-1,0,16,16,1,"1695138",122,1
"1244",-1,-1,0,16,3,1,"1695138",123,1
"1254",-1,-1,0,3,12,1,"1695138",124,1
"1264",-1,-1,0,12,12,1,"1695138",125,1
"1274",-1,-1,0,12,7,1,"1695138",126,1
"1284",-1,-1,0,7,7,1,"1695138",127,1
"1294",-1,-1,0,7,15,1,"1695138",128,1
"1304",-1,-1,0,15,14,1,"1695138",129,1
"1317",-1,-1,0,14,11,1,"1695138",130,1
"1324",-1,-1,0,11,11,1,"1695138",131,1
"1334",-1,-1,0,11,5,1,"1695138",132,1
"1344",-1,-1,0,5,18,1,"1695138",133,1
"1354",-1,-1,0,18,18,1,"1695138",134,1
"1364",-1,-1,0,18,1,1,"1695138",135,1
"1374",-1,-1,0,1,1,1,"1695138",136,1
"1384",-1,-1,0,1,6,1,"1695138",137,1
"1394",-1,-1,0,6,6,1,"1695138",138,1
"1404",-1,-1,0,6,10,1,"1695138",139,1
"1417",-1,-1,0,10,4,1,"1695138",140,1
"1424",-1,-1,0,4,4,1,"1695138",141,1
"1434",-1,-1,0,4,5,1,"1695138",142,1
"1444",-1,-1,0,5,9,1,"1695138",143,1
"1454",-1,-1,0,9,9,1,"1695138",144,1
"1464",-1,-1,0,9,13,1,"1695138",145,1
"1474",-1,-1,0,13,7,1,"1695138",146,1
"1484",-1,-1,0,7,18,1,"1695138",147,1
"1494",-1,-1,0,18,18,1,"1695138",148,1
"1504",-1,-1,0,18,15,1,"1695138",149,1
"1517",-1,-1,0,15,15,1,"1695138",150,1
"1524",-1,-1,0,15,16,1,"1695138",151,1
"1534",-1,-1,0,16,6,1,"1695138",152,1
"1544",-1,-1,0,6,6,1,"1695138",153,1
"1554",-1,-1,0,6,1,1,"1695138",154,1
"1564",-1,-1,0,1,2,1,"1695138",155,1
"1574",-1,-1,0,2,17,1,"1695138",156,1
"1584",-1,-1,0,17,17,1,"1695138",157,1
"1594",-1,-1,0,17,12,1,"1695138",158,1
"1604",-1,-1,0,12,3,1,"1695138",159,1
"1617",-1,-1,0,3,14,1,"1695138",160,1
"1624",-1,-1,0,14,14,1,"1695138",161,1
"1634",-1,-1,0,14,8,1,"1695138",162,1
"1644",-1,-1,0,8,10,1,"1695138",163,1
"1654",-1,-1,0,10,11,1,"1695138",164,1
"1664",-1,-1,0,11,3,1,"1695138",165,1
"1674",-1,-1,0,3,1,1,"1695138",166,1
"1684",-1,-1,0,1,1,1,"1695138",167,1
"1694",-1,-1,0,1,13,1,"1695138",168,1
"1704",-1,-1,0,13,18,1,"1695138",169,1
"1717",-1,-1,0,18,7,1,"1695138",170,1
"1724",-1,-1,0,7,7,1,"1695138",171,1
"1734",-1,-1,0,7,5,1,"1695138",172,1
"1744",-1,-1,0,5,4,1,"1695138",173,1
"1754",-1,-1,0,4,4,1,"1695138",174,1
"1764",-1,-1,0,4,9,1,"1695138",175,1
"1774",-1,-1,0,9,9,1,"1695138",176,1
"1784",-1,-1,0,9,14,1,"1695138",177,1
"1794",-1,-1,0,14,14,1,"1695138",178,1
"1804",-1,-1,0,14,10,1,"1695138",179,1
"1817",-1,-1,0,10,10,1,"1695138",180,1
"1824",-1,-1,0,10,17,1,"1695138",181,1
"1834",-1,-1,0,17,17,1,"1695138",182,1
"1844",-1,-1,0,17,16,1,"1695138",183,1
"1854",-1,-1,0,16,8,1,"1695138",184,1
"1864",-1,-1,0,8,8,1,"1695138",185,1
"1874",-1,-1,0,8,2,1,"1695138",186,1
"1884",-1,-1,0,2,6,1,"1695138",187,1
"1894",-1,-1,0,6,12,1,"1695138",188,1
"1904",-1,-1,0,12,12,1,"1695138",189,1
"1917",-1,-1,0,12,15,1,"1695138",190,1
"1924",-1,-1,0,15,15,1,"1695138",191,1
"1934",-1,-1,0,15,11,1,"1695138",192,1
"1944",-1,-1,0,11,11,1,"1695138",193,1
"1954",-1,-1,0,11,12,1,"1695138",194,1
"1964",-1,-1,0,12,7,1,"1695138",195,1
"1974",-1,-1,0,7,7,1,"1695138",196,1
"1984",-1,-1,0,7,13,1,"1695138",197,1
"1994",-1,-1,0,13,13,1,"1695138",198,1
"2004",-1,-1,0,13,16,1,"1695138",199,1
"2017",-1,-1,0,16,6,1,"1695138",200,1
"2024",-1,-1,0,6,15,1,"1695138",201,1
"2034",-1,-1,0,15,15,1,"1695138",202,1
"2044",-1,-1,0,15,14,1,"1695138",203,1
"2054",-1,-1,0,14,14,1,"1695138",204,1
"2064",-1,-1,0,14,11,1,"1695138",205,1
"2074",-1,-1,0,11,11,1,"1695138",206,1
"2084",-1,-1,0,11,17,1,"1695138",207,1
"2094",-1,-1,0,17,3,1,"1695138",208,1
"2104",-1,-1,0,3,4,1,"1695138",209,1
"2117",-1,-1,0,4,8,1,"1695138",210,1
"2124",-1,-1,0,8,10,1,"1695138",211,1
"2134",-1,-1,0,10,5,1,"1695138",212,1
"2144",-1,-1,0,5,1,1,"1695138",213,1
"2154",-1,-1,0,1,1,1,"1695138",214,1
"2164",-1,-1,0,1,18,1,"1695138",215,1
"2174",-1,-1,0,18,2,1,"1695138",216,1
"2184",-1,-1,0,2,9,1,"1695138",217,1
"2194",-1,-1,0,9,15,1,"1695138",218,1
"2204",-1,-1,0,15,1,1,"1695138",219,1
"2217",-1,-1,0,1,1,1,"1695138",220,1
"2224",-1,-1,0,1,14,1,"1695138",221,1
"2234",-1,-1,0,14,17,1,"1695138",222,1
"2244",-1,-1,0,17,17,1,"1695138",223,1
"2254",-1,-1,0,17,16,1,"1695138",224,1
"2264",-1,-1,0,16,16,1,"1695138",225,1
"2274",-1,-1,0,16,5,1,"1695138",226,1
"2284",-1,-1,0,5,5,1,"1695138",227,1
"2294",-1,-1,0,5,18,1,"1695138",228,1
"2304",-1,-1,0,18,18,1,"1695138",229,1
"2317",-1,-1,0,18,2,1,"1695138",230,1
"2324",-1,-1,0,2,2,1,"1695138",231,1
"2334",-1,-1,0,2,7,1,"1695138",232,1
"2344",-1,-1,0,7,7,1,"1695138",233,1
"2354",-1,-1,0,7,9,1,"1695138",234,1
"2364",-1,-1,0,9,13,1,"1695138",235,1
"2374",-1,-1,0,13,3,1,"1695138",236,1
"2384",-1,-1,0,3,3,1,"1695138",237,1
"2394",-1,-1,0,3,6,1,"1695138",238,1
"2404",-1,-1,0,6,4,1,"1695138",239,1
"2417",-1,-1,0,4,11,1,"1695138",240,1
"2424",-1,-1,0,11,11,1,"1695138",241,1
"2434",-1,-1,0,11,12,1,"1695138",242,1
"2444",-1,-1,0,12,12,1,"1695138",243,1
"2454",-1,-1,0,12,10,1,"1695138",244,1
"2464",-1,-1,0,10,10,1,"1695138",245,1
"2474",-1,-1,0,10,8,1,"1695138",246,1
"2484",-1,-1,0,8,4,1,"1695138",247,1
"2494",-1,-1,0,4,4,1,"1695138",248,1
"2504",-1,-1,0,4,14,1,"1695138",249,1
"2517",-1,-1,0,14,10,1,"1695138",250,1
"2524",-1,-1,0,10,10,1,"1695138",251,1
"2534",-1,-1,0,10,7,1,"1695138",252,1
"2544",-1,-1,0,7,7,1,"1695138",253,1
"2554",-1,-1,0,7,2,1,"1695138",254,1
"2564",-1,-1,0,2,8,1,"1695138",255,1
"2574",-1,-1,0,8,8,1,"1695138",256,1
"2584",-1,-1,0,8,15,1,"1695138",257,1
"2594",-1,-1,0,15,1,1,"1695138",258,1
"2604",-1,-1,0,1,1,1,"1695138",259,1
"2617",-1,-1,0,1,18,1,"1695138",260,1
"2624",-1,-1,0,18,18,1,"1695138",261,1
"2634",-1,-1,0,18,6,1,"1695138",262,1
"2644",-1,-1,0,6,6,1,"1695138",263,1
"2654",-1,-1,0,6,16,1,"1695138",264,1
"2663",-1,-1,0,16,16,1,"1695138",265,1
"2673",-1,-1,0,16,11,1,"1695138",266,1
"2683",-1,-1,0,11,17,1,"1695138",267,1
"2693",-1,-1,0,17,17,1,"1695138",268,1
"2703",-1,-1,0,17,12,1,"1695138",269,1
"2714",-1,-1,0,12,13,1,"1695138",270,1
"2722",-1,-1,0,13,9,1,"1695138",271,1
"2732",-1,-1,0,9,9,1,"1695138",272,1
"2742",-1,-1,0,9,3,1,"1695138",273,1
"2752",-1,-1,0,3,5,1,"1695138",274,1
"2762",-1,-1,0,5,5,1,"1695138",275,1
"287",-1,-1,0,0,5,1,"19cbad3",1,1
"318",0,1,1119,5,7,1,"19cbad3",2,1
"418",1,1,909,7,7,1,"19cbad3",3,1
"518",1,0,893,7,13,1,"19cbad3",4,1
"618",1,1,994,13,13,1,"19cbad3",5,1
"718",1,0,1112,13,15,1,"19cbad3",6,1
"818",1,1,1181,15,15,1,"19cbad3",7,1
"918",0,1,583,15,1,1,"19cbad3",8,1
"1018",1,1,850,1,1,1,"19cbad3",9,1
"1118",0,1,1034,1,10,1,"19cbad3",10,1
"1218",0,1,861,10,12,1,"19cbad3",11,1
"1318",1,1,985,12,12,1,"19cbad3",12,1
"1418",1,0,690,12,4,1,"19cbad3",13,1
"1518",1,1,774,4,4,1,"19cbad3",14,1
"1618",0,1,1001,4,6,1,"19cbad3",15,1
"1718",1,0,652,6,3,1,"19cbad3",16,1
"1818",1,1,1058,3,3,1,"19cbad3",17,1
"1918",1,0,852,3,17,1,"19cbad3",18,1
"2018",0,0,1032,17,17,1,"19cbad3",19,1
"2118",0,1,931,17,11,1,"19cbad3",20,1
"2218",1,1,808,11,11,1,"19cbad3",21,1
"2318",0,1,1176,11,18,1,"19cbad3",22,1
"2418",0,1,809,18,16,1,"19cbad3",23,1
"2518",0,1,828,16,2,1,"19cbad3",24,1
"2618",1,0,1059,2,8,1,"19cbad3",25,1
"2715",0,1,1019,8,9,1,"19cbad3",26,1
"288",0,1,823,9,14,1,"19cbad3",27,1
"295",0,1,864,14,16,1,"19cbad3",28,1
"305",1,1,902,16,16,1,"19cbad3",29,1
"319",0,1,862,16,7,1,"19cbad3",30,1
"325",0,0,743,7,7,1,"19cbad3",31,1
"335",1,0,945,7,15,1,"19cbad3",32,1
"345",1,1,918,15,15,1,"19cbad3",33,1
"355",0,1,917,15,18,1,"19cbad3",34,1
"365",1,0,856,18,5,1,"19cbad3",35,1
"375",0,1,888,5,1,1,"19cbad3",36,1
"385",0,0,740,1,1,1,"19cbad3",37,1
"395",0,1,847,1,9,1,"19cbad3",38,1
"405",0,1,862,9,14,1,"19cbad3",39,1
"419",1,1,768,14,14,1,"19cbad3",40,1
"425",0,1,821,14,12,1,"19cbad3",41,1
"435",0,0,707,12,12,1,"19cbad3",42,1
"445",0,1,889,12,17,1,"19cbad3",43,1
"455",1,1,810,17,17,1,"19cbad3",44,1
"465",0,1,716,17,4,1,"19cbad3",45,1
"475",0,0,765,4,4,1,"19cbad3",46,1
"485",1,0,725,4,11,1,"19cbad3",47,1
"495",0,1,822,11,6,1,"19cbad3",48,1
"505",0,1,875,6,8,1,"19cbad3",49,1
"519",0,1,819,8,13,1,"19cbad3",50,1
"525",0,1,758,13,2,1,"19cbad3",51,1
"535",0,0,837,2,2,1,"19cbad3",52,1
"545",0,1,783,2,10,1,"19cbad3",53,1
"555",1,0,626,10,3,1,"19cbad3",54,1
"565",1,1,912,3,3,1,"19cbad3",55,1
"575",0,1,729,3,9,1,"19cbad3",56,1
"585",0,0,1122,9,9,1,"19cbad3",57,1
"595",0,1,1119,9,17,1,"19cbad3",58,1
"605",1,1,828,17,17,1,"19cbad3",59,1
"619",1,0,868,17,6,1,"19cbad3",60,1
"625",0,1,1317,6,2,1,"19cbad3",61,1
"635",0,1,1017,2,14,1,"19cbad3",62,1
"645",1,0,737,14,10,1,"19cbad3",63,1
"655",0,1,897,10,1,1,"19cbad3",64,1
"665",0,0,904,1,1,1,"19cbad3",65,1
"675",0,1,1006,1,3,1,"19cbad3",66,1
"685",0,1,818,3,11,1,"19cbad3",67,1
"695",0,1,1076,11,16,1,"19cbad3",68,1
"705",0,1,786,16,7,1,"19cbad3",69,1
"719",1,0,634,7,13,1,"19cbad3",70,1
"725",0,1,726,13,12,1,"19cbad3",71,1
"735",0,1,691,12,5,1,"19cbad3",72,1
"745",0,1,725,5,4,1,"19cbad3",73,1
"755",0,0,1045,4,4,1,"19cbad3",74,1
"765",0,1,785,4,8,1,"19cbad3",75,1
"775",1,1,521,8,8,1,"19cbad3",76,1
"785",0,1,707,8,15,1,"19cbad3",77,1
"795",0,1,813,15,18,1,"19cbad3",78,1
"805",0,1,849,18,3,1,"19cbad3",79,1
"819",0,0,1205,3,3,1,"19cbad3",80,1
"825",0,1,755,3,11,1,"19cbad3",81,1
"835",1,1,914,11,11,1,"19cbad3",82,1
"845",0,1,723,11,17,1,"19cbad3",83,1
"855",1,1,882,17,17,1,"19cbad3",84,1
"865",0,1,745,17,13,1,"19cbad3",85,1
"875",0,1,1062,13,6,1,"19cbad3",86,1
"885",1,1,934,6,6,1,"19cbad3",87,1
"895",0,1,786,6,15,1,"19cbad3",88,1
"905",1,0,883,15,7,1,"19cbad3",89,1
"919",1,1,1541,7,7,1,"19cbad3",90,1
"925",0,1,734,7,16,1,"19cbad3",91,1
"935",1,1,901,16,16,1,"19cbad3",92,1
"945",0,1,771,16,1,1,"19cbad3",93,1
"955",1,1,773,1,1,1,"19cbad3",94,1
"965",0,1,818,1,4,1,"19cbad3",95,1
"975",0,1,1121,4,12,1,"19cbad3",96,1
"985",1,1,1328,12,12,1,"19cbad3",97,1
"995",1,0,1186,12,8,1,"19cbad3",98,1
"1005",1,1,859,8,8,1,"19cbad3",99,1
"1019",0,1,575,8,14,1,"19cbad3",100,1
"1025",0,1,917,14,18,1,"19cbad3",101,1
"1035",1,1,952,18,18,1,"19cbad3",102,1
"1045",0,1,913,18,9,1,"19cbad3",103,1
"1055",0,1,871,9,2,1,"19cbad3",104,1
"1065",1,1,898,2,2,1,"19cbad3",105,1
"1075",0,1,717,2,10,1,"19cbad3",106,1
"1085",1,1,826,10,10,1,"19cbad3",107,1
"1095",0,1,698,10,5,1,"19cbad3",108,1
"1105",1,1,572,5,5,1,"19cbad3",109,1
"1119",1,0,808,5,2,1,"19cbad3",110,1
"1125",0,1,1118,2,6,1,"19cbad3",111,1
"1135",1,1,1208,6,6,1,"19cbad3",112,1
"1145",0,1,771,6,18,1,"19cbad3",113,1
"1155",1,0,1399,18,13,1,"19cbad3",114,1
"1165",1,1,786,13,13,1,"19cbad3",115,1
"1175",1,0,1081,13,9,1,"19cbad3",116,1
"1185",0,1,732,9,10,1,"19cbad3",117,1
"1195",1,1,1354,10,10,1,"19cbad3",118,1
"1205",0,1,767,10,12,1,"19cbad3",119,1
"1219",0,1,1042,12,3,1,"19cbad3",120,1
"1225",1,1,661,3,3,1,"19cbad3",121,1
"1235",0,1,1131,3,17,1,"19cbad3",122,1
"1245",1,1,1065,17,17,1,"19cbad3",123,1
"1255",1,0,714,17,15,1,"19cbad3",124,1
"1265",1,1,1239,15,15,1,"19cbad3",125,1
"1275",0,1,756,15,11,1,"19cbad3",126,1
"1285",1,0,1346,11,5,1,"19cbad3",127,1
"1295",1,1,967,5,5,1,"19cbad3",128,1
"1305",1,0,1744,5,1,1,"19cbad3",129,1
"1319",1,1,1061,1,1,1,"19cbad3",130,1
"1325",0,1,1109,1,7,1,"19cbad3",131,1
"1335",0,1,920,7,16,1,"19cbad3",132,1
"1345",0,1,1163,16,4,1,"19cbad3",133,1
"1355",0,0,1124,4,4,1,"19cbad3",134,1
"1365",0,1,784,4,8,1,"19cbad3",135,1
"1375",0,0,1075,8,8,1,"19cbad3",136,1
"1385",0,1,824,8,14,1,"19cbad3",137,1
"1395",1,0,841,14,2,1,"19cbad3",138,1
"1405",0,1,984,2,1,1,"19cbad3",139,1
"1419",0,1,1332,1,6,1,"19cbad3",140,1
"1425",0,1,971,6,18,1,"19cbad3",141,1
"1435",0,0,1947,18,18,1,"19cbad3",142,1
"1445",0,1,985,18,9,1,"19cbad3",143,1
"1455",0,1,909,9,5,1,"19cbad3",144,1
"1465",1,1,1063,5,5,1,"19cbad3",145,1
"1475",0,1,639,5,17,1,"19cbad3",146,1
"1485",1,1,923,17,17,1,"19cbad3",147,1
"1495",0,1,1053,17,3,1,"19cbad3",148,1
"1505",1,1,945,3,3,1,"19cbad3",149,1
"1519",0,1,767,3,10,1,"19cbad3",150,1
"1525",0,1,878,10,15,1,"19cbad3",151,1
"1535",1,1,858,15,15,1,"19cbad3",152,1
"1545",1,0,1001,15,16,1,"19cbad3",153,1
"1555",1,1,1347,16,16,1,"19cbad3",154,1
"1565",0,1,752,16,14,1,"19cbad3",155,1
"1575",0,1,1597,14,12,1,"19cbad3",156,1
"1585",0,1,741,12,13,1,"19cbad3",157,1
"1595",0,1,1888,13,4,1,"19cbad3",158,1
"1605",1,0,781,4,8,1,"19cbad3",159,1
"1619",0,0,751,8,8,1,"19cbad3",160,1
"1625",1,0,689,8,11,1,"19cbad3",161,1
"1635",0,0,507,11,11,1,"19cbad3",162,1
"1645",0,1,861,11,7,1,"19cbad3",163,1
"1655",0,1,619,7,5,1,"19cbad3",164,1
"1665",0,1,924,5,13,1,"19cbad3",165,1
"1675",1,1,983,13,13,1,"19cbad3",166,1
"1685",0,1,874,13,10,1,"19cbad3",167,1
"1695",0,1,662,10,7,1,"19cbad3",168,1
"1705",0,1,803,7,3,1,"19cbad3",169,1
"1719",0,1,1060,3,16,1,"19cbad3",170,1
"1725",0,0,994,16,16,1,"19cbad3",171,1
"1735",0,1,851,16,2,1,"19cbad3",172,1
"1745",0,1,968,2,14,1,"19cbad3",173,1
"1755",0,1,702,14,12,1,"19cbad3",174,1
"1765",1,0,828,12,18,1,"19cbad3",175,1
"1775",0,1,950,18,17,1,"19cbad3",176,1
"1785",0,0,894,17,17,1,"19cbad3",177,1
"1795",1,0,1396,17,6,1,"19cbad3",178,1
"1805",0,1,882,6,4,1,"19cbad3",179,1
"1819",0,1,909,4,11,1,"19cbad3",180,1
"1825",0,1,1104,11,1,1,"19cbad3",181,1
"1835",1,1,836,1,1,1,"19cbad3",182,1
"1845",0,1,1575,1,9,1,"19cbad3",183,1
"1855",0,1,966,9,8,1,"19cbad3",184,1
"1865",0,0,1055,8,8,1,"19cbad3",185,1
"1875",0,1,864,8,15,1,"19cbad3",186,1
"1885",0,1,796,15,5,1,"19cbad3",187,1
"1895",0,1,877,5,13,1,"19cbad3",188,1
"1905",0,1,1418,13,12,1,"19cbad3",189,1
"1919",1,0,1137,12,6,1,"19cbad3",190,1
"1925",0,1,727,6,18,1,"19cbad3",191,1
"1935",0,1,1010,18,14,1,"19cbad3",192,1
"1945",1,1,641,14,14,1,"19cbad3",193,1
"1955",0,1,907,14,8,1,"19cbad3",194,1
"1965",0,0,1194,8,8,1,"19cbad3",195,1
"1975",0,1,676,8,16,1,"19cbad3",196,1
"1985",0,1,733,16,7,1,"19cbad3",197,1
"1995",0,1,931,7,4,1,"19cbad3",198,1
"2005",0,1,884,4,3,1,"19cbad3",199,1
"2019",0,1,869,3,11,1,"19cbad3",200,1
"2025",0,1,728,11,15,1,"19cbad3",201,1
"2035",0,1,771,15,9,1,"19cbad3",202,1
"2045",0,1,839,9,10,1,"19cbad3",203,1
"2055",1,1,1075,10,10,1,"19cbad3",204,1
"2065",0,1,752,10,1,1,"19cbad3",205,1
"2075",0,1,666,1,17,1,"19cbad3",206,1
"2085",0,1,879,17,2,1,"19cbad3",207,1
"2095",1,1,1082,2,2,1,"19cbad3",208,1
"2105",1,1,1070,2,2,1,"19cbad3",209,1
"2119",1,1,723,2,2,1,"19cbad3",210,1
"2125",0,1,761,2,3,1,"19cbad3",211,1
"2135",1,1,819,3,3,1,"19cbad3",212,1
"2145",0,1,932,3,17,1,"19cbad3",213,1
"2155",0,1,786,17,5,1,"19cbad3",214,1
"2165",0,1,1191,5,7,1,"19cbad3",215,1
"2175",0,1,752,7,9,1,"19cbad3",216,1
"2185",1,1,841,9,9,1,"19cbad3",217,1
"2195",0,1,835,9,15,1,"19cbad3",218,1
"2205",0,1,887,15,8,1,"19cbad3",219,1
"2219",0,0,774,8,8,1,"19cbad3",220,1
"2225",0,1,871,8,14,1,"19cbad3",221,1
"2235",1,1,1239,14,14,1,"19cbad3",222,1
"2245",0,1,808,14,18,1,"19cbad3",223,1
"2255",0,0,880,18,18,1,"19cbad3",224,1
"2265",1,0,783,18,11,1,"19cbad3",225,1
"2275",0,1,859,11,16,1,"19cbad3",226,1
"2285",1,0,961,16,10,1,"19cbad3",227,1
"2295",0,1,921,10,4,1,"19cbad3",228,1
"2305",1,0,793,4,1,1,"19cbad3",229,1
"2319",1,1,729,1,1,1,"19cbad3",230,1
"2325",0,1,755,1,6,1,"19cbad3",231,1
"2335",0,1,1157,6,12,1,"19cbad3",232,1
"2345",1,0,857,12,13,1,"19cbad3",233,1
"2355",0,1,1042,13,15,1,"19cbad3",234,1
"2365",1,0,677,15,7,1,"19cbad3",235,1
"2375",0,0,1094,7,7,1,"19cbad3",236,1
"2385",0,1,851,7,10,1,"19cbad3",237,1
"2395",0,1,807,10,16,1,"19cbad3",238,1
"2405",1,1,795,16,16,1,"19cbad3",239,1
"2419",0,1,949,16,14,1,"19cbad3",240,1
"2425",0,0,1215,14,14,1,"19cbad3",241,1
"2435",0,1,1065,14,18,1,"19cbad3",242,1
"2445",0,0,808,18,18,1,"19cbad3",243,1
"2455",1,0,828,18,5,1,"19cbad3",244,1
"2465",0,1,843,5,8,1,"19cbad3",245,1
"2475",1,1,793,8,8,1,"19cbad3",246,1
"2485",0,1,872,8,17,1,"19cbad3",247,1
"2495",0,1,1134,17,2,1,"19cbad3",248,1
"2505",1,1,907,2,2,1,"19cbad3",249,1
"2519",0,1,1300,2,9,1,"19cbad3",250,1
"2525",0,1,799,9,6,1,"19cbad3",251,1
"2535",1,1,889,6,6,1,"19cbad3",252,1
"2545",0,1,687,6,1,1,"19cbad3",253,1
"2555",0,0,697,1,1,1,"19cbad3",254,1
"2565",1,0,815,1,4,1,"19cbad3",255,1
"2575",0,1,558,4,11,1,"19cbad3",256,1
"2585",0,1,887,11,3,1,"19cbad3",257,1
"2595",0,1,775,3,12,1,"19cbad3",258,1
"2605",0,1,586,12,13,1,"19cbad3",259,1
"2619",1,1,1016,13,13,1,"19cbad3",260,1
"289",-1,-1,0,0,3,1,"14973e9",1,1
"320",-1,-1,0,3,3,1,"14973e9",2,1
"420",0,1,1640,3,8,1,"14973e9",3,1
"520",-1,-1,0,8,16,1,"14973e9",4,1
"620",0,1,1839,16,13,1,"14973e9",5,1
"720",-1,-1,0,13,13,1,"14973e9",6,1
"820",0,1,613,13,11,1,"14973e9",7,1
"920",-1,-1,0,11,11,1,"14973e9",8,1
"1020",0,1,939,11,10,1,"14973e9",9,1
"1120",-1,-1,0,10,2,1,"14973e9",10,1
"1220",0,1,927,2,9,1,"14973e9",11,1
"1320",-1,-1,0,9,17,1,"14973e9",12,1
"1420",0,0,619,17,17,1,"14973e9",13,1
"1520",-1,-1,0,17,5,1,"14973e9",14,1
"1620",-1,-1,0,5,5,1,"14973e9",15,1
"1720",1,0,706,5,18,1,"14973e9",16,1
"1820",-1,-1,0,18,18,1,"14973e9",17,1
"1920",0,1,467,18,14,1,"14973e9",18,1
"2020",-1,-1,0,14,12,1,"14973e9",19,1
"2120",1,1,501,12,12,1,"14973e9",20,1
"2220",-1,-1,0,12,4,1,"14973e9",21,1
"2320",0,1,992,4,1,1,"14973e9",22,1
"2420",0,0,815,1,1,1,"14973e9",23,1
"2520",0,1,699,1,6,1,"14973e9",24,1
"2620",0,1,725,6,7,1,"14973e9",25,1
"2716",0,0,773,7,7,1,"14973e9",26,1
"2810",0,1,863,7,15,1,"14973e9",27,1
"296",0,1,545,15,10,1,"14973e9",28,1
"306",0,0,736,10,10,1,"14973e9",29,1
"3110",0,1,646,10,17,1,"14973e9",30,1
"326",1,0,669,17,18,1,"14973e9",31,1
"336",0,0,838,18,18,1,"14973e9",32,1
"346",0,1,806,18,8,1,"14973e9",33,1
"356",1,0,813,8,13,1,"14973e9",34,1
"366",0,0,770,13,13,1,"14973e9",35,1
"376",0,1,1277,13,6,1,"14973e9",36,1
"386",1,1,1244,6,6,1,"14973e9",37,1
"396",0,1,951,6,12,1,"14973e9",38,1
"406",0,1,494,12,16,1,"14973e9",39,1
"4110",0,1,1294,16,7,1,"14973e9",40,1
"426",1,1,1532,7,7,1,"14973e9",41,1
"436",0,1,1112,7,15,1,"14973e9",42,1
"446",1,1,1246,15,15,1,"14973e9",43,1
"456",0,1,523,15,4,1,"14973e9",44,1
"466",0,1,1533,4,14,1,"14973e9",45,1
"476",1,1,1285,14,14,1,"14973e9",46,1
"486",0,1,748,14,2,1,"14973e9",47,1
"496",0,0,872,2,2,1,"14973e9",48,1
"506",0,1,1380,2,11,1,"14973e9",49,1
"5110",0,1,1112,11,9,1,"14973e9",50,1
"526",1,1,945,9,9,1,"14973e9",51,1
"536",0,1,1330,9,1,1,"14973e9",52,1
"546",1,1,1183,1,1,1,"14973e9",53,1
"556",0,1,780,1,5,1,"14973e9",54,1
"566",1,1,1262,5,5,1,"14973e9",55,1
"576",0,1,539,5,3,1,"14973e9",56,1
"586",0,1,1905,3,6,1,"14973e9",57,1
"596",0,1,1326,6,1,1,"14973e9",58,1
"606",1,1,901,1,1,1,"14973e9",59,1
"6110",0,1,799,1,4,1,"14973e9",60,1
"626",1,0,1330,4,12,1,"14973e9",61,1
"636",0,1,1510,12,11,1,"14973e9",62,1
"646",0,1,768,11,9,1,"14973e9",63,1
"656",1,1,1085,9,9,1,"14973e9",64,1
"666",0,1,828,9,7,1,"14973e9",65,1
"676",1,1,749,7,7,1,"14973e9",66,1
"686",0,1,562,7,2,1,"14973e9",67,1
"696",1,1,843,2,2,1,"14973e9",68,1
"706",0,1,922,2,15,1,"14973e9",69,1
"7110",1,1,1000,15,15,1,"14973e9",70,1
"726",0,1,630,15,8,1,"14973e9",71,1
"736",0,1,538,8,16,1,"14973e9",72,1
"746",1,0,735,16,17,1,"14973e9",73,1
"756",0,1,767,17,13,1,"14973e9",74,1
"766",1,1,1059,13,13,1,"14973e9",75,1
"776",0,1,617,13,14,1,"14973e9",76,1
"786",0,1,2110,14,10,1,"14973e9",77,1
"796",1,1,1140,10,10,1,"14973e9",78,1
"806",0,1,733,10,5,1,"14973e9",79,1
"8110",0,1,1749,5,18,1,"14973e9",80,1
"826",1,1,912,18,18,1,"14973e9",81,1
"836",0,1,717,18,3,1,"14973e9",82,1
"846",1,1,988,3,3,1,"14973e9",83,1
"856",0,1,816,3,18,1,"14973e9",84,1
"866",1,1,929,18,18,1,"14973e9",85,1
"876",0,1,656,18,1,1,"14973e9",86,1
"886",0,1,1433,1,13,1,"14973e9",87,1
"896",1,1,1250,13,13,1,"14973e9",88,1
"906",0,1,700,13,6,1,"14973e9",89,1
"9110",0,0,619,6,6,1,"14973e9",90,1
"926",0,1,994,6,15,1,"14973e9",91,1
"936",1,1,787,15,15,1,"14973e9",92,1
"946",0,1,944,15,10,1,"14973e9",93,1
"956",1,1,840,10,10,1,"14973e9",94,1
"966",0,1,617,10,11,1,"14973e9",95,1
"976",1,1,894,11,11,1,"14973e9",96,1
"986",0,1,588,11,3,1,"14973e9",97,1
"996",1,1,1283,3,3,1,"14973e9",98,1
"1006",0,1,1217,3,4,1,"14973e9",99,1
"10110",0,1,764,4,9,1,"14973e9",100,1
"1026",0,1,1200,9,2,1,"14973e9",101,1
"1036",1,1,993,2,2,1,"14973e9",102,1
"1046",0,1,948,2,8,1,"14973e9",103,1
"1056",0,1,1374,8,17,1,"14973e9",104,1
"1066",0,1,1756,17,7,1,"14973e9",105,1
"1076",0,1,981,7,12,1,"14973e9",106,1
"1086",0,1,810,12,16,1,"14973e9",107,1
"1096",0,1,684,16,5,1,"14973e9",108,1
"1106",1,1,653,5,5,1,"14973e9",109,1
"11110",0,1,570,5,14,1,"14973e9",110,1
"1126",0,1,1491,14,7,1,"14973e9",111,1
"1136",1,1,998,7,7,1,"14973e9",112,1
"1146",0,1,758,7,16,1,"14973e9",113,1
"1156",0,1,985,16,1,1,"14973e9",114,1
"1166",0,1,1410,1,10,1,"14973e9",115,1
"1176",0,1,1833,10,3,1,"14973e9",116,1
"1186",0,1,1090,3,4,1,"14973e9",117,1
"1196",1,1,887,4,4,1,"14973e9",118,1
"1206",0,1,626,4,8,1,"14973e9",119,1
"12110",0,1,1320,8,2,1,"14973e9",120,1
"1226",0,1,913,2,18,1,"14973e9",121,1
"1236",0,1,813,18,14,1,"14973e9",122,1
"1246",1,1,759,14,14,1,"14973e9",123,1
"1256",0,1,845,14,17,1,"14973e9",124,1
"1266",1,1,811,17,17,1,"14973e9",125,1
"1276",0,1,686,17,9,1,"14973e9",126,1
"1286",0,1,512,9,12,1,"14973e9",127,1
"1296",0,1,1221,12,15,1,"14973e9",128,1
"1306",1,1,827,15,15,1,"14973e9",129,1
"13110",0,1,1671,15,13,1,"14973e9",130,1
"1326",1,1,1703,13,13,1,"14973e9",131,1
"1336",0,1,668,13,6,1,"14973e9",132,1
"1346",0,0,1286,6,6,1,"14973e9",133,1
"1356",0,1,842,6,11,1,"14973e9",134,1
"1366",0,1,1603,11,5,1,"14973e9",135,1
"1376",1,1,781,5,5,1,"14973e9",136,1
"1386",0,1,465,5,16,1,"14973e9",137,1
"1396",0,1,600,16,3,1,"14973e9",138,1
"1406",1,1,1522,3,3,1,"14973e9",139,1
"14110",0,1,522,3,4,1,"14973e9",140,1
"1426",1,1,670,4,4,1,"14973e9",141,1
"1436",0,1,773,4,8,1,"14973e9",142,1
"1446",0,1,1062,8,11,1,"14973e9",143,1
"1456",1,1,1306,11,11,1,"14973e9",144,1
"1466",0,1,801,11,6,1,"14973e9",145,1
"1476",0,1,813,6,18,1,"14973e9",146,1
"1486",0,1,1395,18,12,1,"14973e9",147,1
"1496",1,1,890,12,12,1,"14973e9",148,1
"1506",0,1,504,12,15,1,"14973e9",149,1
"15110",1,1,852,15,15,1,"14973e9",150,1
"1526",0,1,894,15,2,1,"14973e9",151,1
"1536",0,0,710,2,2,1,"14973e9",152,1
"1546",0,1,635,2,7,1,"14973e9",153,1
"1556",0,1,554,7,5,1,"14973e9",154,1
"1566",1,1,687,5,5,1,"14973e9",155,1
"1576",0,1,609,5,10,1,"14973e9",156,1
"1586",0,1,662,10,9,1,"14973e9",157,1
"1596",1,1,1424,9,9,1,"14973e9",158,1
"1606",0,1,880,9,1,1,"14973e9",159,1
"16110",0,1,799,1,13,1,"14973e9",160,1
"1626",1,1,825,13,13,1,"14973e9",161,1
"1636",0,1,1004,13,14,1,"14973e9",162,1
"1646",0,1,517,14,17,1,"14973e9",163,1
"1656",0,1,1267,17,6,1,"14973e9",164,1
"1666",0,1,2096,6,14,1,"14973e9",165,1
"1676",0,1,1048,14,4,1,"14973e9",166,1
"1686",1,1,1303,4,4,1,"14973e9",167,1
"1696",0,1,979,4,1,1,"14973e9",168,1
"1706",1,1,1396,1,1,1,"14973e9",169,1
"17110",0,1,740,1,15,1,"14973e9",170,1
"1726",0,0,1035,15,15,1,"14973e9",171,1
"1736",0,1,484,15,16,1,"14973e9",172,1
"1746",1,1,947,16,16,1,"14973e9",173,1
"1756",0,1,458,16,13,1,"14973e9",174,1
"1766",0,1,2166,13,7,1,"14973e9",175,1
"1776",1,1,746,7,7,1,"14973e9",176,1
"1786",0,1,298,7,3,1,"14973e9",177,1
"1796",1,1,1091,3,3,1,"14973e9",178,1
"1806",0,1,786,3,5,1,"14973e9",179,1
"18110",1,1,829,5,5,1,"14973e9",180,1
"1826",0,1,1106,5,12,1,"14973e9",181,1
"1836",1,1,1070,12,12,1,"14973e9",182,1
"1846",0,1,784,12,18,1,"14973e9",183,1
"1856",1,1,975,18,18,1,"14973e9",184,1
"1866",0,1,646,18,2,1,"14973e9",185,1
"1876",0,1,711,2,17,1,"14973e9",186,1
"1886",0,1,787,17,8,1,"14973e9",187,1
"1896",0,1,660,8,11,1,"14973e9",188,1
"1906",1,1,1427,11,11,1,"14973e9",189,1
"19110",0,1,696,11,10,1,"14973e9",190,1
"1926",1,1,1170,10,10,1,"14973e9",191,1
"1936",0,1,979,10,9,1,"14973e9",192,1
"1946",1,1,1318,9,9,1,"14973e9",193,1
"1956",0,1,855,9,2,1,"14973e9",194,1
"1966",1,1,844,2,2,1,"14973e9",195,1
"1976",0,1,693,2,16,1,"14973e9",196,1
"1986",1,1,1243,16,16,1,"14973e9",197,1
"1996",0,1,851,16,6,1,"14973e9",198,1
"2006",0,1,700,6,4,1,"14973e9",199,1
"20110",1,1,848,4,4,1,"14973e9",200,1
"2026",0,1,918,4,15,1,"14973e9",201,1
"2036",1,1,848,15,15,1,"14973e9",202,1
"2046",0,1,541,15,11,1,"14973e9",203,1
"2056",1,1,572,11,11,1,"14973e9",204,1
"2066",0,1,685,11,3,1,"14973e9",205,1
"2076",0,1,979,3,13,1,"14973e9",206,1
"2086",1,1,760,13,13,1,"14973e9",207,1
"2096",0,1,678,13,18,1,"14973e9",208,1
"2106",1,1,816,18,18,1,"14973e9",209,1
"21110",0,1,555,18,17,1,"14973e9",210,1
"2126",1,1,845,17,17,1,"14973e9",211,1
"2136",0,1,630,17,9,1,"14973e9",212,1
"2146",0,1,1002,9,7,1,"14973e9",213,1
"2156",0,1,1641,7,12,1,"14973e9",214,1
"2166",1,0,798,12,8,1,"14973e9",215,1
"2176",1,1,844,8,8,1,"14973e9",216,1
"2186",0,1,1263,8,5,1,"14973e9",217,1
"2196",1,1,997,5,5,1,"14973e9",218,1
"2206",0,1,533,5,10,1,"14973e9",219,1
"22110",0,1,756,10,14,1,"14973e9",220,1
"2226",0,1,640,14,1,1,"14973e9",221,1
"2236",0,1,1055,1,11,1,"14973e9",222,1
"2246",0,1,1759,11,12,1,"14973e9",223,1
"2256",0,1,654,12,10,1,"14973e9",224,1
"2266",0,1,768,10,5,1,"14973e9",225,1
"2276",0,1,563,5,17,1,"14973e9",226,1
"2286",1,1,1280,17,17,1,"14973e9",227,1
"2296",0,1,661,17,8,1,"14973e9",228,1
"2306",1,1,839,8,8,1,"14973e9",229,1
"23110",1,0,907,8,2,1,"14973e9",230,1
"2326",0,1,579,2,13,1,"14973e9",231,1
"2336",1,1,835,13,13,1,"14973e9",232,1
"2346",0,1,475,13,18,1,"14973e9",233,1
"2356",1,1,831,18,18,1,"14973e9",234,1
"2366",0,1,621,18,7,1,"14973e9",235,1
"2376",0,1,551,7,1,1,"14973e9",236,1
"2386",0,1,864,1,9,1,"14973e9",237,1
"2396",1,1,703,9,9,1,"14973e9",238,1
"2406",0,1,681,9,14,1,"14973e9",239,1
"24110",0,1,861,14,4,1,"14973e9",240,1
"2426",1,1,705,4,4,1,"14973e9",241,1
"2436",0,1,605,4,3,1,"14973e9",242,1
"2446",1,1,883,3,3,1,"14973e9",243,1
"2456",0,1,770,3,6,1,"14973e9",244,1
"2466",0,1,1352,6,16,1,"14973e9",245,1
"2476",1,1,1250,16,16,1,"14973e9",246,1
"2486",0,1,480,16,15,1,"14973e9",247,1
"2496",0,1,1318,15,10,1,"14973e9",248,1
"2506",1,1,933,10,10,1,"14973e9",249,1
"25110",0,1,695,10,13,1,"14973e9",250,1
"2526",0,1,658,13,11,1,"14973e9",251,1
"2536",1,1,1140,11,11,1,"14973e9",252,1
"2546",0,1,1365,11,2,1,"14973e9",253,1
"2556",1,1,801,2,2,1,"14973e9",254,1
"2566",0,1,1136,2,9,1,"14973e9",255,1
"2576",0,1,1392,9,12,1,"14973e9",256,1
"2586",1,1,477,12,12,1,"14973e9",257,1
"2596",0,1,495,12,17,1,"14973e9",258,1
"2606",0,1,1032,17,8,1,"14973e9",259,1
"26110",1,1,874,8,8,1,"14973e9",260,1
"2625",0,1,314,8,16,1,"14973e9",261,1
"2635",0,1,423,16,4,1,"14973e9",262,1
"2645",0,1,581,4,6,1,"14973e9",263,1
"2655",0,1,481,6,18,1,"14973e9",264,1
"2664",1,1,644,18,18,1,"14973e9",265,1
"2674",0,1,463,18,7,1,"14973e9",266,1
"2684",1,0,629,7,15,1,"14973e9",267,1
"2694",0,1,615,15,1,1,"14973e9",268,1
"2704",0,1,432,1,14,1,"14973e9",269,1
"2717",1,1,451,14,14,1,"14973e9",270,1
"2723",0,1,428,14,5,1,"14973e9",271,1
"2733",0,1,366,5,3,1,"14973e9",272,1
"2743",0,0,367,3,3,1,"14973e9",273,1
"290",-1,-1,0,0,14,1,"199393d",1,1
"327",-1,-1,0,14,14,1,"199393d",2,1
"427",-1,-1,0,14,18,1,"199393d",3,1
"527",-1,-1,0,18,8,1,"199393d",4,1
"627",-1,-1,0,8,3,1,"199393d",5,1
"727",-1,-1,0,3,3,1,"199393d",6,1
"827",-1,-1,0,3,5,1,"199393d",7,1
"927",-1,-1,0,5,5,1,"199393d",8,1
"1027",-1,-1,0,5,12,1,"199393d",9,1
"1127",-1,-1,0,12,17,1,"199393d",10,1
"1227",-1,-1,0,17,7,1,"199393d",11,1
"1327",-1,-1,0,7,7,1,"199393d",12,1
"1427",-1,-1,0,7,10,1,"199393d",13,1
"1527",-1,-1,0,10,10,1,"199393d",14,1
"1627",-1,-1,0,10,4,1,"199393d",15,1
"1727",-1,-1,0,4,15,1,"199393d",16,1
"1827",-1,-1,0,15,6,1,"199393d",17,1
"1927",-1,-1,0,6,13,1,"199393d",18,1
"2027",-1,-1,0,13,13,1,"199393d",19,1
"2127",-1,-1,0,13,11,1,"199393d",20,1
"2227",-1,-1,0,11,11,1,"199393d",21,1
"2327",-1,-1,0,11,2,1,"199393d",22,1
"2427",-1,-1,0,2,1,1,"199393d",23,1
"2527",-1,-1,0,1,9,1,"199393d",24,1
"2626",-1,-1,0,9,16,1,"199393d",25,1
"2718",-1,-1,0,16,16,1,"199393d",26,1
"2811",-1,-1,0,16,15,1,"199393d",27,1
"297",-1,-1,0,15,15,1,"199393d",28,1
"307",-1,-1,0,15,6,1,"199393d",29,1
"3111",-1,-1,0,6,9,1,"199393d",30,1
"328",-1,-1,0,9,3,1,"199393d",31,1
"337",-1,-1,0,3,3,1,"199393d",32,1
"347",-1,-1,0,3,18,1,"199393d",33,1
"357",-1,-1,0,18,11,1,"199393d",34,1
"367",-1,-1,0,11,11,1,"199393d",35,1
"377",-1,-1,0,11,17,1,"199393d",36,1
"387",-1,-1,0,17,12,1,"199393d",37,1
"397",-1,-1,0,12,12,1,"199393d",38,1
"407",-1,-1,0,12,2,1,"199393d",39,1
"4111",-1,-1,0,2,16,1,"199393d",40,1
"428",-1,-1,0,16,7,1,"199393d",41,1
"437",-1,-1,0,7,7,1,"199393d",42,1
"447",-1,-1,0,7,14,1,"199393d",43,1
"457",-1,-1,0,14,14,1,"199393d",44,1
"467",-1,-1,0,14,1,1,"199393d",45,1
"477",-1,-1,0,1,10,1,"199393d",46,1
"487",-1,-1,0,10,10,1,"199393d",47,1
"497",-1,-1,0,10,4,1,"199393d",48,1
"507",-1,-1,0,4,8,1,"199393d",49,1
"5111",-1,-1,0,8,8,1,"199393d",50,1
"528",-1,-1,0,8,13,1,"199393d",51,1
"537",-1,-1,0,13,5,1,"199393d",52,1
"547",-1,-1,0,5,5,1,"199393d",53,1
"557",-1,-1,0,5,18,1,"199393d",54,1
"567",-1,-1,0,18,18,1,"199393d",55,1
"577",-1,-1,0,18,12,1,"199393d",56,1
"587",-1,-1,0,12,3,1,"199393d",57,1
"597",-1,-1,0,3,3,1,"199393d",58,1
"607",-1,-1,0,3,11,1,"199393d",59,1
"6111",-1,-1,0,11,11,1,"199393d",60,1
"628",-1,-1,0,11,4,1,"199393d",61,1
"637",-1,-1,0,4,14,1,"199393d",62,1
"647",-1,-1,0,14,14,1,"199393d",63,1
"657",-1,-1,0,14,10,1,"199393d",64,1
"667",-1,-1,0,10,10,1,"199393d",65,1
"677",-1,-1,0,10,6,1,"199393d",66,1
"687",-1,-1,0,6,6,1,"199393d",67,1
"697",-1,-1,0,6,8,1,"199393d",68,1
"707",-1,-1,0,8,16,1,"199393d",69,1
"7111",-1,-1,0,16,13,1,"199393d",70,1
"728",-1,-1,0,13,9,1,"199393d",71,1
"737",-1,-1,0,9,17,1,"199393d",72,1
"747",-1,-1,0,17,15,1,"199393d",73,1
"757",-1,-1,0,15,15,1,"199393d",74,1
"767",-1,-1,0,15,5,1,"199393d",75,1
"777",-1,-1,0,5,5,1,"199393d",76,1
"787",-1,-1,0,5,1,1,"199393d",77,1
"797",-1,-1,0,1,1,1,"199393d",78,1
"807",-1,-1,0,1,7,1,"199393d",79,1
"8111",-1,-1,0,7,7,1,"199393d",80,1
"828",-1,-1,0,7,2,1,"199393d",81,1
"837",-1,-1,0,2,2,1,"199393d",82,1
"847",-1,-1,0,2,4,1,"199393d",83,1
"857",-1,-1,0,4,4,1,"199393d",84,1
"867",-1,-1,0,4,2,1,"199393d",85,1
"877",-1,-1,0,2,2,1,"199393d",86,1
"887",-1,-1,0,2,5,1,"199393d",87,1
"897",-1,-1,0,5,17,1,"199393d",88,1
"907",-1,-1,0,17,17,1,"199393d",89,1
"9111",-1,-1,0,17,11,1,"199393d",90,1
"928",-1,-1,0,11,15,1,"199393d",91,1
"937",-1,-1,0,15,18,1,"199393d",92,1
"947",-1,-1,0,18,18,1,"199393d",93,1
"957",-1,-1,0,18,6,1,"199393d",94,1
"967",-1,-1,0,6,6,1,"199393d",95,1
"977",-1,-1,0,6,9,1,"199393d",96,1
"987",-1,-1,0,9,9,1,"199393d",97,1
"997",-1,-1,0,9,10,1,"199393d",98,1
"1007",-1,-1,0,10,16,1,"199393d",99,1
"10111",-1,-1,0,16,14,1,"199393d",100,1
"1028",-1,-1,0,14,14,1,"199393d",101,1
"1037",-1,-1,0,14,3,1,"199393d",102,1
"1047",-1,-1,0,3,3,1,"199393d",103,1
"1057",-1,-1,0,3,13,1,"199393d",104,1
"1067",-1,-1,0,13,7,1,"199393d",105,1
"1077",-1,-1,0,7,8,1,"199393d",106,1
"1087",-1,-1,0,8,8,1,"199393d",107,1
"1097",-1,-1,0,8,1,1,"199393d",108,1
"1107",-1,-1,0,1,12,1,"199393d",109,1
"11111",-1,-1,0,12,12,1,"199393d",110,1
"1128",-1,-1,0,12,17,1,"199393d",111,1
"1137",-1,-1,0,17,16,1,"199393d",112,1
"1147",-1,-1,0,16,16,1,"199393d",113,1
"1157",-1,-1,0,16,7,1,"199393d",114,1
"1167",-1,-1,0,7,7,1,"199393d",115,1
"1177",-1,-1,0,7,12,1,"199393d",116,1
"1187",-1,-1,0,12,9,1,"199393d",117,1
"1197",-1,-1,0,9,13,1,"199393d",118,1
"1207",-1,-1,0,13,18,1,"199393d",119,1
"12111",-1,-1,0,18,18,1,"199393d",120,1
"1228",-1,-1,0,18,10,1,"199393d",121,1
"1237",-1,-1,0,10,8,1,"199393d",122,1
"1247",-1,-1,0,8,8,1,"199393d",123,1
"1257",-1,-1,0,8,4,1,"199393d",124,1
"1267",-1,-1,0,4,2,1,"199393d",125,1
"1277",-1,-1,0,2,15,1,"199393d",126,1
"1287",-1,-1,0,15,1,1,"199393d",127,1
"1297",-1,-1,0,1,5,1,"199393d",128,1
"1307",-1,-1,0,5,3,1,"199393d",129,1
"13111",-1,-1,0,3,3,1,"199393d",130,1
"1328",-1,-1,0,3,6,1,"199393d",131,1
"1337",-1,-1,0,6,6,1,"199393d",132,1
"1347",-1,-1,0,6,11,1,"199393d",133,1
"1357",-1,-1,0,11,14,1,"199393d",134,1
"1367",-1,-1,0,14,7,1,"199393d",135,1
"1377",-1,-1,0,7,7,1,"199393d",136,1
"1387",-1,-1,0,7,17,1,"199393d",137,1
"1397",-1,-1,0,17,17,1,"199393d",138,1
"1407",-1,-1,0,17,16,1,"199393d",139,1
"14111",-1,-1,0,16,6,1,"199393d",140,1
"1428",-1,-1,0,6,2,1,"199393d",141,1
"1437",-1,-1,0,2,11,1,"199393d",142,1
"1447",-1,-1,0,11,11,1,"199393d",143,1
"1457",-1,-1,0,11,4,1,"199393d",144,1
"1467",-1,-1,0,4,4,1,"199393d",145,1
"1477",-1,-1,0,4,12,1,"199393d",146,1
"1487",-1,-1,0,12,5,1,"199393d",147,1
"1497",-1,-1,0,5,8,1,"199393d",148,1
"1507",-1,-1,0,8,18,1,"199393d",149,1
"15111",-1,-1,0,18,18,1,"199393d",150,1
"1528",-1,-1,0,18,15,1,"199393d",151,1
"1537",-1,-1,0,15,15,1,"199393d",152,1
"1547",-1,-1,0,15,9,1,"199393d",153,1
"1557",-1,-1,0,9,9,1,"199393d",154,1
"1567",-1,-1,0,9,13,1,"199393d",155,1
"1577",-1,-1,0,13,3,1,"199393d",156,1
"1587",-1,-1,0,3,3,1,"199393d",157,1
"1597",-1,-1,0,3,14,1,"199393d",158,1
"1607",-1,-1,0,14,14,1,"199393d",159,1
"16111",-1,-1,0,14,1,1,"199393d",160,1
"1628",-1,-1,0,1,10,1,"199393d",161,1
"1637",-1,-1,0,10,4,1,"199393d",162,1
"1647",-1,-1,0,4,3,1,"199393d",163,1
"1657",-1,-1,0,3,3,1,"199393d",164,1
"1667",-1,-1,0,3,8,1,"199393d",165,1
"1677",-1,-1,0,8,8,1,"199393d",166,1
"1687",-1,-1,0,8,14,1,"199393d",167,1
"1697",-1,-1,0,14,1,1,"199393d",168,1
"1707",-1,-1,0,1,1,1,"199393d",169,1
"17111",-1,-1,0,1,7,1,"199393d",170,1
"1728",-1,-1,0,7,13,1,"199393d",171,1
"1737",-1,-1,0,13,13,1,"199393d",172,1
"1747",-1,-1,0,13,5,1,"199393d",173,1
"1757",-1,-1,0,5,5,1,"199393d",174,1
"1767",-1,-1,0,5,16,1,"199393d",175,1
"1777",-1,-1,0,16,12,1,"199393d",176,1
"1787",-1,-1,0,12,12,1,"199393d",177,1
"1797",-1,-1,0,12,9,1,"199393d",178,1
"1807",-1,-1,0,9,2,1,"199393d",179,1
"18111",-1,-1,0,2,2,1,"199393d",180,1
"1828",-1,-1,0,2,6,1,"199393d",181,1
"1837",-1,-1,0,6,6,1,"199393d",182,1
"1847",-1,-1,0,6,18,1,"199393d",183,1
"1857",-1,-1,0,18,10,1,"199393d",184,1
"1867",-1,-1,0,10,10,1,"199393d",185,1
"1877",-1,-1,0,10,11,1,"199393d",186,1
"1887",-1,-1,0,11,11,1,"199393d",187,1
"1897",-1,-1,0,11,15,1,"199393d",188,1
"1907",-1,-1,0,15,15,1,"199393d",189,1
"19111",-1,-1,0,15,17,1,"199393d",190,1
"1928",-1,-1,0,17,17,1,"199393d",191,1
"1937",-1,-1,0,17,10,1,"199393d",192,1
"1947",-1,-1,0,10,10,1,"199393d",193,1
"1957",-1,-1,0,10,17,1,"199393d",194,1
"1967",-1,-1,0,17,11,1,"199393d",195,1
"1977",-1,-1,0,11,11,1,"199393d",196,1
"1987",-1,-1,0,11,6,1,"199393d",197,1
"1997",-1,-1,0,6,1,1,"199393d",198,1
"2007",-1,-1,0,1,1,1,"199393d",199,1
"20111",-1,-1,0,1,8,1,"199393d",200,1
"2028",-1,-1,0,8,8,1,"199393d",201,1
"2037",-1,-1,0,8,12,1,"199393d",202,1
"2047",-1,-1,0,12,12,1,"199393d",203,1
"2057",-1,-1,0,12,18,1,"199393d",204,1
"2067",-1,-1,0,18,18,1,"199393d",205,1
"2077",-1,-1,0,18,14,1,"199393d",206,1
"2087",-1,-1,0,14,9,1,"199393d",207,1
"2097",-1,-1,0,9,9,1,"199393d",208,1
"2107",-1,-1,0,9,4,1,"199393d",209,1
"21111",-1,-1,0,4,16,1,"199393d",210,1
"2128",-1,-1,0,16,13,1,"199393d",211,1
"2137",-1,-1,0,13,15,1,"199393d",212,1
"2147",-1,-1,0,15,2,1,"199393d",213,1
"2157",-1,-1,0,2,2,1,"199393d",214,1
"2167",-1,-1,0,2,7,1,"199393d",215,1
"2177",-1,-1,0,7,7,1,"199393d",216,1
"2187",-1,-1,0,7,5,1,"199393d",217,1
"2197",-1,-1,0,5,5,1,"199393d",218,1
"2207",-1,-1,0,5,3,1,"199393d",219,1
"22111",-1,-1,0,3,14,1,"199393d",220,1
"2228",-1,-1,0,14,14,1,"199393d",221,1
"2237",-1,-1,0,14,15,1,"199393d",222,1
"2247",-1,-1,0,15,3,1,"199393d",223,1
"2257",-1,-1,0,3,16,1,"199393d",224,1
"2267",-1,-1,0,16,1,1,"199393d",225,1
"2277",-1,-1,0,1,1,1,"199393d",226,1
"2287",-1,-1,0,1,7,1,"199393d",227,1
"2297",-1,-1,0,7,7,1,"199393d",228,1
"2307",-1,-1,0,7,10,1,"199393d",229,1
"23111",-1,-1,0,10,10,1,"199393d",230,1
"2328",-1,-1,0,10,17,1,"199393d",231,1
"2337",-1,-1,0,17,17,1,"199393d",232,1
"2347",-1,-1,0,17,12,1,"199393d",233,1
"2357",-1,-1,0,12,13,1,"199393d",234,1
"2367",-1,-1,0,13,13,1,"199393d",235,1
"2377",-1,-1,0,13,9,1,"199393d",236,1
"2387",-1,-1,0,9,4,1,"199393d",237,1
"2397",-1,-1,0,4,8,1,"199393d",238,1
"2407",-1,-1,0,8,11,1,"199393d",239,1
"24111",-1,-1,0,11,11,1,"199393d",240,1
"2428",-1,-1,0,11,5,1,"199393d",241,1
"2437",-1,-1,0,5,2,1,"199393d",242,1
"2447",-1,-1,0,2,2,1,"199393d",243,1
"2457",-1,-1,0,2,6,1,"199393d",244,1
"2467",-1,-1,0,6,18,1,"199393d",245,1
"2477",-1,-1,0,18,18,1,"199393d",246,1
"2487",-1,-1,0,18,13,1,"199393d",247,1
"2497",-1,-1,0,13,11,1,"199393d",248,1
"2507",-1,-1,0,11,11,1,"199393d",249,1
"25111",-1,-1,0,11,3,1,"199393d",250,1
"2528",-1,-1,0,3,9,1,"199393d",251,1
"2537",-1,-1,0,9,10,1,"199393d",252,1
"2547",-1,-1,0,10,17,1,"199393d",253,1
"2557",-1,-1,0,17,4,1,"199393d",254,1
"2567",-1,-1,0,4,4,1,"199393d",255,1
"2577",-1,-1,0,4,6,1,"199393d",256,1
"2587",-1,-1,0,6,5,1,"199393d",257,1
"2597",-1,-1,0,5,18,1,"199393d",258,1
"2607",-1,-1,0,18,7,1,"199393d",259,1
"26111",-1,-1,0,7,1,1,"199393d",260,1
"2627",-1,-1,0,1,2,1,"199393d",261,1
"2636",-1,-1,0,2,14,1,"199393d",262,1
"2646",-1,-1,0,14,14,1,"199393d",263,1
"2656",-1,-1,0,14,16,1,"199393d",264,1
"2665",-1,-1,0,16,16,1,"199393d",265,1
"2675",-1,-1,0,16,12,1,"199393d",266,1
"2685",-1,-1,0,12,15,1,"199393d",267,1
"2695",-1,-1,0,15,8,1,"199393d",268,1
"298",-1,-1,0,0,15,1,"1d7bc04",1,1
"329",0,1,1136,15,11,1,"1d7bc04",2,1
"429",1,1,1513,11,11,1,"1d7bc04",3,1
"529",-1,-1,0,11,1,1,"1d7bc04",4,1
"629",0,0,1950,1,1,1,"1d7bc04",5,1
"729",1,0,846,1,12,1,"1d7bc04",6,1
"829",-1,-1,0,12,12,1,"1d7bc04",7,1
"929",0,1,1280,12,14,1,"1d7bc04",8,1
"1029",1,0,1063,14,17,1,"1d7bc04",9,1
"1129",-1,-1,0,17,5,1,"1d7bc04",10,1
"1229",0,1,1261,5,6,1,"1d7bc04",11,1
"1329",1,1,2225,6,6,1,"1d7bc04",12,1
"1429",0,1,1211,6,13,1,"1d7bc04",13,1
"1529",-1,-1,0,13,13,1,"1d7bc04",14,1
"1629",0,1,2433,13,2,1,"1d7bc04",15,1
"1729",-1,-1,0,2,2,1,"1d7bc04",16,1
"1829",-1,-1,0,2,10,1,"1d7bc04",17,1
"1929",-1,-1,0,10,18,1,"1d7bc04",18,1
"2029",0,0,1111,18,18,1,"1d7bc04",19,1
"2129",0,1,1231,18,8,1,"1d7bc04",20,1
"2229",-1,-1,0,8,8,1,"1d7bc04",21,1
"2329",1,0,1098,8,7,1,"1d7bc04",22,1
"2429",-1,-1,0,7,3,1,"1d7bc04",23,1
"2529",1,1,1187,3,3,1,"1d7bc04",24,1
"2628",0,1,818,3,9,1,"1d7bc04",25,1
"2719",-1,-1,0,9,9,1,"1d7bc04",26,1
"2812",1,0,1413,9,4,1,"1d7bc04",27,1
"299",1,1,1631,4,4,1,"1d7bc04",28,1
"308",0,1,966,4,16,1,"1d7bc04",29,1
"3112",-1,-1,0,16,16,1,"1d7bc04",30,1
"3210",1,0,1186,16,6,1,"1d7bc04",31,1
"338",0,1,2265,6,2,1,"1d7bc04",32,1
"348",0,1,761,2,11,1,"1d7bc04",33,1
"358",0,0,1291,11,11,1,"1d7bc04",34,1
"368",1,0,963,11,8,1,"1d7bc04",35,1
"378",1,1,2253,8,8,1,"1d7bc04",36,1
"388",0,1,923,8,10,1,"1d7bc04",37,1
"398",0,1,1238,10,12,1,"1d7bc04",38,1
"408",0,1,1076,12,1,1,"1d7bc04",39,1
"4112",0,1,1759,1,14,1,"1d7bc04",40,1
"4210",1,1,923,14,14,1,"1d7bc04",41,1
"438",1,0,878,14,15,1,"1d7bc04",42,1
"448",1,1,1651,15,15,1,"1d7bc04",43,1
"458",0,1,1354,15,5,1,"1d7bc04",44,1
"468",1,1,1001,5,5,1,"1d7bc04",45,1
"478",0,1,1180,5,3,1,"1d7bc04",46,1
"488",1,1,1165,3,3,1,"1d7bc04",47,1
"498",0,1,1559,3,4,1,"1d7bc04",48,1
"508",0,1,1612,4,18,1,"1d7bc04",49,1
"5112",0,1,1662,18,7,1,"1d7bc04",50,1
"5210",1,0,928,7,13,1,"1d7bc04",51,1
"538",1,1,1588,13,13,1,"1d7bc04",52,1
"548",0,1,1386,13,17,1,"1d7bc04",53,1
"558",0,1,1759,17,9,1,"1d7bc04",54,1
"568",0,0,1090,9,9,1,"1d7bc04",55,1
"578",-1,-1,0,9,16,1,"1d7bc04",56,1
"588",0,1,1246,16,7,1,"1d7bc04",57,1
"598",0,0,806,7,7,1,"1d7bc04",58,1
"608",-1,-1,0,7,4,1,"1d7bc04",59,1
"6112",-1,-1,0,4,1,1,"1d7bc04",60,1
"6210",-1,-1,0,1,1,1,"1d7bc04",61,1
"638",-1,-1,0,1,5,1,"1d7bc04",62,1
"648",-1,-1,0,5,9,1,"1d7bc04",63,1
"658",-1,-1,0,9,9,1,"1d7bc04",64,1
"668",-1,-1,0,9,3,1,"1d7bc04",65,1
"678",-1,-1,0,3,17,1,"1d7bc04",66,1
"688",-1,-1,0,17,17,1,"1d7bc04",67,1
"698",-1,-1,0,17,14,1,"1d7bc04",68,1
"708",-1,-1,0,14,12,1,"1d7bc04",69,1
"7112",-1,-1,0,12,15,1,"1d7bc04",70,1
"7210",-1,-1,0,15,15,1,"1d7bc04",71,1
"738",-1,-1,0,15,13,1,"1d7bc04",72,1
"748",-1,-1,0,13,13,1,"1d7bc04",73,1
"758",-1,-1,0,13,10,1,"1d7bc04",74,1
"768",-1,-1,0,10,18,1,"1d7bc04",75,1
"778",-1,-1,0,18,8,1,"1d7bc04",76,1
"788",-1,-1,0,8,2,1,"1d7bc04",77,1
"798",-1,-1,0,2,16,1,"1d7bc04",78,1
"808",-1,-1,0,16,16,1,"1d7bc04",79,1
"8112",-1,-1,0,16,11,1,"1d7bc04",80,1
"8210",-1,-1,0,11,11,1,"1d7bc04",81,1
"838",-1,-1,0,11,6,1,"1d7bc04",82,1
"848",-1,-1,0,6,17,1,"1d7bc04",83,1
"858",-1,-1,0,17,3,1,"1d7bc04",84,1
"868",-1,-1,0,3,3,1,"1d7bc04",85,1
"878",-1,-1,0,3,4,1,"1d7bc04",86,1
"888",-1,-1,0,4,8,1,"1d7bc04",87,1
"898",-1,-1,0,8,9,1,"1d7bc04",88,1
"908",-1,-1,0,9,9,1,"1d7bc04",89,1
"9112",-1,-1,0,9,7,1,"1d7bc04",90,1
"9210",-1,-1,0,7,12,1,"1d7bc04",91,1
"938",-1,-1,0,12,12,1,"1d7bc04",92,1
"948",-1,-1,0,12,1,1,"1d7bc04",93,1
"958",-1,-1,0,1,15,1,"1d7bc04",94,1
"968",-1,-1,0,15,5,1,"1d7bc04",95,1
"978",-1,-1,0,5,14,1,"1d7bc04",96,1
"988",-1,-1,0,14,10,1,"1d7bc04",97,1
"998",-1,-1,0,10,10,1,"1d7bc04",98,1
"1008",-1,-1,0,10,11,1,"1d7bc04",99,1
"10112",-1,-1,0,11,18,1,"1d7bc04",100,1
"10210",-1,-1,0,18,18,1,"1d7bc04",101,1
"1038",-1,-1,0,18,6,1,"1d7bc04",102,1
"1048",-1,-1,0,6,6,1,"1d7bc04",103,1
"1058",-1,-1,0,6,16,1,"1d7bc04",104,1
"1068",-1,-1,0,16,13,1,"1d7bc04",105,1
"1078",-1,-1,0,13,2,1,"1d7bc04",106,1
"1088",-1,-1,0,2,15,1,"1d7bc04",107,1
"1098",-1,-1,0,15,15,1,"1d7bc04",108,1
"1108",-1,-1,0,15,17,1,"1d7bc04",109,1
"11112",-1,-1,0,17,17,1,"1d7bc04",110,1
"11210",-1,-1,0,17,12,1,"1d7bc04",111,1
"1138",-1,-1,0,12,9,1,"1d7bc04",112,1
"1148",-1,-1,0,9,9,1,"1d7bc04",113,1
"1158",-1,-1,0,9,18,1,"1d7bc04",114,1
"1168",-1,-1,0,18,18,1,"1d7bc04",115,1
"1178",-1,-1,0,18,11,1,"1d7bc04",116,1
"1188",-1,-1,0,11,2,1,"1d7bc04",117,1
"1198",-1,-1,0,2,2,1,"1d7bc04",118,1
"1208",-1,-1,0,2,1,1,"1d7bc04",119,1
"12112",-1,-1,0,1,7,1,"1d7bc04",120,1
"12210",-1,-1,0,7,6,1,"1d7bc04",121,1
"1238",-1,-1,0,6,6,1,"1d7bc04",122,1
"1248",-1,-1,0,6,10,1,"1d7bc04",123,1
"1258",-1,-1,0,10,10,1,"1d7bc04",124,1
"1268",-1,-1,0,10,8,1,"1d7bc04",125,1
"1278",-1,-1,0,8,8,1,"1d7bc04",126,1
"1288",-1,-1,0,8,5,1,"1d7bc04",127,1
"1298",-1,-1,0,5,5,1,"1d7bc04",128,1
"1308",-1,-1,0,5,16,1,"1d7bc04",129,1
"13112",-1,-1,0,16,16,1,"1d7bc04",130,1
"13210",-1,-1,0,16,4,1,"1d7bc04",131,1
"1338",-1,-1,0,4,3,1,"1d7bc04",132,1
"1348",-1,-1,0,3,13,1,"1d7bc04",133,1
"1358",-1,-1,0,13,13,1,"1d7bc04",134,1
"1368",-1,-1,0,13,14,1,"1d7bc04",135,1
"1378",-1,-1,0,14,14,1,"1d7bc04",136,1
"1388",-1,-1,0,14,9,1,"1d7bc04",137,1
"1398",-1,-1,0,9,9,1,"1d7bc04",138,1
"1408",-1,-1,0,9,6,1,"1d7bc04",139,1
"14112",-1,-1,0,6,6,1,"1d7bc04",140,1
"14210",-1,-1,0,6,2,1,"1d7bc04",141,1
"1438",-1,-1,0,2,4,1,"1d7bc04",142,1
"1448",-1,-1,0,4,4,1,"1d7bc04",143,1
"1458",-1,-1,0,4,17,1,"1d7bc04",144,1
"1468",-1,-1,0,17,8,1,"1d7bc04",145,1
"1478",-1,-1,0,8,3,1,"1d7bc04",146,1
"1488",-1,-1,0,3,3,1,"1d7bc04",147,1
"1498",-1,-1,0,3,7,1,"1d7bc04",148,1
"1508",-1,-1,0,7,7,1,"1d7bc04",149,1
"15112",-1,-1,0,7,11,1,"1d7bc04",150,1
"15210",-1,-1,0,11,11,1,"1d7bc04",151,1
"1538",-1,-1,0,11,16,1,"1d7bc04",152,1
"1548",-1,-1,0,16,10,1,"1d7bc04",153,1
"1558",-1,-1,0,10,14,1,"1d7bc04",154,1
"1568",-1,-1,0,14,14,1,"1d7bc04",155,1
"1578",-1,-1,0,14,12,1,"1d7bc04",156,1
"1588",-1,-1,0,12,12,1,"1d7bc04",157,1
"1598",0,1,1042,12,13,1,"1d7bc04",158,1
"1608",1,1,835,13,13,1,"1d7bc04",159,1
"16112",0,1,1212,13,18,1,"1d7bc04",160,1
"16210",1,1,1039,18,18,1,"1d7bc04",161,1
"1638",1,0,995,18,5,1,"1d7bc04",162,1
"1648",0,1,1974,5,1,1,"1d7bc04",163,1
"1658",1,0,1074,1,15,1,"1d7bc04",164,1
"1668",1,1,1369,15,15,1,"1d7bc04",165,1
"1678",1,1,844,15,15,1,"1d7bc04",166,1
"1688",1,0,990,15,3,1,"1d7bc04",167,1
"1698",0,1,1204,3,7,1,"1d7bc04",168,1
"1708",1,1,2011,7,7,1,"1d7bc04",169,1
"17112",0,1,1224,7,10,1,"1d7bc04",170,1
"17210",1,1,1602,10,10,1,"1d7bc04",171,1
"1738",0,1,2125,10,6,1,"1d7bc04",172,1
"1748",0,1,1166,6,9,1,"1d7bc04",173,1
"1758",0,0,1378,9,9,1,"1d7bc04",174,1
"1768",0,1,1713,9,11,1,"1d7bc04",175,1
"1778",1,1,721,11,11,1,"1d7bc04",176,1
"1788",0,1,924,11,5,1,"1d7bc04",177,1
"1798",1,1,1797,5,5,1,"1d7bc04",178,1
"1808",0,1,997,5,8,1,"1d7bc04",179,1
"18112",1,1,1639,8,8,1,"1d7bc04",180,1
"18210",1,0,1784,8,2,1,"1d7bc04",181,1
"1838",1,1,1284,2,2,1,"1d7bc04",182,1
"1848",0,1,2244,2,12,1,"1d7bc04",183,1
"1858",0,1,2102,12,16,1,"1d7bc04",184,1
"1868",1,1,949,16,16,1,"1d7bc04",185,1
"1878",0,1,1197,16,18,1,"1d7bc04",186,1
"1888",0,0,1257,18,18,1,"1d7bc04",187,1
"1898",0,1,2411,18,13,1,"1d7bc04",188,1
"1908",1,1,1588,13,13,1,"1d7bc04",189,1
"19112",0,1,1725,13,4,1,"1d7bc04",190,1
"19210",0,1,1422,4,14,1,"1d7bc04",191,1
"1938",1,1,1194,14,14,1,"1d7bc04",192,1
"1948",0,1,1024,14,1,1,"1d7bc04",193,1
"1958",0,1,1570,1,17,1,"1d7bc04",194,1
"1968",-1,-1,0,17,17,1,"1d7bc04",195,1
"1978",-1,-1,0,17,18,1,"1d7bc04",196,1
"1988",-1,-1,0,18,16,1,"1d7bc04",197,1
"1998",-1,-1,0,16,16,1,"1d7bc04",198,1
"2008",-1,-1,0,16,17,1,"1d7bc04",199,1
"20112",-1,-1,0,17,17,1,"1d7bc04",200,1
"20210",-1,-1,0,17,11,1,"1d7bc04",201,1
"2038",-1,-1,0,11,11,1,"1d7bc04",202,1
"2048",-1,-1,0,11,2,1,"1d7bc04",203,1
"2058",-1,-1,0,2,2,1,"1d7bc04",204,1
"2068",-1,-1,0,2,6,1,"1d7bc04",205,1
"2078",-1,-1,0,6,4,1,"1d7bc04",206,1
"2088",-1,-1,0,4,9,1,"1d7bc04",207,1
"2098",-1,-1,0,9,9,1,"1d7bc04",208,1
"2108",-1,-1,0,9,14,1,"1d7bc04",209,1
"21112",-1,-1,0,14,14,1,"1d7bc04",210,1
"21210",-1,-1,0,14,12,1,"1d7bc04",211,1
"2138",-1,-1,0,12,10,1,"1d7bc04",212,1
"2148",-1,-1,0,10,3,1,"1d7bc04",213,1
"2158",-1,-1,0,3,1,1,"1d7bc04",214,1
"2168",-1,-1,0,1,1,1,"1d7bc04",215,1
"2178",-1,-1,0,1,13,1,"1d7bc04",216,1
"2188",-1,-1,0,13,7,1,"1d7bc04",217,1
"2198",-1,-1,0,7,5,1,"1d7bc04",218,1
"2208",-1,-1,0,5,5,1,"1d7bc04",219,1
"22112",-1,-1,0,5,8,1,"1d7bc04",220,1
"22210",-1,-1,0,8,15,1,"1d7bc04",221,1
"2238",-1,-1,0,15,15,1,"1d7bc04",222,1
"2248",-1,-1,0,15,9,1,"1d7bc04",223,1
"2258",-1,-1,0,9,15,1,"1d7bc04",224,1
"2268",-1,-1,0,15,15,1,"1d7bc04",225,1
"2278",-1,-1,0,15,11,1,"1d7bc04",226,1
"2288",1,0,1592,11,12,1,"1d7bc04",227,1
"2298",0,1,1052,12,13,1,"1d7bc04",228,1
"2308",0,1,1421,13,6,1,"1d7bc04",229,1
"23112",1,1,1128,6,6,1,"1d7bc04",230,1
"23210",0,1,1022,6,5,1,"1d7bc04",231,1
"2338",0,0,1575,5,5,1,"1d7bc04",232,1
"2348",0,1,1269,5,14,1,"1d7bc04",233,1
"2358",1,1,1390,14,14,1,"1d7bc04",234,1
"2368",0,1,930,14,2,1,"1d7bc04",235,1
"2378",1,1,1266,2,2,1,"1d7bc04",236,1
"2388",0,1,928,2,10,1,"1d7bc04",237,1
"2398",1,0,1997,10,16,1,"1d7bc04",238,1
"2408",1,1,1561,16,16,1,"1d7bc04",239,1
"24112",0,1,1479,16,7,1,"1d7bc04",240,1
"24210",1,1,2253,7,7,1,"1d7bc04",241,1
"2438",0,1,1094,7,18,1,"1d7bc04",242,1
"2448",0,0,2254,18,18,1,"1d7bc04",243,1
"2458",0,1,1916,18,8,1,"1d7bc04",244,1
"2468",1,1,1957,8,8,1,"1d7bc04",245,1
"2478",0,1,828,8,17,1,"1d7bc04",246,1
"2488",0,1,1938,17,1,1,"1d7bc04",247,1
"2498",1,0,1090,1,4,1,"1d7bc04",248,1
"2508",0,1,1320,4,3,1,"1d7bc04",249,1
"25112",0,1,1049,3,12,1,"1d7bc04",250,1
"25210",1,0,2299,12,8,1,"1d7bc04",251,1
"2538",-1,-1,0,8,8,1,"1d7bc04",252,1
"2548",0,1,856,8,7,1,"1d7bc04",253,1
"2558",0,1,1621,7,17,1,"1d7bc04",254,1
"2568",1,0,866,17,1,1,"1d7bc04",255,1
"2578",0,1,900,1,3,1,"1d7bc04",256,1
"2588",0,1,1799,3,2,1,"1d7bc04",257,1
"2598",1,1,991,2,2,1,"1d7bc04",258,1
"2608",0,1,717,2,6,1,"1d7bc04",259,1
"26112",1,1,1518,6,6,1,"1d7bc04",260,1
"2629",0,1,1381,6,4,1,"1d7bc04",261,1
"2637",1,1,1136,4,4,1,"1d7bc04",262,1
"2647",0,1,1249,4,18,1,"1d7bc04",263,1
"2657",0,1,1036,18,15,1,"1d7bc04",264,1
"2666",1,0,1372,15,13,1,"1d7bc04",265,1
"2676",1,0,1674,13,16,1,"1d7bc04",266,1
"2686",0,1,2301,16,9,1,"1d7bc04",267,1
"2696",0,1,972,9,5,1,"1d7bc04",268,1
"2705",-1,-1,0,5,11,1,"1d7bc04",269,1
"27110",0,1,901,11,14,1,"1d7bc04",270,1
"2724",0,1,1181,14,10,1,"1d7bc04",271,1
"2100",-1,-1,0,0,1,1,"1091793",1,1
"330",1,1,535,1,1,1,"1091793",2,1
"430",0,1,812,1,15,1,"1091793",3,1
"530",0,1,772,15,12,1,"1091793",4,1
"630",1,1,455,12,12,1,"1091793",5,1
"730",0,1,531,12,17,1,"1091793",6,1
"830",0,1,1573,17,9,1,"1091793",7,1
"930",1,0,1271,9,7,1,"1091793",8,1
"1030",1,0,895,7,10,1,"1091793",9,1
"1130",0,1,1180,10,2,1,"1091793",10,1
"1230",1,1,630,2,2,1,"1091793",11,1
"1330",0,1,756,2,16,1,"1091793",12,1
"1430",0,1,1007,16,5,1,"1091793",13,1
"1530",0,1,1180,5,3,1,"1091793",14,1
"1630",1,1,1057,3,3,1,"1091793",15,1
"1730",1,0,771,3,14,1,"1091793",16,1
"1830",0,1,714,14,8,1,"1091793",17,1
"1930",1,0,617,8,11,1,"1091793",18,1
"2030",1,1,644,11,11,1,"1091793",19,1
"2130",0,1,719,11,6,1,"1091793",20,1
"2230",1,1,826,6,6,1,"1091793",21,1
"2330",0,1,884,6,13,1,"1091793",22,1
"2430",0,1,891,13,18,1,"1091793",23,1
"2530",0,0,721,18,18,1,"1091793",24,1
"2630",0,1,600,18,4,1,"1091793",25,1
"2720",0,1,616,4,18,1,"1091793",26,1
"2813",0,0,849,18,18,1,"1091793",27,1
"2910",0,1,662,18,6,1,"1091793",28,1
"309",0,1,876,6,11,1,"1091793",29,1
"3113",0,0,718,11,11,1,"1091793",30,1
"3211",0,1,708,11,7,1,"1091793",31,1
"339",1,1,882,7,7,1,"1091793",32,1
"349",0,1,707,7,16,1,"1091793",33,1
"359",1,1,903,16,16,1,"1091793",34,1
"369",0,1,535,16,5,1,"1091793",35,1
"379",0,0,917,5,5,1,"1091793",36,1
"389",0,1,641,5,14,1,"1091793",37,1
"399",1,0,833,14,4,1,"1091793",38,1
"409",0,1,718,4,2,1,"1091793",39,1
"4113",0,1,774,2,12,1,"1091793",40,1
"4211",1,1,1374,12,12,1,"1091793",41,1
"439",0,1,600,12,9,1,"1091793",42,1
"449",0,0,753,9,9,1,"1091793",43,1
"459",0,1,672,9,10,1,"1091793",44,1
"469",0,0,676,10,10,1,"1091793",45,1
"479",1,0,2108,10,3,1,"1091793",46,1
"489",1,1,1006,3,3,1,"1091793",47,1
"499",0,1,530,3,1,1,"1091793",48,1
"509",1,1,663,1,1,1,"1091793",49,1
"5113",1,0,785,1,13,1,"1091793",50,1
"5211",1,1,950,13,13,1,"1091793",51,1
"539",0,1,375,13,8,1,"1091793",52,1
"549",0,1,825,8,15,1,"1091793",53,1
"559",1,1,705,15,15,1,"1091793",54,1
"569",0,1,691,15,17,1,"1091793",55,1
"579",0,1,831,17,2,1,"1091793",56,1
"589",0,0,692,2,2,1,"1091793",57,1
"599",0,1,777,2,3,1,"1091793",58,1
"609",0,0,634,3,3,1,"1091793",59,1
"6113",1,0,617,3,15,1,"1091793",60,1
"6211",1,1,637,15,15,1,"1091793",61,1
"639",0,1,682,15,7,1,"1091793",62,1
"649",0,1,699,7,8,1,"1091793",63,1
"659",0,1,678,8,18,1,"1091793",64,1
"669",0,0,869,18,18,1,"1091793",65,1
"679",0,1,619,18,16,1,"1091793",66,1
"689",0,0,727,16,16,1,"1091793",67,1
"699",0,1,1003,16,5,1,"1091793",68,1
"709",1,1,821,5,5,1,"1091793",69,1
"7113",0,1,562,5,10,1,"1091793",70,1
"7211",0,1,932,10,13,1,"1091793",71,1
"739",0,1,674,13,14,1,"1091793",72,1
"749",1,1,1079,14,14,1,"1091793",73,1
"759",0,1,1166,14,9,1,"1091793",74,1
"769",0,0,665,9,9,1,"1091793",75,1
"779",1,0,2060,9,11,1,"1091793",76,1
"789",0,1,717,11,6,1,"1091793",77,1
"799",-1,-1,0,6,17,1,"1091793",78,1
"809",0,0,744,17,17,1,"1091793",79,1
"8113",0,1,646,17,4,1,"1091793",80,1
"8211",0,1,887,4,12,1,"1091793",81,1
"839",0,0,728,12,12,1,"1091793",82,1
"849",0,1,717,12,1,1,"1091793",83,1
"859",0,1,771,1,15,1,"1091793",84,1
"869",0,1,662,15,7,1,"1091793",85,1
"879",1,0,692,7,6,1,"1091793",86,1
"889",1,0,626,6,17,1,"1091793",87,1
"899",0,1,630,17,18,1,"1091793",88,1
"909",0,1,1386,18,4,1,"1091793",89,1
"9113",0,1,1524,4,13,1,"1091793",90,1
"9211",0,1,1517,13,5,1,"1091793",91,1
"939",0,0,530,5,5,1,"1091793",92,1
"949",0,1,813,5,10,1,"1091793",93,1
"959",1,1,459,10,10,1,"1091793",94,1
"969",0,1,629,10,9,1,"1091793",95,1
"979",0,1,767,9,1,1,"1091793",96,1
"989",1,0,806,1,2,1,"1091793",97,1
"999",0,1,515,2,12,1,"1091793",98,1
"1009",0,1,789,12,16,1,"1091793",99,1
"10113",1,1,669,16,16,1,"1091793",100,1
"10211",0,1,606,16,8,1,"1091793",101,1
"1039",0,1,690,8,3,1,"1091793",102,1
"1049",1,0,516,3,14,1,"1091793",103,1
"1059",0,1,526,14,11,1,"1091793",104,1
"1069",1,1,852,11,11,1,"1091793",105,1
"1079",0,1,577,11,1,1,"1091793",106,1
"1089",0,1,499,1,17,1,"1091793",107,1
"1099",0,1,606,17,2,1,"1091793",108,1
"1109",0,0,711,2,2,1,"1091793",109,1
"11113",0,1,667,2,4,1,"1091793",110,1
"11211",0,1,713,4,11,1,"1091793",111,1
"1139",0,1,792,11,3,1,"1091793",112,1
"1149",0,1,1168,3,5,1,"1091793",113,1
"1159",0,0,2489,5,5,1,"1091793",114,1
"1169",0,1,1471,5,9,1,"1091793",115,1
"1179",0,1,1019,9,12,1,"1091793",116,1
"1189",1,1,1321,12,12,1,"1091793",117,1
"1199",0,1,1511,12,7,1,"1091793",118,1
"1209",0,1,1505,7,13,1,"1091793",119,1
"12113",0,1,1321,13,14,1,"1091793",120,1
"12211",0,1,1318,14,8,1,"1091793",121,1
"1239",1,0,1281,8,6,1,"1091793",122,1
"1249",0,1,1380,6,18,1,"1091793",123,1
"1259",0,1,1219,18,15,1,"1091793",124,1
"1269",1,1,1180,15,15,1,"1091793",125,1
"1279",0,1,1329,15,16,1,"1091793",126,1
"1289",1,1,1257,16,16,1,"1091793",127,1
"1299",1,0,1056,16,10,1,"1091793",128,1
"1309",1,0,1273,10,3,1,"1091793",129,1
"13113",0,1,1271,3,16,1,"1091793",130,1
"13211",-1,-1,0,16,9,1,"1091793",131,1
"1339",-1,-1,0,9,9,1,"1091793",132,1
"1349",0,1,1670,9,18,1,"1091793",133,1
"1359",0,1,680,18,11,1,"1091793",134,1
"1369",1,0,1633,11,4,1,"1091793",135,1
"1379",0,0,456,4,4,1,"1091793",136,1
"1389",1,0,622,4,15,1,"1091793",137,1
"1399",0,1,652,15,6,1,"1091793",138,1
"1409",0,1,905,6,12,1,"1091793",139,1
"14113",0,1,1115,12,2,1,"1091793",140,1
"14211",0,1,927,2,7,1,"1091793",141,1
"1439",1,0,447,7,13,1,"1091793",142,1
"1449",1,0,788,13,14,1,"1091793",143,1
"1459",0,1,707,14,5,1,"1091793",144,1
"1469",1,1,872,5,5,1,"1091793",145,1
"1479",0,1,773,5,8,1,"1091793",146,1
"1489",0,1,538,8,17,1,"1091793",147,1
"1499",0,1,688,17,1,1,"1091793",148,1
"1509",1,1,754,1,1,1,"1091793",149,1
"15113",0,1,516,1,10,1,"1091793",150,1
"15211",1,0,823,10,6,1,"1091793",151,1
"1539",0,0,444,6,6,1,"1091793",152,1
"1549",0,1,728,6,14,1,"1091793",153,1
"1559",1,1,539,14,14,1,"1091793",154,1
"1569",0,1,570,14,17,1,"1091793",155,1
"1579",0,1,585,17,9,1,"1091793",156,1
"1589",1,1,895,9,9,1,"1091793",157,1
"1599",1,0,843,9,1,1,"1091793",158,1
"1609",0,0,359,1,1,1,"1091793",159,1
"16113",0,1,1287,1,10,1,"1091793",160,1
"16211",-1,-1,0,10,10,1,"1091793",161,1
"1639",0,1,851,10,18,1,"1091793",162,1
"1649",0,1,649,18,8,1,"1091793",163,1
"1659",0,0,799,8,8,1,"1091793",164,1
"1669",0,1,740,8,13,1,"1091793",165,1
"1679",0,1,769,13,16,1,"1091793",166,1
"1689",0,0,786,16,16,1,"1091793",167,1
"1699",0,1,630,16,3,1,"1091793",168,1
"1709",0,1,705,3,4,1,"1091793",169,1
"17113",0,1,502,4,11,1,"1091793",170,1
"17211",0,1,503,11,12,1,"1091793",171,1
"1739",0,1,587,12,5,1,"1091793",172,1
"1749",0,1,624,5,7,1,"1091793",173,1
"1759",0,1,696,7,15,1,"1091793",174,1
"1769",0,0,408,15,15,1,"1091793",175,1
"1779",0,1,541,15,2,1,"1091793",176,1
"1789",1,0,769,2,8,1,"1091793",177,1
"1799",0,0,558,8,8,1,"1091793",178,1
"1809",0,1,501,8,12,1,"1091793",179,1
"18113",1,0,773,12,2,1,"1091793",180,1
"18211",0,1,1179,2,13,1,"1091793",181,1
"1839",0,1,731,13,17,1,"1091793",182,1
"1849",0,1,570,17,11,1,"1091793",183,1
"1859",0,1,607,11,4,1,"1091793",184,1
"1869",0,1,601,4,15,1,"1091793",185,1
"1879",0,1,541,15,14,1,"1091793",186,1
"1889",0,1,565,14,18,1,"1091793",187,1
"1899",0,1,472,18,10,1,"1091793",188,1
"1909",0,1,617,10,7,1,"1091793",189,1
"19113",0,0,606,7,7,1,"1091793",190,1
"19211",1,0,604,7,9,1,"1091793",191,1
"1939",0,1,498,9,5,1,"1091793",192,1
"1949",0,1,681,5,1,1,"1091793",193,1
"1959",0,1,465,1,6,1,"1091793",194,1
"1969",-1,-1,0,6,6,1,"1091793",195,1
"1979",0,1,2332,6,16,1,"1091793",196,1
"1989",1,1,1164,16,16,1,"1091793",197,1
"1999",1,0,881,16,3,1,"1091793",198,1
"2009",0,0,958,3,3,1,"1091793",199,1
"20113",0,1,1516,3,12,1,"1091793",200,1
"20211",0,1,1078,12,7,1,"1091793",201,1
"2039",1,1,983,7,7,1,"1091793",202,1
"2049",0,1,1251,7,4,1,"1091793",203,1
"2059",0,0,2426,4,4,1,"1091793",204,1
"2069",1,0,1654,4,1,1,"1091793",205,1
"2079",0,0,510,1,1,1,"1091793",206,1
"2089",0,1,581,1,13,1,"1091793",207,1
"2099",1,1,795,13,13,1,"1091793",208,1
"2109",0,1,854,13,16,1,"1091793",209,1
"21113",0,0,742,16,16,1,"1091793",210,1
"21211",0,1,1590,16,8,1,"1091793",211,1
"2139",0,1,1098,8,15,1,"1091793",212,1
"2149",1,1,451,15,15,1,"1091793",213,1
"2159",0,1,869,15,10,1,"1091793",214,1
"2169",0,1,620,10,2,1,"1091793",215,1
"2179",0,0,573,2,2,1,"1091793",216,1
"2189",0,1,709,2,9,1,"1091793",217,1
"2199",0,1,625,9,18,1,"1091793",218,1
"2209",1,0,891,18,5,1,"1091793",219,1
"22113",1,1,562,5,5,1,"1091793",220,1
"22211",0,1,503,5,17,1,"1091793",221,1
"2239",0,0,493,17,17,1,"1091793",222,1
"2249",0,1,746,17,11,1,"1091793",223,1
"2259",1,0,712,11,6,1,"1091793",224,1
"2269",0,0,781,6,6,1,"1091793",225,1
"2279",1,0,575,6,3,1,"1091793",226,1
"2289",1,1,1061,3,3,1,"1091793",227,1
"2299",1,0,759,3,14,1,"1091793",228,1
"2309",0,1,731,14,15,1,"1091793",229,1
"23113",1,1,1025,15,15,1,"1091793",230,1
"23211",1,0,1059,15,14,1,"1091793",231,1
"2339",1,0,1133,14,10,1,"1091793",232,1
