"","keys","accuracy","rt","Fimg","feature_index","subID","trialNum","run"
"2",2,0,529,13,1,"adfa595",1,1
"3",1,1,288,16,1,"adfa595",2,1
"4",2,1,594,32,1,"adfa595",3,1
"5",2,0,638,9,1,"adfa595",4,1
"6",1,1,622,17,1,"adfa595",5,1
"7",2,1,417,24,1,"adfa595",6,1
"8",1,1,243,10,1,"adfa595",7,1
"9",2,0,285,11,1,"adfa595",8,1
"10",2,1,365,22,1,"adfa595",9,1
"11",2,1,832,27,1,"adfa595",10,1
"12",1,1,882,15,1,"adfa595",11,1
"13",1,0,444,20,1,"adfa595",12,1
"14",NA,-1,0,6,1,"adfa595",13,1
"15",1,1,415,7,1,"adfa595",14,1
"16",1,0,305,31,1,"adfa595",15,1
"17",2,1,291,21,1,"adfa595",16,1
"18",2,0,203,14,1,"adfa595",17,1
"19",2,1,253,35,1,"adfa595",18,1
"20",1,0,240,26,1,"adfa595",19,1
"21",2,0,737,8,1,"adfa595",20,1
"22",2,0,307,2,1,"adfa595",21,1
"23",1,0,446,25,1,"adfa595",22,1
"24",1,0,399,23,1,"adfa595",23,1
"25",2,1,1185,28,1,"adfa595",24,1
"26",2,0,498,12,1,"adfa595",25,1
"27",1,1,637,5,1,"adfa595",26,1
"28",1,0,750,30,1,"adfa595",27,1
"29",2,1,320,36,1,"adfa595",28,1
"30",2,1,337,33,1,"adfa595",29,1
"31",2,0,292,3,1,"adfa595",30,1
"32",1,0,270,34,1,"adfa595",31,1
"33",1,0,287,29,1,"adfa595",32,1
"34",1,1,271,4,1,"adfa595",33,1
"35",1,1,227,1,1,"adfa595",34,1
"36",2,1,267,19,1,"adfa595",35,1
"37",1,1,733,18,1,"adfa595",36,1
"38",1,1,911,13,1,"adfa595",37,1
"39",2,0,728,16,1,"adfa595",38,1
"40",2,1,587,32,1,"adfa595",39,1
"41",2,0,380,9,1,"adfa595",40,1
"42",1,1,686,17,1,"adfa595",41,1
"43",1,0,351,24,1,"adfa595",42,1
"44",1,1,362,10,1,"adfa595",43,1
"45",1,1,443,11,1,"adfa595",44,1
"46",1,0,398,22,1,"adfa595",45,1
"47",1,0,286,27,1,"adfa595",46,1
"48",1,1,489,15,1,"adfa595",47,1
"49",1,0,603,20,1,"adfa595",48,1
"50",2,0,300,6,1,"adfa595",49,1
"51",2,0,702,7,1,"adfa595",50,1
"52",1,0,1097,31,1,"adfa595",51,1
"53",2,1,730,21,1,"adfa595",52,1
"54",2,0,492,14,1,"adfa595",53,1
"55",2,1,350,35,1,"adfa595",54,1
"56",1,0,463,26,1,"adfa595",55,1
"57",1,1,473,8,1,"adfa595",56,1
"58",1,1,522,2,1,"adfa595",57,1
"59",1,0,989,25,1,"adfa595",58,1
"60",2,1,366,23,1,"adfa595",59,1
"61",2,1,448,28,1,"adfa595",60,1
"62",2,0,585,12,1,"adfa595",61,1
"63",1,1,348,5,1,"adfa595",62,1
"64",1,0,333,30,1,"adfa595",63,1
"65",1,0,543,36,1,"adfa595",64,1
"66",1,0,113,33,1,"adfa595",65,1
"67",2,0,251,3,1,"adfa595",66,1
"68",1,0,45,34,1,"adfa595",67,1
"69",1,0,351,29,1,"adfa595",68,1
"70",1,1,294,4,1,"adfa595",69,1
"71",1,1,249,1,1,"adfa595",70,1
"72",1,0,363,19,1,"adfa595",71,1
"73",2,1,508,18,1,"adfa595",72,1
"74",2,1,262,31,1,"adfa595",73,1
"75",1,0,633,33,1,"adfa595",74,1
"76",2,1,1131,22,1,"adfa595",75,1
"77",2,1,379,25,1,"adfa595",76,1
"78",2,0,325,4,1,"adfa595",77,1
"79",1,1,536,6,1,"adfa595",78,1
"80",2,1,393,27,1,"adfa595",79,1
"81",1,0,347,30,1,"adfa595",80,1
"82",1,1,325,13,1,"adfa595",81,1
"83",1,1,280,18,1,"adfa595",82,1
"84",1,1,326,12,1,"adfa595",83,1
"85",2,1,248,21,1,"adfa595",84,1
"86",1,1,450,1,1,"adfa595",85,1
"87",1,1,468,3,1,"adfa595",86,1
"88",2,1,423,24,1,"adfa595",87,1
"89",2,1,343,26,1,"adfa595",88,1
"90",1,1,419,15,1,"adfa595",89,1
"91",1,1,436,7,1,"adfa595",90,1
"92",1,0,357,29,1,"adfa595",91,1
"93",2,1,431,19,1,"adfa595",92,1
"94",2,1,355,20,1,"adfa595",93,1
"95",1,0,372,34,1,"adfa595",94,1
"96",2,0,380,16,1,"adfa595",95,1
"97",2,0,334,11,1,"adfa595",96,1
"98",2,1,417,32,1,"adfa595",97,1
"99",1,1,305,8,1,"adfa595",98,1
"100",1,1,411,14,1,"adfa595",99,1
"101",1,0,1230,23,1,"adfa595",100,1
"102",2,0,1079,10,1,"adfa595",101,1
"103",1,1,273,9,1,"adfa595",102,1
"104",1,1,379,2,1,"adfa595",103,1
"105",1,0,301,28,1,"adfa595",104,1
"106",1,0,2423,35,1,"adfa595",105,1
"107",1,0,264,36,1,"adfa595",106,1
"108",2,0,345,17,1,"adfa595",107,1
"109",2,0,300,5,1,"adfa595",108,1
"110",2,0,253,2,1,"adfa595",109,1
"111",1,1,265,13,1,"adfa595",110,1
"112",1,0,216,21,1,"adfa595",111,1
"113",1,0,331,20,1,"adfa595",112,1
"114",1,0,349,19,1,"adfa595",113,1
"115",2,0,295,11,1,"adfa595",114,1
"116",1,0,280,29,1,"adfa595",115,1
"117",1,0,1035,35,1,"adfa595",116,1
"118",2,0,851,1,1,"adfa595",117,1
"119",2,1,550,26,1,"adfa595",118,1
"120",1,1,982,10,1,"adfa595",119,1
"121",1,1,651,12,1,"adfa595",120,1
"122",1,1,347,9,1,"adfa595",121,1
"123",2,0,260,7,1,"adfa595",122,1
"124",1,1,407,6,1,"adfa595",123,1
"125",1,0,361,36,1,"adfa595",124,1
"126",2,1,346,34,1,"adfa595",125,1
"127",2,0,291,14,1,"adfa595",126,1
"128",1,1,373,16,1,"adfa595",127,1
"129",1,1,808,3,1,"adfa595",128,1
"130",1,1,411,8,1,"adfa595",129,1
"131",1,1,451,4,1,"adfa595",130,1
"132",1,1,309,15,1,"adfa595",131,1
"133",1,1,328,5,1,"adfa595",132,1
"134",2,1,281,24,1,"adfa595",133,1
"135",2,1,298,27,1,"adfa595",134,1
"136",1,0,315,25,1,"adfa595",135,1
"137",1,0,614,22,1,"adfa595",136,1
"138",2,0,312,17,1,"adfa595",137,1
"139",2,1,361,31,1,"adfa595",138,1
"140",1,0,348,33,1,"adfa595",139,1
"141",1,0,301,30,1,"adfa595",140,1
"142",1,1,374,18,1,"adfa595",141,1
"143",1,0,745,28,1,"adfa595",142,1
"144",2,1,281,32,1,"adfa595",143,1
"145",2,1,781,23,1,"adfa595",144,1
"146",1,0,317,35,1,"adfa595",145,1
"147",1,0,1095,22,1,"adfa595",146,1
"148",1,1,250,11,1,"adfa595",147,1
"149",2,0,652,16,1,"adfa595",148,1
"150",2,0,2037,14,1,"adfa595",149,1
"151",1,1,1800,2,1,"adfa595",150,1
"152",2,1,954,28,1,"adfa595",151,1
"153",1,0,426,36,1,"adfa595",152,1
"154",1,1,350,1,1,"adfa595",153,1
"155",1,0,366,19,1,"adfa595",154,1
"156",1,0,320,33,1,"adfa595",155,1
"157",2,0,529,10,1,"adfa595",156,1
"158",2,0,347,3,1,"adfa595",157,1
"159",2,1,365,34,1,"adfa595",158,1
"160",2,0,287,7,1,"adfa595",159,1
"161",1,1,208,5,1,"adfa595",160,1
"162",1,0,258,30,1,"adfa595",161,1
"163",1,0,332,29,1,"adfa595",162,1
"164",1,1,735,9,1,"adfa595",163,1
"165",1,1,270,4,1,"adfa595",164,1
"166",1,1,921,15,1,"adfa595",165,1
"167",NA,-1,0,8,1,"adfa595",166,1
"168",1,0,479,26,1,"adfa595",167,1
"169",2,1,463,21,1,"adfa595",168,1
"170",1,0,769,27,1,"adfa595",169,1
"171",1,0,843,31,1,"adfa595",170,1
"172",1,1,476,13,1,"adfa595",171,1
"173",2,0,686,17,1,"adfa595",172,1
"174",1,0,416,24,1,"adfa595",173,1
"175",2,0,563,12,1,"adfa595",174,1
"176",2,1,508,32,1,"adfa595",175,1
"177",2,1,397,18,1,"adfa595",176,1
"178",1,0,318,23,1,"adfa595",177,1
"179",1,1,815,6,1,"adfa595",178,1
"180",1,0,1217,20,1,"adfa595",179,1
"181",1,0,851,25,1,"adfa595",180,1
"182",1,1,637,9,1,"adfa595",181,1
"183",2,1,239,31,1,"adfa595",182,1
"184",1,1,321,5,1,"adfa595",183,1
"185",1,1,402,8,1,"adfa595",184,1
"186",1,0,388,23,1,"adfa595",185,1
"187",1,1,374,14,1,"adfa595",186,1
"188",2,0,385,3,1,"adfa595",187,1
"189",2,0,273,2,1,"adfa595",188,1
"190",1,1,515,12,1,"adfa595",189,1
"191",1,0,501,21,1,"adfa595",190,1
"192",1,0,511,33,1,"adfa595",191,1
"193",1,0,369,24,1,"adfa595",192,1
"194",1,1,516,4,1,"adfa595",193,1
"195",1,1,468,18,1,"adfa595",194,1
"196",1,1,422,13,1,"adfa595",195,1
"197",2,1,433,19,1,"adfa595",196,1
"198",2,1,259,27,1,"adfa595",197,1
"199",1,0,531,29,1,"adfa595",198,1
"200",1,1,1150,15,1,"adfa595",199,1
"201",2,0,1616,1,1,"adfa595",200,1
"202",1,0,1440,34,1,"adfa595",201,1
"203",2,1,1491,35,1,"adfa595",202,1
"204",2,1,356,28,1,"adfa595",203,1
"205",1,1,304,17,1,"adfa595",204,1
"206",1,1,896,16,1,"adfa595",205,1
"207",2,0,594,11,1,"adfa595",206,1
"208",2,1,260,22,1,"adfa595",207,1
"209",1,1,622,10,1,"adfa595",208,1
"210",1,0,383,20,1,"adfa595",209,1
"211",1,1,1514,6,1,"adfa595",210,1
"212",2,1,731,26,1,"adfa595",211,1
"213",2,1,364,25,1,"adfa595",212,1
"214",1,0,573,30,1,"adfa595",213,1
"215",1,1,295,7,1,"adfa595",214,1
"216",1,0,345,32,1,"adfa595",215,1
"217",1,0,395,36,1,"adfa595",216,1
"218",1,0,565,35,1,"adfa595",217,1
"219",2,0,840,3,1,"adfa595",218,1
"220",1,1,312,17,1,"adfa595",219,1
"221",1,0,355,28,1,"adfa595",220,1
"222",1,0,403,34,1,"adfa595",221,1
"223",2,0,350,12,1,"adfa595",222,1
"224",2,1,560,31,1,"adfa595",223,1
"225",1,0,1057,25,1,"adfa595",224,1
"226",1,0,426,36,1,"adfa595",225,1
"227",1,1,126,2,1,"adfa595",226,1
"228",1,0,78,23,1,"adfa595",227,1
"229",1,1,440,5,1,"adfa595",228,1
"230",1,0,907,21,1,"adfa595",229,1
"231",2,1,219,29,1,"adfa595",230,1
"232",2,1,293,26,1,"adfa595",231,1
"233",1,0,279,20,1,"adfa595",232,1
"234",1,1,265,13,1,"adfa595",233,1
"235",1,1,60,14,1,"adfa595",234,1
"236",1,1,358,15,1,"adfa595",235,1
"237",2,0,503,11,1,"adfa595",236,1
"238",1,0,360,27,1,"adfa595",237,1
"239",1,0,314,19,1,"adfa595",238,1
"240",2,0,357,10,1,"adfa595",239,1
"241",1,1,471,4,1,"adfa595",240,1
"242",1,1,328,1,1,"adfa595",241,1
"243",1,0,1041,30,1,"adfa595",242,1
"244",1,1,1603,7,1,"adfa595",243,1
"245",1,0,373,22,1,"adfa595",244,1
"246",2,0,263,6,1,"adfa595",245,1
"247",2,1,248,32,1,"adfa595",246,1
"248",2,1,259,33,1,"adfa595",247,1
"249",1,1,340,16,1,"adfa595",248,1
"250",2,0,261,9,1,"adfa595",249,1
"251",2,1,279,24,1,"adfa595",250,1
"252",1,1,129,18,1,"adfa595",251,1
"253",1,1,211,8,1,"adfa595",252,1
"254",2,0,389,3,1,"adfa595",253,1
"255",1,0,335,26,1,"adfa595",254,1
"256",1,0,384,27,1,"adfa595",255,1
"257",2,1,434,18,1,"adfa595",256,1
"258",2,1,669,32,1,"adfa595",257,1
"259",2,0,238,4,1,"adfa595",258,1
"260",1,1,320,12,1,"adfa595",259,1
"261",1,0,330,34,1,"adfa595",260,1
"262",1,0,316,35,1,"adfa595",261,1
"263",2,1,334,22,1,"adfa595",262,1
"264",2,0,256,13,1,"adfa595",263,1
"265",1,0,328,24,1,"adfa595",264,1
"266",1,0,635,19,1,"adfa595",265,1
"267",1,1,299,1,1,"adfa595",266,1
"268",1,0,279,20,1,"adfa595",267,1
"269",1,0,360,36,1,"adfa595",268,1
"270",1,0,314,33,1,"adfa595",269,1
"271",2,1,428,29,1,"adfa595",270,1
"272",2,0,94,5,1,"adfa595",271,1
"273",2,0,359,11,1,"adfa595",272,1
"274",2,0,378,17,1,"adfa595",273,1
"275",1,0,234,30,1,"adfa595",274,1
"276",1,1,531,16,1,"adfa595",275,1
"277",1,1,231,8,1,"adfa595",276,1
"278",1,1,281,7,1,"adfa595",277,1
"279",1,1,265,10,1,"adfa595",278,1
"280",1,1,308,2,1,"adfa595",279,1
"281",1,0,293,31,1,"adfa595",280,1
"282",2,1,279,23,1,"adfa595",281,1
"283",2,0,201,14,1,"adfa595",282,1
"284",1,0,274,25,1,"adfa595",283,1
"285",1,1,325,15,1,"adfa595",284,1
"286",1,1,566,9,1,"adfa595",285,1
"287",1,0,295,21,1,"adfa595",286,1
"288",1,1,370,6,1,"adfa595",287,1
"289",2,1,291,28,1,"adfa595",288,1
"290",2,0,1529,1,1,"144aa92",1,1
"310",1,0,776,24,1,"144aa92",2,1
"410",2,1,447,25,1,"144aa92",3,1
"510",1,1,559,17,1,"144aa92",4,1
"610",1,1,447,14,1,"144aa92",5,1
"710",2,1,467,21,1,"144aa92",6,1
"810",2,1,389,26,1,"144aa92",7,1
"910",2,0,658,9,1,"144aa92",8,1
"1010",1,1,550,10,1,"144aa92",9,1
"1110",2,0,505,3,1,"144aa92",10,1
"1210",1,0,485,35,1,"144aa92",11,1
"1310",2,0,462,2,1,"144aa92",12,1
"1410",2,1,671,33,1,"144aa92",13,1
"1510",1,0,795,30,1,"144aa92",14,1
"1610",2,0,1048,12,1,"144aa92",15,1
"1710",2,0,1099,7,1,"144aa92",16,1
"1810",1,0,1176,34,1,"144aa92",17,1
"1910",2,1,1485,31,1,"144aa92",18,1
"2010",2,1,934,20,1,"144aa92",19,1
"2110",1,0,962,36,1,"144aa92",20,1
"2210",2,0,805,5,1,"144aa92",21,1
"2310",2,1,1563,29,1,"144aa92",22,1
"2410",2,0,1130,6,1,"144aa92",23,1
"2510",1,1,1006,11,1,"144aa92",24,1
"2610",2,1,1031,27,1,"144aa92",25,1
"2710",1,1,846,15,1,"144aa92",26,1
"2810",2,0,534,4,1,"144aa92",27,1
"291",1,1,630,16,1,"144aa92",28,1
"301",2,1,953,22,1,"144aa92",29,1
"311",2,1,1211,32,1,"144aa92",30,1
"321",1,1,932,18,1,"144aa92",31,1
"331",2,0,1566,8,1,"144aa92",32,1
"341",2,1,607,28,1,"144aa92",33,1
"351",2,1,1644,23,1,"144aa92",34,1
"361",1,1,634,13,1,"144aa92",35,1
"371",2,1,841,19,1,"144aa92",36,1
"381",2,0,1089,1,1,"144aa92",37,1
"391",2,1,428,24,1,"144aa92",38,1
"401",2,1,407,25,1,"144aa92",39,1
"411",1,1,554,17,1,"144aa92",40,1
"421",1,1,721,14,1,"144aa92",41,1
"431",2,1,519,21,1,"144aa92",42,1
"441",2,1,648,26,1,"144aa92",43,1
"451",2,0,474,9,1,"144aa92",44,1
"461",1,1,515,10,1,"144aa92",45,1
"471",2,0,448,3,1,"144aa92",46,1
"481",1,0,438,35,1,"144aa92",47,1
"491",2,0,408,2,1,"144aa92",48,1
"501",2,1,1051,33,1,"144aa92",49,1
"511",2,1,1267,30,1,"144aa92",50,1
"521",1,1,1081,12,1,"144aa92",51,1
"531",1,1,1681,7,1,"144aa92",52,1
"541",1,0,1188,34,1,"144aa92",53,1
"551",2,1,1389,31,1,"144aa92",54,1
"561",2,1,1129,20,1,"144aa92",55,1
"571",1,0,1303,36,1,"144aa92",56,1
"581",2,0,1894,5,1,"144aa92",57,1
"591",2,1,1409,29,1,"144aa92",58,1
"601",2,0,837,6,1,"144aa92",59,1
"611",1,1,843,11,1,"144aa92",60,1
"621",2,1,803,27,1,"144aa92",61,1
"631",1,1,544,15,1,"144aa92",62,1
"641",2,0,1138,4,1,"144aa92",63,1
"651",1,1,1404,16,1,"144aa92",64,1
"661",2,1,982,22,1,"144aa92",65,1
"671",2,1,1242,32,1,"144aa92",66,1
"681",1,1,1233,18,1,"144aa92",67,1
"691",2,0,882,8,1,"144aa92",68,1
"701",2,1,1004,28,1,"144aa92",69,1
"711",2,1,735,23,1,"144aa92",70,1
"721",1,1,889,13,1,"144aa92",71,1
"731",2,1,669,19,1,"144aa92",72,1
"741",2,0,585,3,1,"144aa92",73,1
"751",2,0,657,2,1,"144aa92",74,1
"761",1,1,593,15,1,"144aa92",75,1
"771",2,0,502,4,1,"144aa92",76,1
"781",1,1,558,12,1,"144aa92",77,1
"791",2,1,997,21,1,"144aa92",78,1
"801",2,1,1049,22,1,"144aa92",79,1
"811",1,1,1384,17,1,"144aa92",80,1
"821",1,1,786,18,1,"144aa92",81,1
"831",2,1,674,29,1,"144aa92",82,1
"841",2,1,675,25,1,"144aa92",83,1
"851",1,1,570,14,1,"144aa92",84,1
"861",2,0,636,5,1,"144aa92",85,1
"871",1,0,1152,35,1,"144aa92",86,1
"881",2,0,878,1,1,"144aa92",87,1
"891",2,1,1264,27,1,"144aa92",88,1
"901",1,0,1293,23,1,"144aa92",89,1
"911",2,0,1329,16,1,"144aa92",90,1
"921",1,1,1270,13,1,"144aa92",91,1
"931",1,0,802,34,1,"144aa92",92,1
"941",2,1,1358,19,1,"144aa92",93,1
"951",1,0,1107,28,1,"144aa92",94,1
"961",2,1,1264,33,1,"144aa92",95,1
"971",2,0,1297,11,1,"144aa92",96,1
"981",2,0,928,9,1,"144aa92",97,1
"991",2,1,880,31,1,"144aa92",98,1
"1001",2,0,682,6,1,"144aa92",99,1
"1011",2,1,1366,20,1,"144aa92",100,1
"1021",2,1,1008,32,1,"144aa92",101,1
"1031",1,1,615,10,1,"144aa92",102,1
"1041",2,1,495,24,1,"144aa92",103,1
"1051",2,1,867,30,1,"144aa92",104,1
"1061",2,1,613,26,1,"144aa92",105,1
"1071",2,0,706,8,1,"144aa92",106,1
"1081",1,0,1407,36,1,"144aa92",107,1
"1091",2,0,1195,7,1,"144aa92",108,1
"1101",2,0,875,9,1,"144aa92",109,1
"1111",1,1,721,14,1,"144aa92",110,1
"1121",2,0,662,5,1,"144aa92",111,1
"1131",2,1,609,31,1,"144aa92",112,1
"1141",2,1,794,22,1,"144aa92",113,1
"1151",2,1,865,29,1,"144aa92",114,1
"1161",1,1,572,18,1,"144aa92",115,1
"1171",2,1,589,32,1,"144aa92",116,1
"1181",1,1,616,13,1,"144aa92",117,1
"1191",2,1,324,19,1,"144aa92",118,1
"1201",2,0,2147,12,1,"144aa92",119,1
"1211",2,1,565,36,1,"144aa92",120,1
"1221",1,0,554,20,1,"144aa92",121,1
"1231",2,1,646,27,1,"144aa92",122,1
"1241",1,1,857,11,1,"144aa92",123,1
"1251",1,0,383,30,1,"144aa92",124,1
"1261",1,0,501,35,1,"144aa92",125,1
"1271",1,0,387,21,1,"144aa92",126,1
"1281",2,0,423,4,1,"144aa92",127,1
"1291",2,0,1089,10,1,"144aa92",128,1
"1301",1,1,404,3,1,"144aa92",129,1
"1311",1,0,28,28,1,"144aa92",130,1
"1321",2,0,385,17,1,"144aa92",131,1
"1331",1,1,416,8,1,"144aa92",132,1
"1341",2,1,458,25,1,"144aa92",133,1
"1351",2,1,288,23,1,"144aa92",134,1
"1361",2,0,420,2,1,"144aa92",135,1
"1371",1,1,612,16,1,"144aa92",136,1
"1381",1,0,521,34,1,"144aa92",137,1
"1391",2,1,468,24,1,"144aa92",138,1
"1401",1,1,497,7,1,"144aa92",139,1
"1411",1,1,414,6,1,"144aa92",140,1
"1421",1,1,1439,15,1,"144aa92",141,1
"1431",2,1,1134,33,1,"144aa92",142,1
"1441",2,0,1467,1,1,"144aa92",143,1
"1451",2,1,1176,26,1,"144aa92",144,1
"1461",1,1,1187,13,1,"144aa92",145,1
"1471",1,1,1119,17,1,"144aa92",146,1
"1481",2,1,1174,31,1,"144aa92",147,1
"1491",2,1,721,19,1,"144aa92",148,1
"1501",2,1,696,27,1,"144aa92",149,1
"1511",1,0,530,33,1,"144aa92",150,1
"1521",1,0,568,29,1,"144aa92",151,1
"1531",2,1,604,20,1,"144aa92",152,1
"1541",1,1,613,18,1,"144aa92",153,1
"1551",2,1,648,26,1,"144aa92",154,1
"1561",2,0,1146,9,1,"144aa92",155,1
"1571",1,1,792,11,1,"144aa92",156,1
"1581",2,0,556,3,1,"144aa92",157,1
"1591",2,0,826,1,1,"144aa92",158,1
"1601",2,0,1354,7,1,"144aa92",159,1
"1611",1,1,648,10,1,"144aa92",160,1
"1621",2,1,746,25,1,"144aa92",161,1
"1631",2,1,802,23,1,"144aa92",162,1
"1641",1,0,1058,35,1,"144aa92",163,1
"1651",1,1,1457,15,1,"144aa92",164,1
"1661",1,0,928,36,1,"144aa92",165,1
"1671",1,1,1233,12,1,"144aa92",166,1
"1681",2,1,769,22,1,"144aa92",167,1
"1691",2,0,1373,4,1,"144aa92",168,1
"1701",1,0,794,34,1,"144aa92",169,1
"1711",2,0,653,5,1,"144aa92",170,1
"1721",1,1,725,14,1,"144aa92",171,1
"1731",2,0,799,6,1,"144aa92",172,1
"1741",2,1,622,32,1,"144aa92",173,1
"1751",2,1,602,30,1,"144aa92",174,1
"1761",1,1,545,16,1,"144aa92",175,1
"1771",2,0,534,8,1,"144aa92",176,1
"1781",1,0,354,24,1,"144aa92",177,1
"1791",2,1,497,21,1,"144aa92",178,1
"1801",2,0,431,2,1,"144aa92",179,1
"1811",2,1,692,28,1,"144aa92",180,1
"1821",1,1,483,14,1,"144aa92",181,1
"1831",1,0,573,36,1,"144aa92",182,1
"1841",2,0,908,3,1,"144aa92",183,1
"1851",1,0,1622,35,1,"144aa92",184,1
"1861",2,1,1037,27,1,"144aa92",185,1
"1871",2,1,701,29,1,"144aa92",186,1
"1881",2,0,565,5,1,"144aa92",187,1
"1891",2,1,595,26,1,"144aa92",188,1
"1901",2,0,218,12,1,"144aa92",189,1
"1911",1,1,609,17,1,"144aa92",190,1
"1921",2,1,379,21,1,"144aa92",191,1
"1931",1,1,146,1,1,"144aa92",192,1
"1941",1,1,1091,8,1,"144aa92",193,1
"1951",1,1,604,2,1,"144aa92",194,1
"1961",2,1,1040,24,1,"144aa92",195,1
"1971",2,0,722,13,1,"144aa92",196,1
"1981",2,1,1134,31,1,"144aa92",197,1
"1991",2,0,764,15,1,"144aa92",198,1
"2001",1,1,575,10,1,"144aa92",199,1
"2011",1,0,299,34,1,"144aa92",200,1
"2021",2,1,598,25,1,"144aa92",201,1
"2031",2,0,458,9,1,"144aa92",202,1
"2041",1,0,374,28,1,"144aa92",203,1
"2051",1,1,1111,7,1,"144aa92",204,1
"2061",1,0,837,22,1,"144aa92",205,1
"2071",2,1,548,23,1,"144aa92",206,1
"2081",1,1,1450,4,1,"144aa92",207,1
"2091",1,1,451,6,1,"144aa92",208,1
"2101",1,0,810,33,1,"144aa92",209,1
"2111",1,1,771,11,1,"144aa92",210,1
"2121",1,1,497,16,1,"144aa92",211,1
"2131",2,1,758,20,1,"144aa92",212,1
"2141",1,1,840,18,1,"144aa92",213,1
"2151",2,1,1226,32,1,"144aa92",214,1
"2161",1,0,256,19,1,"144aa92",215,1
"2171",2,1,867,30,1,"144aa92",216,1
"2181",2,1,1670,25,1,"144aa92",217,1
"2191",2,0,634,4,1,"144aa92",218,1
"2201",2,1,1422,33,1,"144aa92",219,1
"2211",2,0,978,2,1,"144aa92",220,1
"2221",2,1,582,32,1,"144aa92",221,1
"2231",2,1,947,30,1,"144aa92",222,1
"2241",2,0,874,3,1,"144aa92",223,1
"2251",1,1,765,1,1,"144aa92",224,1
"2261",2,0,737,9,1,"144aa92",225,1
"2271",2,1,388,26,1,"144aa92",226,1
"2281",2,0,346,14,1,"144aa92",227,1
"2291",2,0,1939,15,1,"144aa92",228,1
"2301",1,1,557,18,1,"144aa92",229,1
"2311",2,1,433,31,1,"144aa92",230,1
"2321",2,1,478,19,1,"144aa92",231,1
"2331",1,1,310,7,1,"144aa92",232,1
"2341",2,0,315,13,1,"144aa92",233,1
"2351",2,1,905,28,1,"144aa92",234,1
"2361",2,0,811,17,1,"144aa92",235,1
"2371",1,0,927,22,1,"144aa92",236,1
"2381",1,1,811,16,1,"144aa92",237,1
"2391",2,0,1272,11,1,"144aa92",238,1
"2401",1,1,609,12,1,"144aa92",239,1
"2411",1,0,356,24,1,"144aa92",240,1
"2421",1,0,412,29,1,"144aa92",241,1
"2431",2,0,305,10,1,"144aa92",242,1
"2441",2,1,782,34,1,"144aa92",243,1
"2451",1,0,665,35,1,"144aa92",244,1
"2461",2,0,1225,6,1,"144aa92",245,1
"2471",1,0,513,21,1,"144aa92",246,1
"2481",1,0,692,36,1,"144aa92",247,1
"2491",2,0,544,5,1,"144aa92",248,1
"2501",1,1,419,8,1,"144aa92",249,1
"2511",1,0,670,20,1,"144aa92",250,1
"2521",1,0,837,27,1,"144aa92",251,1
"2531",2,1,698,23,1,"144aa92",252,1
"2541",2,0,1119,8,1,"144aa92",253,1
"2551",2,0,871,11,1,"144aa92",254,1
"2561",2,0,832,14,1,"144aa92",255,1
"2571",1,0,349,32,1,"144aa92",256,1
"2581",2,0,338,4,1,"144aa92",257,1
"2591",2,0,448,15,1,"144aa92",258,1
"2601",1,0,616,19,1,"144aa92",259,1
"2611",1,1,1123,5,1,"144aa92",260,1
"2621",2,1,1260,27,1,"144aa92",261,1
"2631",2,0,566,3,1,"144aa92",262,1
"2641",2,1,508,24,1,"144aa92",263,1
"2651",2,1,1009,25,1,"144aa92",264,1
"2661",2,0,1065,12,1,"144aa92",265,1
"2671",1,1,834,10,1,"144aa92",266,1
"2681",1,1,743,6,1,"144aa92",267,1
"2691",1,1,318,1,1,"144aa92",268,1
"2701",2,0,810,7,1,"144aa92",269,1
"2711",2,1,519,23,1,"144aa92",270,1
"2721",1,0,784,33,1,"144aa92",271,1
"2731",1,1,983,9,1,"144aa92",272,1
"2741",2,1,883,18,1,"144aa92",273,1
"2751",2,1,629,34,1,"144aa92",274,1
"2761",2,1,695,29,1,"144aa92",275,1
"2771",2,1,906,26,1,"144aa92",276,1
"2781",1,0,1644,22,1,"144aa92",277,1
"2791",2,1,768,21,1,"144aa92",278,1
"2801",1,1,595,17,1,"144aa92",279,1
"2811",2,1,529,30,1,"144aa92",280,1
"2821",1,1,699,16,1,"144aa92",281,1
"2831",2,1,859,28,1,"144aa92",282,1
"2841",1,0,610,20,1,"144aa92",283,1
"2851",2,1,643,31,1,"144aa92",284,1
"2861",1,0,562,35,1,"144aa92",285,1
"2871",2,1,578,36,1,"144aa92",286,1
"2881",1,1,790,13,1,"144aa92",287,1
"2891",2,0,526,2,1,"144aa92",288,1
"292",2,0,1074,9,1,"1b4a3af",1,1
"312",2,0,977,14,1,"1b4a3af",2,1
"412",2,1,698,26,1,"1b4a3af",3,1
"512",2,1,806,31,1,"1b4a3af",4,1
"612",1,1,863,11,1,"1b4a3af",5,1
"712",1,1,733,18,1,"1b4a3af",6,1
"812",2,1,737,19,1,"1b4a3af",7,1
"912",2,0,737,3,1,"1b4a3af",8,1
"1012",2,1,903,28,1,"1b4a3af",9,1
"1112",2,1,1022,27,1,"1b4a3af",10,1
"1212",2,1,1075,21,1,"1b4a3af",11,1
"1312",1,0,1072,36,1,"1b4a3af",12,1
"1412",2,1,950,24,1,"1b4a3af",13,1
"1512",1,1,1000,17,1,"1b4a3af",14,1
"1612",2,0,712,2,1,"1b4a3af",15,1
"1712",2,0,1023,8,1,"1b4a3af",16,1
"1812",2,0,943,1,1,"1b4a3af",17,1
"1912",2,0,960,7,1,"1b4a3af",18,1
"2012",1,1,1379,15,1,"1b4a3af",19,1
"2112",2,1,716,33,1,"1b4a3af",20,1
"2212",2,1,946,30,1,"1b4a3af",21,1
"2312",2,1,884,20,1,"1b4a3af",22,1
"2412",1,0,832,34,1,"1b4a3af",23,1
"2512",2,0,938,10,1,"1b4a3af",24,1
"2612",2,1,676,29,1,"1b4a3af",25,1
"2712",1,1,1068,13,1,"1b4a3af",26,1
"2812",1,1,1413,16,1,"1b4a3af",27,1
"293",2,0,1518,5,1,"1b4a3af",28,1
"302",2,1,985,23,1,"1b4a3af",29,1
"313",1,1,827,12,1,"1b4a3af",30,1
"322",2,1,764,22,1,"1b4a3af",31,1
"332",1,0,744,35,1,"1b4a3af",32,1
"342",2,0,1135,4,1,"1b4a3af",33,1
"352",2,0,1324,6,1,"1b4a3af",34,1
"362",2,1,736,25,1,"1b4a3af",35,1
"372",1,0,999,32,1,"1b4a3af",36,1
"382",2,0,950,9,1,"1b4a3af",37,1
"392",1,1,800,14,1,"1b4a3af",38,1
"402",2,1,761,26,1,"1b4a3af",39,1
"413",2,1,738,31,1,"1b4a3af",40,1
"422",1,1,903,11,1,"1b4a3af",41,1
"432",1,1,878,18,1,"1b4a3af",42,1
"442",2,1,696,19,1,"1b4a3af",43,1
"452",2,0,615,3,1,"1b4a3af",44,1
"462",2,1,691,28,1,"1b4a3af",45,1
"472",2,1,694,27,1,"1b4a3af",46,1
"482",2,1,889,21,1,"1b4a3af",47,1
"492",1,0,589,36,1,"1b4a3af",48,1
"502",2,1,800,24,1,"1b4a3af",49,1
"513",1,1,750,17,1,"1b4a3af",50,1
"522",2,0,736,2,1,"1b4a3af",51,1
"532",2,0,935,8,1,"1b4a3af",52,1
"542",2,0,645,1,1,"1b4a3af",53,1
"552",2,0,746,7,1,"1b4a3af",54,1
"562",1,1,738,15,1,"1b4a3af",55,1
"572",2,1,1250,33,1,"1b4a3af",56,1
"582",2,1,836,30,1,"1b4a3af",57,1
"592",2,1,949,20,1,"1b4a3af",58,1
"602",1,0,849,34,1,"1b4a3af",59,1
"613",1,1,761,10,1,"1b4a3af",60,1
"622",2,1,733,29,1,"1b4a3af",61,1
"632",1,1,926,13,1,"1b4a3af",62,1
"642",1,1,1023,16,1,"1b4a3af",63,1
"652",2,0,638,5,1,"1b4a3af",64,1
"662",2,1,704,23,1,"1b4a3af",65,1
"672",1,1,814,12,1,"1b4a3af",66,1
"682",2,1,592,22,1,"1b4a3af",67,1
"692",1,0,733,35,1,"1b4a3af",68,1
"702",2,0,654,4,1,"1b4a3af",69,1
"713",2,0,694,6,1,"1b4a3af",70,1
"722",2,1,725,25,1,"1b4a3af",71,1
"732",2,1,749,32,1,"1b4a3af",72,1
"742",2,1,782,25,1,"1b4a3af",73,1
"752",2,0,870,2,1,"1b4a3af",74,1
"762",1,1,1418,17,1,"1b4a3af",75,1
"772",2,1,738,22,1,"1b4a3af",76,1
"782",2,1,772,26,1,"1b4a3af",77,1
"792",2,1,936,28,1,"1b4a3af",78,1
"802",2,1,835,23,1,"1b4a3af",79,1
"813",1,0,817,35,1,"1b4a3af",80,1
"822",1,1,1112,18,1,"1b4a3af",81,1
"832",2,1,875,24,1,"1b4a3af",82,1
"842",2,1,973,19,1,"1b4a3af",83,1
"852",2,0,1151,12,1,"1b4a3af",84,1
"862",2,0,1133,8,1,"1b4a3af",85,1
"872",2,1,1560,33,1,"1b4a3af",86,1
"882",2,0,1171,14,1,"1b4a3af",87,1
"892",2,0,1370,15,1,"1b4a3af",88,1
"902",2,0,1121,1,1,"1b4a3af",89,1
"913",1,1,1255,16,1,"1b4a3af",90,1
"922",2,0,1167,3,1,"1b4a3af",91,1
"932",2,1,1257,31,1,"1b4a3af",92,1
"942",2,1,1378,36,1,"1b4a3af",93,1
"952",2,0,1019,5,1,"1b4a3af",94,1
"962",1,0,1095,34,1,"1b4a3af",95,1
"972",1,1,1176,11,1,"1b4a3af",96,1
"982",1,0,1350,30,1,"1b4a3af",97,1
"992",2,1,812,29,1,"1b4a3af",98,1
"1002",2,0,834,9,1,"1b4a3af",99,1
"1013",2,1,765,27,1,"1b4a3af",100,1
"1022",2,0,624,4,1,"1b4a3af",101,1
"1032",1,1,1070,13,1,"1b4a3af",102,1
"1042",2,0,831,6,1,"1b4a3af",103,1
"1052",2,1,840,32,1,"1b4a3af",104,1
"1062",2,1,1411,20,1,"1b4a3af",105,1
"1072",1,1,972,10,1,"1b4a3af",106,1
"1082",2,1,572,21,1,"1b4a3af",107,1
"1092",2,0,896,7,1,"1b4a3af",108,1
"1102",1,1,923,14,1,"1b4a3af",109,1
"1113",2,1,623,19,1,"1b4a3af",110,1
"1122",1,1,901,11,1,"1b4a3af",111,1
"1132",1,0,894,34,1,"1b4a3af",112,1
"1142",2,0,717,2,1,"1b4a3af",113,1
"1152",1,1,769,10,1,"1b4a3af",114,1
"1162",2,1,739,27,1,"1b4a3af",115,1
"1172",2,1,778,23,1,"1b4a3af",116,1
"1182",2,1,585,32,1,"1b4a3af",117,1
"1192",1,1,767,12,1,"1b4a3af",118,1
"1202",2,1,656,33,1,"1b4a3af",119,1
"1213",2,1,663,21,1,"1b4a3af",120,1
"1222",1,1,740,17,1,"1b4a3af",121,1
"1232",2,1,576,20,1,"1b4a3af",122,1
"1242",2,0,768,6,1,"1b4a3af",123,1
"1252",2,1,675,30,1,"1b4a3af",124,1
"1262",2,1,670,26,1,"1b4a3af",125,1
"1272",1,1,832,15,1,"1b4a3af",126,1
"1282",2,1,813,24,1,"1b4a3af",127,1
"1292",2,0,513,8,1,"1b4a3af",128,1
"1302",1,0,870,36,1,"1b4a3af",129,1
"1313",2,1,528,29,1,"1b4a3af",130,1
"1322",2,0,619,9,1,"1b4a3af",131,1
"1332",2,0,741,3,1,"1b4a3af",132,1
"1342",2,1,681,31,1,"1b4a3af",133,1
"1352",2,0,984,5,1,"1b4a3af",134,1
"1362",2,1,803,25,1,"1b4a3af",135,1
"1372",1,0,1286,28,1,"1b4a3af",136,1
"1382",1,1,1061,4,1,"1b4a3af",137,1
"1392",1,1,1263,13,1,"1b4a3af",138,1
"1402",2,1,712,22,1,"1b4a3af",139,1
"1413",1,1,856,18,1,"1b4a3af",140,1
"1422",2,0,1007,16,1,"1b4a3af",141,1
"1432",2,0,962,7,1,"1b4a3af",142,1
"1442",1,0,843,35,1,"1b4a3af",143,1
"1452",2,0,726,1,1,"1b4a3af",144,1
"1462",1,1,817,15,1,"1b4a3af",145,1
"1472",1,1,799,13,1,"1b4a3af",146,1
"1482",1,0,700,35,1,"1b4a3af",147,1
"1492",1,1,829,14,1,"1b4a3af",148,1
"1502",1,1,823,10,1,"1b4a3af",149,1
"1513",2,1,698,20,1,"1b4a3af",150,1
"1522",2,1,891,30,1,"1b4a3af",151,1
"1532",2,1,1195,36,1,"1b4a3af",152,1
"1542",2,0,1472,11,1,"1b4a3af",153,1
"1552",2,0,873,5,1,"1b4a3af",154,1
"1562",2,0,1566,16,1,"1b4a3af",155,1
"1572",2,0,808,9,1,"1b4a3af",156,1
"1582",1,1,1071,18,1,"1b4a3af",157,1
"1592",1,1,1001,17,1,"1b4a3af",158,1
"1602",2,0,1141,7,1,"1b4a3af",159,1
"1613",2,1,649,25,1,"1b4a3af",160,1
"1622",2,1,884,33,1,"1b4a3af",161,1
"1632",2,0,1041,1,1,"1b4a3af",162,1
"1642",1,0,1006,34,1,"1b4a3af",163,1
"1652",2,0,730,4,1,"1b4a3af",164,1
"1662",2,1,674,22,1,"1b4a3af",165,1
"1672",2,1,838,28,1,"1b4a3af",166,1
"1682",2,1,984,23,1,"1b4a3af",167,1
"1692",1,1,876,12,1,"1b4a3af",168,1
"1702",2,1,730,29,1,"1b4a3af",169,1
"1713",2,0,663,6,1,"1b4a3af",170,1
"1722",2,1,646,27,1,"1b4a3af",171,1
"1732",2,1,831,26,1,"1b4a3af",172,1
"1742",2,0,879,2,1,"1b4a3af",173,1
"1752",2,0,726,3,1,"1b4a3af",174,1
"1762",2,1,1053,31,1,"1b4a3af",175,1
"1772",2,1,1203,21,1,"1b4a3af",176,1
"1782",2,0,988,8,1,"1b4a3af",177,1
"1792",2,1,985,24,1,"1b4a3af",178,1
"1802",2,1,1106,19,1,"1b4a3af",179,1
"1813",2,1,1055,32,1,"1b4a3af",180,1
"1822",1,0,1229,23,1,"1b4a3af",181,1
"1832",2,1,837,20,1,"1b4a3af",182,1
"1842",2,0,1609,7,1,"1b4a3af",183,1
"1852",2,1,879,19,1,"1b4a3af",184,1
"1862",2,1,815,29,1,"1b4a3af",185,1
"1872",1,0,769,34,1,"1b4a3af",186,1
"1882",1,0,1108,36,1,"1b4a3af",187,1
"1892",2,1,823,22,1,"1b4a3af",188,1
"1902",2,0,1014,4,1,"1b4a3af",189,1
"1913",2,1,1001,35,1,"1b4a3af",190,1
"1922",2,1,771,24,1,"1b4a3af",191,1
"1932",2,1,733,27,1,"1b4a3af",192,1
"1942",2,1,766,21,1,"1b4a3af",193,1
"1952",2,0,805,8,1,"1b4a3af",194,1
"1962",2,0,745,10,1,"1b4a3af",195,1
"1972",2,0,792,6,1,"1b4a3af",196,1
"1982",2,1,684,32,1,"1b4a3af",197,1
"1992",1,1,868,11,1,"1b4a3af",198,1
"2002",2,0,1161,1,1,"1b4a3af",199,1
"2013",1,1,1064,13,1,"1b4a3af",200,1
"2022",1,1,1176,9,1,"1b4a3af",201,1
"2032",2,1,685,30,1,"1b4a3af",202,1
"2042",2,1,791,33,1,"1b4a3af",203,1
"2052",2,1,787,31,1,"1b4a3af",204,1
"2062",1,1,824,18,1,"1b4a3af",205,1
"2072",2,1,1115,25,1,"1b4a3af",206,1
"2082",1,1,1112,17,1,"1b4a3af",207,1
"2092",2,0,1215,3,1,"1b4a3af",208,1
"2102",1,1,886,14,1,"1b4a3af",209,1
"2113",1,1,1033,16,1,"1b4a3af",210,1
"2122",2,0,586,2,1,"1b4a3af",211,1
"2132",2,0,768,15,1,"1b4a3af",212,1
"2142",1,1,840,12,1,"1b4a3af",213,1
"2152",2,0,552,5,1,"1b4a3af",214,1
"2162",2,1,666,28,1,"1b4a3af",215,1
"2172",2,1,714,26,1,"1b4a3af",216,1
"2182",2,1,742,31,1,"1b4a3af",217,1
"2192",2,1,624,19,1,"1b4a3af",218,1
"2202",1,1,848,11,1,"1b4a3af",219,1
"2213",2,0,570,2,1,"1b4a3af",220,1
"2222",2,0,972,4,1,"1b4a3af",221,1
"2232",2,0,761,7,1,"1b4a3af",222,1
"2242",2,0,605,3,1,"1b4a3af",223,1
"2252",2,1,621,24,1,"1b4a3af",224,1
"2262",2,0,662,8,1,"1b4a3af",225,1
"2272",2,0,624,6,1,"1b4a3af",226,1
"2282",1,0,1072,34,1,"1b4a3af",227,1
"2292",2,1,741,20,1,"1b4a3af",228,1
"2302",2,1,1712,32,1,"1b4a3af",229,1
"2313",2,0,1499,9,1,"1b4a3af",230,1
"2322",2,0,1482,12,1,"1b4a3af",231,1
"2332",2,1,982,23,1,"1b4a3af",232,1
"2342",1,1,1181,18,1,"1b4a3af",233,1
"2352",1,1,1258,13,1,"1b4a3af",234,1
"2362",2,1,784,26,1,"1b4a3af",235,1
"2372",1,0,1327,21,1,"1b4a3af",236,1
"2382",2,1,928,33,1,"1b4a3af",237,1
"2392",1,0,828,36,1,"1b4a3af",238,1
"2402",1,1,879,10,1,"1b4a3af",239,1
"2413",2,1,697,22,1,"1b4a3af",240,1
"2422",2,1,840,25,1,"1b4a3af",241,1
"2432",2,0,863,1,1,"1b4a3af",242,1
"2442",2,0,1195,5,1,"1b4a3af",243,1
"2452",1,1,1021,15,1,"1b4a3af",244,1
"2462",2,1,748,30,1,"1b4a3af",245,1
"2472",2,1,673,27,1,"1b4a3af",246,1
"2482",1,0,1219,35,1,"1b4a3af",247,1
"2492",1,1,891,16,1,"1b4a3af",248,1
"2502",2,1,645,28,1,"1b4a3af",249,1
"2513",1,1,787,17,1,"1b4a3af",250,1
"2522",1,1,806,14,1,"1b4a3af",251,1
"2532",2,1,767,29,1,"1b4a3af",252,1
"2542",2,1,986,21,1,"1b4a3af",253,1
"2552",2,0,912,3,1,"1b4a3af",254,1
"2562",2,1,796,26,1,"1b4a3af",255,1
"2572",2,0,1414,9,1,"1b4a3af",256,1
"2582",1,0,988,34,1,"1b4a3af",257,1
"2592",2,0,630,7,1,"1b4a3af",258,1
"2602",2,0,871,11,1,"1b4a3af",259,1
"2613",2,0,599,2,1,"1b4a3af",260,1
"2622",1,0,1079,35,1,"1b4a3af",261,1
"2632",1,1,838,14,1,"1b4a3af",262,1
"2642",1,1,737,16,1,"1b4a3af",263,1
"2652",1,1,718,17,1,"1b4a3af",264,1
"2662",2,0,1120,13,1,"1b4a3af",265,1
"2672",2,1,738,31,1,"1b4a3af",266,1
"2682",2,1,742,19,1,"1b4a3af",267,1
"2692",2,1,782,30,1,"1b4a3af",268,1
"2702",2,1,928,33,1,"1b4a3af",269,1
"2713",2,1,1027,24,1,"1b4a3af",270,1
"2722",2,1,934,29,1,"1b4a3af",271,1
"2732",2,1,944,27,1,"1b4a3af",272,1
"2742",1,1,834,12,1,"1b4a3af",273,1
"2752",2,1,781,22,1,"1b4a3af",274,1
"2762",2,0,817,1,1,"1b4a3af",275,1
"2772",2,0,1194,4,1,"1b4a3af",276,1
"2782",2,1,832,23,1,"1b4a3af",277,1
"2792",2,1,705,20,1,"1b4a3af",278,1
"2802",2,1,915,32,1,"1b4a3af",279,1
"2813",2,1,1054,28,1,"1b4a3af",280,1
"2822",1,1,979,18,1,"1b4a3af",281,1
"2832",1,1,719,15,1,"1b4a3af",282,1
"2842",2,0,996,10,1,"1b4a3af",283,1
"2852",2,0,889,5,1,"1b4a3af",284,1
"2862",2,1,678,25,1,"1b4a3af",285,1
"2872",1,1,619,8,1,"1b4a3af",286,1
"2882",2,0,825,6,1,"1b4a3af",287,1
"2892",2,1,733,36,1,"1b4a3af",288,1
"294",NA,-1,0,35,1,"16008a6",1,1
"314",NA,-1,0,22,1,"16008a6",2,1
"414",NA,-1,0,23,1,"16008a6",3,1
"514",NA,-1,0,14,1,"16008a6",4,1
"614",NA,-1,0,3,1,"16008a6",5,1
"714",NA,-1,0,9,1,"16008a6",6,1
"814",NA,-1,0,12,1,"16008a6",7,1
"914",NA,-1,0,27,1,"16008a6",8,1
"1014",NA,-1,0,1,1,"16008a6",9,1
"1114",NA,-1,0,30,1,"16008a6",10,1
"1214",NA,-1,0,4,1,"16008a6",11,1
"1314",NA,-1,0,28,1,"16008a6",12,1
"1414",1,0,2188,20,1,"16008a6",13,1
"1514",2,1,1138,21,1,"16008a6",14,1
"1614",2,0,1359,15,1,"16008a6",15,1
"1714",1,1,1108,7,1,"16008a6",16,1
"1814",2,1,827,25,1,"16008a6",17,1
"1914",2,1,897,31,1,"16008a6",18,1
"2014",1,0,1525,36,1,"16008a6",19,1
"2114",2,1,1131,18,1,"16008a6",20,1
"2214",1,1,1161,10,1,"16008a6",21,1
"2314",1,0,1047,32,1,"16008a6",22,1
"2414",1,0,884,24,1,"16008a6",23,1
"2514",1,0,1057,26,1,"16008a6",24,1
"2614",2,1,1071,29,1,"16008a6",25,1
"2714",1,1,1437,8,1,"16008a6",26,1
"2814",1,1,1041,2,1,"16008a6",27,1
"295",2,0,1431,6,1,"16008a6",28,1
"303",2,0,1030,16,1,"16008a6",29,1
"315",2,0,827,17,1,"16008a6",30,1
"323",2,0,687,5,1,"16008a6",31,1
"333",2,1,982,19,1,"16008a6",32,1
"343",1,0,845,33,1,"16008a6",33,1
"353",1,1,1554,13,1,"16008a6",34,1
"363",1,0,1456,34,1,"16008a6",35,1
"373",1,1,1061,11,1,"16008a6",36,1
"383",2,1,1787,35,1,"16008a6",37,1
"393",1,0,928,22,1,"16008a6",38,1
"403",2,1,1421,23,1,"16008a6",39,1
"415",1,1,1298,14,1,"16008a6",40,1
"423",2,0,1640,3,1,"16008a6",41,1
"433",2,0,854,9,1,"16008a6",42,1
"443",1,1,1075,12,1,"16008a6",43,1
"453",1,0,1520,27,1,"16008a6",44,1
"463",2,0,1076,1,1,"16008a6",45,1
"473",1,0,1323,30,1,"16008a6",46,1
"483",2,0,641,4,1,"16008a6",47,1
"493",1,0,988,28,1,"16008a6",48,1
"503",1,0,627,20,1,"16008a6",49,1
"515",2,1,864,21,1,"16008a6",50,1
"523",2,0,1014,15,1,"16008a6",51,1
"533",1,1,1075,7,1,"16008a6",52,1
"543",2,1,1368,25,1,"16008a6",53,1
"553",2,1,1181,31,1,"16008a6",54,1
"563",2,1,1939,36,1,"16008a6",55,1
"573",2,1,1616,18,1,"16008a6",56,1
"583",1,1,1055,10,1,"16008a6",57,1
"593",1,0,1675,32,1,"16008a6",58,1
"603",2,1,1017,24,1,"16008a6",59,1
"615",1,0,1903,26,1,"16008a6",60,1
"623",2,1,843,29,1,"16008a6",61,1
"633",1,1,1856,8,1,"16008a6",62,1
"643",2,0,853,2,1,"16008a6",63,1
"653",1,1,1595,6,1,"16008a6",64,1
"663",2,0,976,16,1,"16008a6",65,1
"673",1,1,997,17,1,"16008a6",66,1
"683",1,1,1691,5,1,"16008a6",67,1
"693",2,1,863,19,1,"16008a6",68,1
"703",1,0,1220,33,1,"16008a6",69,1
"715",1,1,1467,13,1,"16008a6",70,1
"723",1,0,1520,34,1,"16008a6",71,1
"733",1,1,2030,11,1,"16008a6",72,1
"743",2,1,987,20,1,"16008a6",73,1
"753",1,0,1640,35,1,"16008a6",74,1
"763",1,0,853,33,1,"16008a6",75,1
"773",1,1,1754,9,1,"16008a6",76,1
"783",2,0,1431,5,1,"16008a6",77,1
"793",2,1,901,18,1,"16008a6",78,1
"803",1,0,1258,24,1,"16008a6",79,1
"815",1,1,1536,15,1,"16008a6",80,1
"823",1,1,1388,10,1,"16008a6",81,1
"833",2,1,1571,31,1,"16008a6",82,1
"843",2,1,1536,34,1,"16008a6",83,1
"853",1,0,1230,23,1,"16008a6",84,1
"863",1,1,826,6,1,"16008a6",85,1
"873",1,1,1400,13,1,"16008a6",86,1
"883",2,0,1476,14,1,"16008a6",87,1
"893",2,0,1227,17,1,"16008a6",88,1
"903",1,0,1432,22,1,"16008a6",89,1
"915",1,0,1477,32,1,"16008a6",90,1
"923",1,1,1074,2,1,"16008a6",91,1
"933",2,1,1152,36,1,"16008a6",92,1
"943",1,0,765,27,1,"16008a6",93,1
"953",2,0,962,7,1,"16008a6",94,1
"963",1,1,1047,4,1,"16008a6",95,1
"973",2,0,1284,3,1,"16008a6",96,1
"983",2,1,1297,21,1,"16008a6",97,1
"993",2,0,1039,16,1,"16008a6",98,1
"1003",1,0,1053,19,1,"16008a6",99,1
"1015",4,0,1566,29,1,"16008a6",100,1
"1023",2,0,911,11,1,"16008a6",101,1
"1033",2,1,1820,30,1,"16008a6",102,1
"1043",1,0,1491,25,1,"16008a6",103,1
"1053",2,0,1112,1,1,"16008a6",104,1
"1063",2,1,1437,28,1,"16008a6",105,1
"1073",1,1,1106,8,1,"16008a6",106,1
"1083",2,1,871,26,1,"16008a6",107,1
"1093",1,1,1196,12,1,"16008a6",108,1
"1103",1,0,1481,21,1,"16008a6",109,1
"1115",2,0,1120,15,1,"16008a6",110,1
"1123",1,1,1013,7,1,"16008a6",111,1
"1133",2,1,1026,18,1,"16008a6",112,1
"1143",1,0,2471,33,1,"16008a6",113,1
"1153",1,0,931,28,1,"16008a6",114,1
"1163",1,0,1745,35,1,"16008a6",115,1
"1173",2,0,1992,14,1,"16008a6",116,1
"1183",1,0,1476,24,1,"16008a6",117,1
"1193",2,1,858,36,1,"16008a6",118,1
"1203",1,0,958,32,1,"16008a6",119,1
"1215",2,1,1179,30,1,"16008a6",120,1
"1223",1,1,881,9,1,"16008a6",121,1
"1233",2,0,1046,16,1,"16008a6",122,1
"1243",1,0,1133,26,1,"16008a6",123,1
"1253",2,1,473,22,1,"16008a6",124,1
"1263",1,0,1272,29,1,"16008a6",125,1
"1273",1,1,603,8,1,"16008a6",126,1
"1283",1,0,1209,34,1,"16008a6",127,1
"1293",2,1,903,19,1,"16008a6",128,1
"1303",1,1,820,5,1,"16008a6",129,1
"1315",1,0,913,27,1,"16008a6",130,1
"1323",1,1,1206,13,1,"16008a6",131,1
"1333",2,0,1052,1,1,"16008a6",132,1
"1343",1,1,937,3,1,"16008a6",133,1
"1353",2,0,711,17,1,"16008a6",134,1
"1363",2,1,500,31,1,"16008a6",135,1
"1373",1,1,752,4,1,"16008a6",136,1
"1383",2,0,1006,2,1,"16008a6",137,1
"1393",1,0,636,20,1,"16008a6",138,1
"1403",1,1,1384,6,1,"16008a6",139,1
"1415",2,1,966,23,1,"16008a6",140,1
"1423",1,1,861,12,1,"16008a6",141,1
"1433",1,0,1963,25,1,"16008a6",142,1
"1443",1,1,1438,11,1,"16008a6",143,1
"1453",1,1,1397,10,1,"16008a6",144,1
"1463",1,0,643,32,1,"16008a6",145,1
"1473",1,1,1271,14,1,"16008a6",146,1
"1483",2,1,980,34,1,"16008a6",147,1
"1493",2,1,1090,28,1,"16008a6",148,1
"1503",2,1,1095,36,1,"16008a6",149,1
"1515",1,0,820,21,1,"16008a6",150,1
"1523",1,0,914,26,1,"16008a6",151,1
"1533",2,1,791,25,1,"16008a6",152,1
"1543",1,0,612,35,1,"16008a6",153,1
"1553",1,1,609,13,1,"16008a6",154,1
"1563",2,0,708,17,1,"16008a6",155,1
"1573",1,1,554,15,1,"16008a6",156,1
"1583",1,1,1089,4,1,"16008a6",157,1
"1593",1,0,982,19,1,"16008a6",158,1
"1603",1,1,763,2,1,"16008a6",159,1
"1615",1,1,1615,16,1,"16008a6",160,1
"1623",1,1,1022,12,1,"16008a6",161,1
"1633",2,1,987,18,1,"16008a6",162,1
"1643",2,1,816,23,1,"16008a6",163,1
"1653",1,1,815,9,1,"16008a6",164,1
"1663",1,1,1156,6,1,"16008a6",165,1
"1673",2,1,889,31,1,"16008a6",166,1
"1683",1,0,1332,22,1,"16008a6",167,1
"1693",1,1,795,7,1,"16008a6",168,1
"1703",1,1,809,11,1,"16008a6",169,1
"1715",2,0,820,5,1,"16008a6",170,1
"1723",1,1,468,10,1,"16008a6",171,1
"1733",2,0,329,8,1,"16008a6",172,1
"1743",1,0,638,20,1,"16008a6",173,1
"1753",1,0,868,24,1,"16008a6",174,1
"1763",2,1,641,33,1,"16008a6",175,1
"1773",1,0,613,27,1,"16008a6",176,1
"1783",2,1,804,29,1,"16008a6",177,1
"1793",1,1,785,3,1,"16008a6",178,1
"1803",1,0,1094,30,1,"16008a6",179,1
"1815",2,0,1011,1,1,"16008a6",180,1
"1823",1,0,865,33,1,"16008a6",181,1
"1833",1,1,828,7,1,"16008a6",182,1
"1843",2,1,1219,21,1,"16008a6",183,1
"1853",2,0,1088,1,1,"16008a6",184,1
"1863",1,1,740,12,1,"16008a6",185,1
"1873",1,0,1132,26,1,"16008a6",186,1
"1883",2,1,1048,31,1,"16008a6",187,1
"1893",2,1,965,34,1,"16008a6",188,1
"1903",1,1,908,3,1,"16008a6",189,1
"1915",1,1,759,8,1,"16008a6",190,1
"1923",1,1,1244,13,1,"16008a6",191,1
"1933",2,0,1180,17,1,"16008a6",192,1
"1943",2,0,1274,16,1,"16008a6",193,1
"1953",1,0,1062,32,1,"16008a6",194,1
"1963",2,1,828,18,1,"16008a6",195,1
"1973",1,0,888,35,1,"16008a6",196,1
"1983",2,1,742,28,1,"16008a6",197,1
"1993",1,1,940,15,1,"16008a6",198,1
"2003",1,0,1377,25,1,"16008a6",199,1
"2015",2,0,877,2,1,"16008a6",200,1
"2023",1,0,1538,24,1,"16008a6",201,1
"2033",2,0,665,4,1,"16008a6",202,1
"2043",1,0,1206,20,1,"16008a6",203,1
"2053",1,1,507,9,1,"16008a6",204,1
"2063",1,0,1528,36,1,"16008a6",205,1
"2073",1,0,1270,29,1,"16008a6",206,1
"2083",2,0,1251,6,1,"16008a6",207,1
"2093",1,0,592,22,1,"16008a6",208,1
"2103",2,1,854,19,1,"16008a6",209,1
"2115",1,1,971,14,1,"16008a6",210,1
"2123",1,1,1305,11,1,"16008a6",211,1
"2133",2,0,845,5,1,"16008a6",212,1
"2143",2,1,1043,30,1,"16008a6",213,1
"2153",2,1,912,23,1,"16008a6",214,1
"2163",1,0,1101,27,1,"16008a6",215,1
"2173",1,1,1362,10,1,"16008a6",216,1
"2183",1,0,1633,24,1,"16008a6",217,1
"2193",1,1,1399,3,1,"16008a6",218,1
"2203",1,1,1452,12,1,"16008a6",219,1
"2215",2,0,1985,13,1,"16008a6",220,1
"2223",2,1,966,25,1,"16008a6",221,1
"2233",1,1,1098,6,1,"16008a6",222,1
"2243",1,0,1225,27,1,"16008a6",223,1
"2253",2,1,1485,29,1,"16008a6",224,1
"2263",1,1,1642,10,1,"16008a6",225,1
"2273",1,1,1448,2,1,"16008a6",226,1
"2283",1,1,1565,11,1,"16008a6",227,1
"2293",2,1,843,28,1,"16008a6",228,1
"2303",2,1,960,19,1,"16008a6",229,1
"2315",1,1,1061,8,1,"16008a6",230,1
"2323",1,0,1842,20,1,"16008a6",231,1
"2333",2,1,736,31,1,"16008a6",232,1
"2343",2,1,975,18,1,"16008a6",233,1
"2353",1,0,1459,36,1,"16008a6",234,1
"2363",2,0,1008,4,1,"16008a6",235,1
"2373",1,1,1101,15,1,"16008a6",236,1
"2383",2,1,1419,32,1,"16008a6",237,1
"2393",2,0,630,7,1,"16008a6",238,1
"2403",2,1,1380,34,1,"16008a6",239,1
"2415",1,1,946,9,1,"16008a6",240,1
"2423",1,0,815,33,1,"16008a6",241,1
"2433",2,0,940,17,1,"16008a6",242,1
"2443",2,1,985,30,1,"16008a6",243,1
"2453",2,1,655,21,1,"16008a6",244,1
"2463",1,1,916,14,1,"16008a6",245,1
"2473",2,1,1059,35,1,"16008a6",246,1
"2483",2,1,1600,22,1,"16008a6",247,1
"2493",2,0,917,16,1,"16008a6",248,1
"2503",1,1,370,5,1,"16008a6",249,1
"2515",2,1,1119,23,1,"16008a6",250,1
"2523",2,0,1164,1,1,"16008a6",251,1
"2533",1,0,450,26,1,"16008a6",252,1
"2543",1,1,960,5,1,"16008a6",253,1
"2553",1,0,1307,26,1,"16008a6",254,1
"2563",2,1,1104,19,1,"16008a6",255,1
"2573",1,1,871,9,1,"16008a6",256,1
"2583",2,1,1427,36,1,"16008a6",257,1
"2593",1,0,1035,22,1,"16008a6",258,1
"2603",1,1,1200,11,1,"16008a6",259,1
"2615",2,1,981,24,1,"16008a6",260,1
"2623",1,0,1378,33,1,"16008a6",261,1
"2633",2,1,902,35,1,"16008a6",262,1
"2643",1,0,1035,21,1,"16008a6",263,1
"2653",1,1,890,2,1,"16008a6",264,1
"2663",2,1,845,18,1,"16008a6",265,1
"2673",1,0,1131,27,1,"16008a6",266,1
"2683",2,0,778,7,1,"16008a6",267,1
"2693",2,0,1470,17,1,"16008a6",268,1
"2703",1,0,692,32,1,"16008a6",269,1
"2715",2,0,560,15,1,"16008a6",270,1
"2723",2,0,1190,10,1,"16008a6",271,1
"2733",2,0,1403,1,1,"16008a6",272,1
"2743",1,1,1513,8,1,"16008a6",273,1
"2753",2,0,1350,14,1,"16008a6",274,1
"2763",2,1,1732,29,1,"16008a6",275,1
"2773",2,1,1641,30,1,"16008a6",276,1
"2783",1,0,918,34,1,"16008a6",277,1
"2793",2,1,970,23,1,"16008a6",278,1
"2803",2,1,1134,25,1,"16008a6",279,1
"2815",1,0,909,28,1,"16008a6",280,1
"2823",2,0,1578,13,1,"16008a6",281,1
"2833",2,1,1264,31,1,"16008a6",282,1
"2843",2,0,1038,4,1,"16008a6",283,1
"2853",1,1,923,6,1,"16008a6",284,1
"2863",2,1,1000,20,1,"16008a6",285,1
"2873",1,1,1069,12,1,"16008a6",286,1
"2883",2,0,611,3,1,"16008a6",287,1
"2893",1,1,1240,16,1,"16008a6",288,1
"296",1,0,441,36,1,"10c9941",1,1
"316",1,0,388,29,1,"10c9941",2,1
"416",2,1,126,33,1,"10c9941",3,1
"516",1,0,656,20,1,"10c9941",4,1
"616",2,1,354,19,1,"10c9941",5,1
"716",2,1,397,18,1,"10c9941",6,1
"816",2,1,391,25,1,"10c9941",7,1
"916",1,1,345,17,1,"10c9941",8,1
"1016",2,0,865,10,1,"10c9941",9,1
"1116",2,1,940,21,1,"10c9941",10,1
"1216",2,1,822,35,1,"10c9941",11,1
"1316",2,0,503,14,1,"10c9941",12,1
"1416",1,0,711,31,1,"10c9941",13,1
"1516",1,0,682,28,1,"10c9941",14,1
"1616",2,1,836,22,1,"10c9941",15,1
"1716",1,1,630,13,1,"10c9941",16,1
"1816",1,1,374,6,1,"10c9941",17,1
"1916",2,0,417,1,1,"10c9941",18,1
"2016",2,0,589,16,1,"10c9941",19,1
"2116",1,1,526,8,1,"10c9941",20,1
"2216",1,0,983,23,1,"10c9941",21,1
"2316",2,0,585,7,1,"10c9941",22,1
"2416",2,0,1170,3,1,"10c9941",23,1
"2516",2,1,996,26,1,"10c9941",24,1
"2616",1,0,948,30,1,"10c9941",25,1
"2716",1,0,863,24,1,"10c9941",26,1
"2816",1,0,587,34,1,"10c9941",27,1
"297",1,1,885,9,1,"10c9941",28,1
"304",2,0,390,12,1,"10c9941",29,1
"317",2,1,425,27,1,"10c9941",30,1
"324",1,1,516,11,1,"10c9941",31,1
"334",1,0,645,32,1,"10c9941",32,1
"344",1,1,478,5,1,"10c9941",33,1
"354",2,0,776,2,1,"10c9941",34,1
"364",2,0,489,15,1,"10c9941",35,1
"374",2,0,866,4,1,"10c9941",36,1
"384",2,1,1174,36,1,"10c9941",37,1
"394",1,0,822,29,1,"10c9941",38,1
"404",2,1,783,33,1,"10c9941",39,1
"417",1,0,737,20,1,"10c9941",40,1
"424",2,1,434,19,1,"10c9941",41,1
"434",1,1,844,18,1,"10c9941",42,1
"444",1,0,790,25,1,"10c9941",43,1
"454",1,1,913,17,1,"10c9941",44,1
"464",2,0,690,10,1,"10c9941",45,1
"474",1,0,678,21,1,"10c9941",46,1
"484",1,0,895,35,1,"10c9941",47,1
"494",2,0,419,14,1,"10c9941",48,1
"504",1,0,269,31,1,"10c9941",49,1
"517",2,1,255,28,1,"10c9941",50,1
"524",2,1,760,22,1,"10c9941",51,1
"534",2,0,513,13,1,"10c9941",52,1
"544",1,1,1171,6,1,"10c9941",53,1
"554",2,0,1359,1,1,"10c9941",54,1
"564",2,0,783,16,1,"10c9941",55,1
"574",1,1,746,8,1,"10c9941",56,1
"584",2,1,875,23,1,"10c9941",57,1
"594",1,1,605,7,1,"10c9941",58,1
"604",1,1,559,3,1,"10c9941",59,1
"617",1,0,943,26,1,"10c9941",60,1
"624",2,1,1226,30,1,"10c9941",61,1
"634",2,1,755,24,1,"10c9941",62,1
"644",2,1,1164,34,1,"10c9941",63,1
"654",1,1,829,9,1,"10c9941",64,1
"664",1,1,998,12,1,"10c9941",65,1
"674",1,0,1048,27,1,"10c9941",66,1
"684",2,0,530,11,1,"10c9941",67,1
"694",2,1,451,32,1,"10c9941",68,1
"704",1,1,487,5,1,"10c9941",69,1
"717",1,1,497,2,1,"10c9941",70,1
"724",2,0,682,15,1,"10c9941",71,1
"734",1,1,564,4,1,"10c9941",72,1
"744",1,1,1031,3,1,"10c9941",73,1
"754",1,1,816,13,1,"10c9941",74,1
"764",2,1,779,23,1,"10c9941",75,1
"774",1,0,724,36,1,"10c9941",76,1
"784",1,0,934,31,1,"10c9941",77,1
"794",2,1,543,27,1,"10c9941",78,1
"804",2,1,699,34,1,"10c9941",79,1
"817",1,1,604,4,1,"10c9941",80,1
"824",2,0,958,1,1,"10c9941",81,1
"834",1,1,945,10,1,"10c9941",82,1
"844",1,1,482,15,1,"10c9941",83,1
"854",2,1,651,20,1,"10c9941",84,1
"864",1,1,678,8,1,"10c9941",85,1
"874",1,0,392,30,1,"10c9941",86,1
"884",2,1,409,22,1,"10c9941",87,1
"894",2,1,781,28,1,"10c9941",88,1
"904",1,1,517,5,1,"10c9941",89,1
"917",2,1,238,32,1,"10c9941",90,1
"924",1,0,289,21,1,"10c9941",91,1
"934",2,0,356,7,1,"10c9941",92,1
"944",1,0,404,19,1,"10c9941",93,1
"954",1,1,510,14,1,"10c9941",94,1
"964",1,1,938,9,1,"10c9941",95,1
"974",1,1,556,2,1,"10c9941",96,1
"984",2,1,333,26,1,"10c9941",97,1
"994",1,1,696,18,1,"10c9941",98,1
"1004",2,0,619,16,1,"10c9941",99,1
"1017",2,0,434,6,1,"10c9941",100,1
"1024",1,0,405,35,1,"10c9941",101,1
"1034",1,1,783,17,1,"10c9941",102,1
"1044",2,0,480,12,1,"10c9941",103,1
"1054",2,1,491,33,1,"10c9941",104,1
"1064",2,1,476,29,1,"10c9941",105,1
"1074",1,1,637,11,1,"10c9941",106,1
"1084",1,0,832,24,1,"10c9941",107,1
"1094",1,0,680,25,1,"10c9941",108,1
"1104",2,1,730,20,1,"10c9941",109,1
"1117",1,0,796,35,1,"10c9941",110,1
"1124",2,1,614,19,1,"10c9941",111,1
"1134",1,0,576,32,1,"10c9941",112,1
"1144",2,1,329,18,1,"10c9941",113,1
"1154",2,0,491,3,1,"10c9941",114,1
"1164",1,1,436,10,1,"10c9941",115,1
"1174",2,1,613,28,1,"10c9941",116,1
"1184",1,1,632,7,1,"10c9941",117,1
"1194",2,1,697,23,1,"10c9941",118,1
"1204",1,1,691,15,1,"10c9941",119,1
"1217",2,0,924,12,1,"10c9941",120,1
"1224",1,0,934,36,1,"10c9941",121,1
"1234",2,1,695,22,1,"10c9941",122,1
"1244",2,1,603,25,1,"10c9941",123,1
"1254",1,0,645,31,1,"10c9941",124,1
"1264",1,1,716,1,1,"10c9941",125,1
"1274",1,0,718,27,1,"10c9941",126,1
"1284",1,1,794,14,1,"10c9941",127,1
"1294",2,0,946,8,1,"10c9941",128,1
"1304",2,0,915,16,1,"10c9941",129,1
"1317",1,0,847,24,1,"10c9941",130,1
"1324",1,0,504,33,1,"10c9941",131,1
"1334",2,1,714,26,1,"10c9941",132,1
"1344",2,0,700,2,1,"10c9941",133,1
"1354",1,1,630,13,1,"10c9941",134,1
"1364",2,0,751,17,1,"10c9941",135,1
"1374",2,0,618,11,1,"10c9941",136,1
"1384",1,0,540,30,1,"10c9941",137,1
"1394",1,0,574,21,1,"10c9941",138,1
"1404",1,1,679,4,1,"10c9941",139,1
"1417",2,0,888,6,1,"10c9941",140,1
"1424",1,0,786,29,1,"10c9941",141,1
"1434",2,0,819,5,1,"10c9941",142,1
"1444",1,0,629,34,1,"10c9941",143,1
"1454",2,0,760,9,1,"10c9941",144,1
"1464",1,0,802,31,1,"10c9941",145,1
"1474",1,0,579,33,1,"10c9941",146,1
"1484",2,1,245,35,1,"10c9941",147,1
"1494",1,1,558,12,1,"10c9941",148,1
"1504",1,1,921,1,1,"10c9941",149,1
"1517",2,0,659,10,1,"10c9941",150,1
"1524",2,1,556,21,1,"10c9941",151,1
"1534",2,1,823,18,1,"10c9941",152,1
"1544",2,0,970,6,1,"10c9941",153,1
"1554",1,0,787,29,1,"10c9941",154,1
"1564",1,0,660,27,1,"10c9941",155,1
"1574",1,1,654,8,1,"10c9941",156,1
"1584",2,0,857,5,1,"10c9941",157,1
"1594",1,0,849,36,1,"10c9941",158,1
"1604",2,1,890,28,1,"10c9941",159,1
"1617",1,1,749,7,1,"10c9941",160,1
"1624",2,1,895,25,1,"10c9941",161,1
"1634",1,0,1105,22,1,"10c9941",162,1
"1644",1,1,651,4,1,"10c9941",163,1
"1654",2,1,756,23,1,"10c9941",164,1
"1664",2,0,533,11,1,"10c9941",165,1
"1674",1,0,440,20,1,"10c9941",166,1
"1684",2,0,474,2,1,"10c9941",167,1
"1694",1,1,284,17,1,"10c9941",168,1
"1704",1,0,502,24,1,"10c9941",169,1
"1717",2,0,246,9,1,"10c9941",170,1
"1724",1,1,241,16,1,"10c9941",171,1
"1734",1,1,370,13,1,"10c9941",172,1
"1744",1,0,412,34,1,"10c9941",173,1
"1754",2,0,350,3,1,"10c9941",174,1
"1764",2,1,878,32,1,"10c9941",175,1
"1774",1,1,881,15,1,"10c9941",176,1
"1784",2,1,785,26,1,"10c9941",177,1
"1794",1,0,788,19,1,"10c9941",178,1
"1804",1,0,566,30,1,"10c9941",179,1
"1817",2,0,218,14,1,"10c9941",180,1
"1824",1,0,635,36,1,"10c9941",181,1
"1834",1,1,805,17,1,"10c9941",182,1
"1844",2,0,949,16,1,"10c9941",183,1
"1854",2,0,975,5,1,"10c9941",184,1
"1864",2,0,880,6,1,"10c9941",185,1
"1874",1,0,763,34,1,"10c9941",186,1
"1884",2,0,693,11,1,"10c9941",187,1
"1894",1,0,510,29,1,"10c9941",188,1
"1904",2,0,647,12,1,"10c9941",189,1
"1917",2,1,417,27,1,"10c9941",190,1
"1924",2,1,515,33,1,"10c9941",191,1
"1934",1,1,454,2,1,"10c9941",192,1
"1944",1,1,455,1,1,"10c9941",193,1
"1954",2,0,769,8,1,"10c9941",194,1
"1964",1,1,692,13,1,"10c9941",195,1
"1974",2,1,709,18,1,"10c9941",196,1
"1984",2,1,926,25,1,"10c9941",197,1
"1994",1,1,742,14,1,"10c9941",198,1
"2004",1,1,760,3,1,"10c9941",199,1
"2017",2,1,620,23,1,"10c9941",200,1
"2024",1,1,701,10,1,"10c9941",201,1
"2034",1,0,895,32,1,"10c9941",202,1
"2044",1,0,1056,30,1,"10c9941",203,1
"2054",1,0,760,24,1,"10c9941",204,1
"2064",1,0,564,31,1,"10c9941",205,1
"2074",2,1,974,26,1,"10c9941",206,1
"2084",2,1,687,35,1,"10c9941",207,1
"2094",1,0,633,22,1,"10c9941",208,1
"2104",2,1,620,19,1,"10c9941",209,1
"2117",1,0,725,28,1,"10c9941",210,1
"2124",2,0,566,4,1,"10c9941",211,1
"2134",1,0,496,21,1,"10c9941",212,1
"2144",1,1,546,9,1,"10c9941",213,1
"2154",1,0,444,20,1,"10c9941",214,1
"2164",2,0,253,7,1,"10c9941",215,1
"2174",1,1,558,15,1,"10c9941",216,1
"2184",1,1,745,3,1,"10c9941",217,1
"2194",1,0,443,29,1,"10c9941",218,1
"2204",2,1,374,18,1,"10c9941",219,1
"2217",1,0,591,24,1,"10c9941",220,1
"2224",1,1,481,5,1,"10c9941",221,1
"2234",1,0,705,25,1,"10c9941",222,1
"2244",2,0,595,1,1,"10c9941",223,1
"2254",1,1,724,14,1,"10c9941",224,1
"2264",2,0,638,17,1,"10c9941",225,1
"2274",1,0,456,31,1,"10c9941",226,1
"2284",2,1,907,26,1,"10c9941",227,1
"2294",1,0,596,36,1,"10c9941",228,1
"2304",2,1,333,35,1,"10c9941",229,1
"2317",1,0,647,20,1,"10c9941",230,1
"2324",1,0,905,22,1,"10c9941",231,1
"2334",2,1,682,21,1,"10c9941",232,1
"2344",1,0,908,34,1,"10c9941",233,1
"2354",1,1,646,13,1,"10c9941",234,1
"2364",2,1,689,28,1,"10c9941",235,1
"2374",1,1,618,9,1,"10c9941",236,1
"2384",2,0,1092,11,1,"10c9941",237,1
"2394",1,0,448,30,1,"10c9941",238,1
"2404",1,1,488,2,1,"10c9941",239,1
"2417",1,1,548,12,1,"10c9941",240,1
"2424",2,0,605,15,1,"10c9941",241,1
"2434",1,0,519,27,1,"10c9941",242,1
"2444",1,1,576,10,1,"10c9941",243,1
"2454",1,0,530,19,1,"10c9941",244,1
"2464",1,1,531,4,1,"10c9941",245,1
"2474",1,0,605,23,1,"10c9941",246,1
"2484",1,0,537,33,1,"10c9941",247,1
"2494",2,0,578,8,1,"10c9941",248,1
"2504",1,1,580,6,1,"10c9941",249,1
"2517",1,0,902,32,1,"10c9941",250,1
"2524",2,0,760,16,1,"10c9941",251,1
"2534",1,1,642,7,1,"10c9941",252,1
"2544",1,0,476,36,1,"10c9941",253,1
"2554",1,1,526,4,1,"10c9941",254,1
"2564",2,1,719,35,1,"10c9941",255,1
"2574",2,0,682,6,1,"10c9941",256,1
"2584",2,1,987,21,1,"10c9941",257,1
"2594",2,0,540,7,1,"10c9941",258,1
"2604",2,0,742,16,1,"10c9941",259,1
"2617",2,1,714,22,1,"10c9941",260,1
"2624",2,0,756,11,1,"10c9941",261,1
"2634",1,1,398,2,1,"10c9941",262,1
"2644",2,1,687,26,1,"10c9941",263,1
"2654",1,0,553,20,1,"10c9941",264,1
"2664",2,1,373,24,1,"10c9941",265,1
"2674",1,1,494,18,1,"10c9941",266,1
"2684",1,1,615,9,1,"10c9941",267,1
"2694",2,0,360,15,1,"10c9941",268,1
"2704",1,1,468,14,1,"10c9941",269,1
"2717",2,1,653,27,1,"10c9941",270,1
"2724",1,1,686,8,1,"10c9941",271,1
"2734",2,1,761,23,1,"10c9941",272,1
"2744",1,0,610,31,1,"10c9941",273,1
"2754",2,0,596,1,1,"10c9941",274,1
"2764",2,1,510,32,1,"10c9941",275,1
"2774",1,0,546,25,1,"10c9941",276,1
"2784",2,0,467,13,1,"10c9941",277,1
"2794",2,0,340,3,1,"10c9941",278,1
"2804",1,0,375,19,1,"10c9941",279,1
"2817",1,0,370,33,1,"10c9941",280,1
"2824",2,0,563,5,1,"10c9941",281,1
"2834",2,0,717,12,1,"10c9941",282,1
"2844",1,0,630,34,1,"10c9941",283,1
"2854",1,0,631,28,1,"10c9941",284,1
"2864",1,0,586,30,1,"10c9941",285,1
"2874",2,0,701,17,1,"10c9941",286,1
"2884",1,1,583,10,1,"10c9941",287,1
"2894",1,0,584,29,1,"10c9941",288,1
"298",1,1,758,13,1,"15fd473",1,1
"318",1,0,596,31,1,"15fd473",2,1
"418",1,0,689,24,1,"15fd473",3,1
"518",2,1,815,26,1,"15fd473",4,1
"618",2,1,1564,32,1,"15fd473",5,1
"718",2,0,959,14,1,"15fd473",6,1
"818",1,0,846,21,1,"15fd473",7,1
"918",1,0,746,25,1,"15fd473",8,1
"1018",2,1,525,27,1,"15fd473",9,1
"1118",2,0,851,2,1,"15fd473",10,1
"1218",2,0,515,10,1,"15fd473",11,1
"1318",1,1,541,4,1,"15fd473",12,1
"1418",2,1,605,36,1,"15fd473",13,1
"1518",2,0,591,3,1,"15fd473",14,1
"1618",2,0,409,6,1,"15fd473",15,1
"1718",2,1,637,19,1,"15fd473",16,1
"1818",1,0,1867,34,1,"15fd473",17,1
"1918",1,1,474,9,1,"15fd473",18,1
"2018",2,0,423,16,1,"15fd473",19,1
"2118",1,1,605,5,1,"15fd473",20,1
"2218",1,1,469,12,1,"15fd473",21,1
"2318",1,0,414,23,1,"15fd473",22,1
"2418",2,1,692,30,1,"15fd473",23,1
"2518",1,0,1440,22,1,"15fd473",24,1
"2618",1,0,589,20,1,"15fd473",25,1
"2718",2,1,773,35,1,"15fd473",26,1
"2818",2,0,463,7,1,"15fd473",27,1
"299",1,1,653,18,1,"15fd473",28,1
"305",2,0,475,15,1,"15fd473",29,1
"319",1,0,1503,29,1,"15fd473",30,1
"325",2,0,453,17,1,"15fd473",31,1
"335",1,1,1208,8,1,"15fd473",32,1
"345",2,1,680,28,1,"15fd473",33,1
"355",1,1,762,1,1,"15fd473",34,1
"365",2,0,1143,11,1,"15fd473",35,1
"375",2,1,752,33,1,"15fd473",36,1
"385",1,1,842,13,1,"15fd473",37,1
"395",1,0,822,31,1,"15fd473",38,1
"405",1,0,2163,24,1,"15fd473",39,1
"419",2,1,1610,26,1,"15fd473",40,1
"425",2,1,1253,32,1,"15fd473",41,1
"435",2,0,1070,14,1,"15fd473",42,1
"445",1,0,1628,21,1,"15fd473",43,1
"455",1,0,904,25,1,"15fd473",44,1
"465",2,1,763,27,1,"15fd473",45,1
"475",2,0,647,2,1,"15fd473",46,1
"485",1,1,617,10,1,"15fd473",47,1
"495",1,1,720,4,1,"15fd473",48,1
"505",2,1,784,36,1,"15fd473",49,1
"519",NA,-1,0,3,1,"15fd473",50,1
"525",1,1,2368,6,1,"15fd473",51,1
"535",2,1,468,19,1,"15fd473",52,1
"545",2,1,484,34,1,"15fd473",53,1
"555",1,1,1108,9,1,"15fd473",54,1
"565",2,0,680,16,1,"15fd473",55,1
"575",1,1,519,5,1,"15fd473",56,1
"585",1,1,423,12,1,"15fd473",57,1
"595",1,0,442,23,1,"15fd473",58,1
"605",2,1,683,30,1,"15fd473",59,1
"619",2,1,564,22,1,"15fd473",60,1
"625",2,1,977,20,1,"15fd473",61,1
"635",2,1,696,35,1,"15fd473",62,1
"645",2,0,538,7,1,"15fd473",63,1
"655",1,1,436,18,1,"15fd473",64,1
"665",2,0,547,15,1,"15fd473",65,1
"675",2,1,709,29,1,"15fd473",66,1
"685",2,0,513,17,1,"15fd473",67,1
"695",1,1,591,8,1,"15fd473",68,1
"705",2,1,493,28,1,"15fd473",69,1
"719",2,0,762,1,1,"15fd473",70,1
"725",1,1,518,11,1,"15fd473",71,1
"735",2,1,580,33,1,"15fd473",72,1
"745",2,0,568,16,1,"15fd473",73,1
"755",1,1,889,10,1,"15fd473",74,1
"765",1,1,1313,13,1,"15fd473",75,1
"775",1,1,756,1,1,"15fd473",76,1
"785",2,0,1153,3,1,"15fd473",77,1
"795",1,1,826,18,1,"15fd473",78,1
"805",2,1,605,26,1,"15fd473",79,1
"819",1,0,1169,31,1,"15fd473",80,1
"825",2,0,1063,17,1,"15fd473",81,1
"835",1,0,607,29,1,"15fd473",82,1
"845",1,0,723,22,1,"15fd473",83,1
"855",2,0,654,6,1,"15fd473",84,1
"865",1,1,572,9,1,"15fd473",85,1
"875",2,1,574,36,1,"15fd473",86,1
"885",1,0,680,20,1,"15fd473",87,1
"895",1,0,737,32,1,"15fd473",88,1
"905",2,0,449,15,1,"15fd473",89,1
"919",2,1,767,35,1,"15fd473",90,1
"925",1,0,534,27,1,"15fd473",91,1
"935",2,0,749,7,1,"15fd473",92,1
"945",1,1,748,11,1,"15fd473",93,1
"955",1,1,522,8,1,"15fd473",94,1
"965",1,0,495,24,1,"15fd473",95,1
"975",2,1,443,33,1,"15fd473",96,1
"985",2,1,512,19,1,"15fd473",97,1
"995",1,1,176,5,1,"15fd473",98,1
"1005",2,1,752,28,1,"15fd473",99,1
"1019",1,0,826,30,1,"15fd473",100,1
"1025",2,0,563,14,1,"15fd473",101,1
"1035",1,0,1039,23,1,"15fd473",102,1
"1045",2,1,1456,34,1,"15fd473",103,1
"1055",1,1,1271,4,1,"15fd473",104,1
"1065",2,1,793,25,1,"15fd473",105,1
"1075",1,1,1213,2,1,"15fd473",106,1
"1085",1,1,914,12,1,"15fd473",107,1
"1095",1,0,668,21,1,"15fd473",108,1
"1105",1,1,924,18,1,"15fd473",109,1
"1119",2,1,545,31,1,"15fd473",110,1
"1125",1,1,592,4,1,"15fd473",111,1
"1135",2,0,435,17,1,"15fd473",112,1
"1145",1,1,482,11,1,"15fd473",113,1
"1155",1,0,361,22,1,"15fd473",114,1
"1165",1,1,842,8,1,"15fd473",115,1
"1175",2,0,910,15,1,"15fd473",116,1
"1185",1,1,480,2,1,"15fd473",117,1
"1195",2,1,469,36,1,"15fd473",118,1
"1205",1,0,618,32,1,"15fd473",119,1
"1219",2,0,647,7,1,"15fd473",120,1
"1225",1,0,782,30,1,"15fd473",121,1
"1235",2,1,488,34,1,"15fd473",122,1
"1245",1,1,1072,13,1,"15fd473",123,1
"1255",2,0,627,3,1,"15fd473",124,1
"1265",2,1,505,35,1,"15fd473",125,1
"1275",1,1,1819,9,1,"15fd473",126,1
"1285",1,0,2402,19,1,"15fd473",127,1
"1295",1,0,918,24,1,"15fd473",128,1
"1305",1,0,913,23,1,"15fd473",129,1
"1319",2,0,650,10,1,"15fd473",130,1
"1325",1,1,626,5,1,"15fd473",131,1
"1335",2,1,754,27,1,"15fd473",132,1
"1345",1,1,459,1,1,"15fd473",133,1
"1355",1,0,455,25,1,"15fd473",134,1
"1365",2,1,675,28,1,"15fd473",135,1
"1375",2,0,496,6,1,"15fd473",136,1
"1385",2,0,457,16,1,"15fd473",137,1
"1395",1,0,748,29,1,"15fd473",138,1
"1405",2,1,521,26,1,"15fd473",139,1
"1419",2,1,561,33,1,"15fd473",140,1
"1425",2,0,495,14,1,"15fd473",141,1
"1435",1,1,1542,12,1,"15fd473",142,1
"1445",NA,-1,0,20,1,"15fd473",143,1
"1455",1,0,499,21,1,"15fd473",144,1
"1465",1,0,477,32,1,"15fd473",145,1
"1475",2,1,755,28,1,"15fd473",146,1
"1485",2,1,1135,25,1,"15fd473",147,1
"1495",2,0,925,17,1,"15fd473",148,1
"1505",2,0,1037,1,1,"15fd473",149,1
"1519",1,1,721,12,1,"15fd473",150,1
"1525",2,1,952,23,1,"15fd473",151,1
"1535",1,1,810,6,1,"15fd473",152,1
"1545",2,1,1986,29,1,"15fd473",153,1
"1555",2,1,1253,22,1,"15fd473",154,1
"1565",1,0,807,34,1,"15fd473",155,1
"1575",1,1,1180,7,1,"15fd473",156,1
"1585",2,1,1359,30,1,"15fd473",157,1
"1595",2,1,815,18,1,"15fd473",158,1
"1605",1,1,1787,8,1,"15fd473",159,1
"1619",2,0,741,3,1,"15fd473",160,1
"1625",1,0,697,36,1,"15fd473",161,1
"1635",2,0,848,16,1,"15fd473",162,1
"1645",2,1,663,35,1,"15fd473",163,1
"1655",1,0,853,19,1,"15fd473",164,1
"1665",1,1,1038,4,1,"15fd473",165,1
"1675",2,0,709,13,1,"15fd473",166,1
"1685",1,0,751,27,1,"15fd473",167,1
"1695",1,0,697,24,1,"15fd473",168,1
"1705",1,1,730,9,1,"15fd473",169,1
"1719",1,0,556,20,1,"15fd473",170,1
"1725",1,0,467,21,1,"15fd473",171,1
"1735",2,1,561,26,1,"15fd473",172,1
"1745",1,1,882,15,1,"15fd473",173,1
"1755",1,1,2174,11,1,"15fd473",174,1
"1765",1,1,702,14,1,"15fd473",175,1
"1775",2,0,856,10,1,"15fd473",176,1
"1785",1,1,694,5,1,"15fd473",177,1
"1795",1,1,835,2,1,"15fd473",178,1
"1805",2,1,532,33,1,"15fd473",179,1
"1819",1,0,598,31,1,"15fd473",180,1
"1825",2,1,573,29,1,"15fd473",181,1
"1835",2,0,651,14,1,"15fd473",182,1
"1845",1,1,1436,18,1,"15fd473",183,1
"1855",2,0,725,15,1,"15fd473",184,1
"1865",1,1,428,8,1,"15fd473",185,1
"1875",1,1,577,11,1,"15fd473",186,1
"1885",2,1,437,26,1,"15fd473",187,1
"1895",1,0,513,21,1,"15fd473",188,1
"1905",2,0,474,1,1,"15fd473",189,1
"1919",2,1,877,35,1,"15fd473",190,1
"1925",2,0,863,17,1,"15fd473",191,1
"1935",1,1,818,10,1,"15fd473",192,1
"1945",2,1,724,33,1,"15fd473",193,1
"1955",2,0,485,3,1,"15fd473",194,1
"1965",1,1,513,4,1,"15fd473",195,1
"1975",2,0,641,6,1,"15fd473",196,1
"1985",1,0,1034,25,1,"15fd473",197,1
"1995",2,0,1817,16,1,"15fd473",198,1
"2005",1,1,746,12,1,"15fd473",199,1
"2019",2,1,1321,28,1,"15fd473",200,1
"2025",1,0,1445,30,1,"15fd473",201,1
"2035",1,0,968,31,1,"15fd473",202,1
"2045",2,1,1111,32,1,"15fd473",203,1
"2055",2,1,797,34,1,"15fd473",204,1
"2065",1,1,806,9,1,"15fd473",205,1
"2075",2,1,899,19,1,"15fd473",206,1
"2085",1,0,456,20,1,"15fd473",207,1
"2095",2,1,588,36,1,"15fd473",208,1
"2105",2,0,575,7,1,"15fd473",209,1
"2119",1,0,582,23,1,"15fd473",210,1
"2125",1,1,413,5,1,"15fd473",211,1
"2135",2,1,924,22,1,"15fd473",212,1
"2145",1,1,360,2,1,"15fd473",213,1
"2155",2,0,531,13,1,"15fd473",214,1
"2165",1,0,478,24,1,"15fd473",215,1
"2175",2,1,490,27,1,"15fd473",216,1
"2185",1,1,523,1,1,"15fd473",217,1
"2195",1,0,474,32,1,"15fd473",218,1
"2205",2,1,422,26,1,"15fd473",219,1
"2219",1,1,565,7,1,"15fd473",220,1
"2225",1,1,522,12,1,"15fd473",221,1
"2235",2,1,615,35,1,"15fd473",222,1
"2245",1,0,566,21,1,"15fd473",223,1
"2255",2,0,535,15,1,"15fd473",224,1
"2265",1,1,741,16,1,"15fd473",225,1
"2275",1,0,827,30,1,"15fd473",226,1
"2285",2,0,570,5,1,"15fd473",227,1
"2295",2,1,825,33,1,"15fd473",228,1
"2305",1,1,652,4,1,"15fd473",229,1
"2319",2,1,555,34,1,"15fd473",230,1
"2325",1,0,1110,23,1,"15fd473",231,1
"2335",2,0,536,13,1,"15fd473",232,1
"2345",1,1,611,18,1,"15fd473",233,1
"2355",1,0,432,25,1,"15fd473",234,1
"2365",1,0,675,31,1,"15fd473",235,1
"2375",2,1,885,27,1,"15fd473",236,1
"2385",2,0,674,9,1,"15fd473",237,1
"2395",2,0,765,10,1,"15fd473",238,1
"2405",1,0,426,19,1,"15fd473",239,1
"2419",2,0,567,17,1,"15fd473",240,1
"2425",2,1,824,22,1,"15fd473",241,1
"2435",2,1,772,28,1,"15fd473",242,1
"2445",1,0,629,24,1,"15fd473",243,1
"2455",2,1,767,29,1,"15fd473",244,1
"2465",1,1,1612,6,1,"15fd473",245,1
"2475",1,1,507,8,1,"15fd473",246,1
"2485",1,0,708,20,1,"15fd473",247,1
"2495",2,1,567,36,1,"15fd473",248,1
"2505",2,0,912,11,1,"15fd473",249,1
"2519",1,1,1394,3,1,"15fd473",250,1
"2525",1,1,508,14,1,"15fd473",251,1
"2535",1,1,937,2,1,"15fd473",252,1
"2545",2,1,1381,22,1,"15fd473",253,1
"2555",2,0,856,3,1,"15fd473",254,1
"2565",1,1,639,5,1,"15fd473",255,1
"2575",1,0,534,30,1,"15fd473",256,1
"2585",1,0,788,25,1,"15fd473",257,1
"2595",2,0,519,15,1,"15fd473",258,1
"2605",1,1,493,18,1,"15fd473",259,1
"2619",2,0,804,9,1,"15fd473",260,1
"2625",1,0,484,27,1,"15fd473",261,1
"2635",1,0,999,23,1,"15fd473",262,1
"2645",2,0,623,2,1,"15fd473",263,1
"2655",2,1,592,35,1,"15fd473",264,1
"2665",2,0,568,17,1,"15fd473",265,1
"2675",1,0,724,20,1,"15fd473",266,1
"2685",1,0,789,36,1,"15fd473",267,1
"2695",1,0,578,32,1,"15fd473",268,1
"2705",2,1,820,28,1,"15fd473",269,1
"2719",2,0,549,10,1,"15fd473",270,1
"2725",1,1,667,13,1,"15fd473",271,1
"2735",2,0,660,16,1,"15fd473",272,1
"2745",2,0,1042,14,1,"15fd473",273,1
"2755",1,0,535,19,1,"15fd473",274,1
"2765",2,1,554,34,1,"15fd473",275,1
"2775",1,1,841,7,1,"15fd473",276,1
"2785",1,1,712,4,1,"15fd473",277,1
"2795",2,1,592,29,1,"15fd473",278,1
"2805",1,1,722,11,1,"15fd473",279,1
"2819",1,0,2409,21,1,"15fd473",280,1
"2825",2,0,559,1,1,"15fd473",281,1
"2835",2,1,691,26,1,"15fd473",282,1
"2845",2,1,586,33,1,"15fd473",283,1
"2855",1,1,735,12,1,"15fd473",284,1
"2865",2,0,766,6,1,"15fd473",285,1
"2875",1,1,815,8,1,"15fd473",286,1
"2885",1,0,657,31,1,"15fd473",287,1
"2895",1,0,788,24,1,"15fd473",288,1
"2100",1,0,876,28,1,"1883668",1,1
"320",1,1,940,4,1,"1883668",2,1
"420",2,1,812,26,1,"1883668",3,1
"520",1,0,506,29,1,"1883668",4,1
"620",2,0,930,17,1,"1883668",5,1
"720",1,1,908,8,1,"1883668",6,1
"820",1,0,626,24,1,"1883668",7,1
"920",2,0,1029,10,1,"1883668",8,1
"1020",1,0,458,32,1,"1883668",9,1
"1120",1,0,251,30,1,"1883668",10,1
"1220",2,1,254,36,1,"1883668",11,1
"1320",1,1,493,11,1,"1883668",12,1
"1420",1,1,273,16,1,"1883668",13,1
"1520",1,1,303,12,1,"1883668",14,1
"1620",1,0,283,27,1,"1883668",15,1
"1720",1,1,324,5,1,"1883668",16,1
"1820",2,0,289,15,1,"1883668",17,1
"1920",2,1,826,23,1,"1883668",18,1
"2020",2,1,512,19,1,"1883668",19,1
"2120",1,1,317,14,1,"1883668",20,1
"2220",1,1,302,6,1,"1883668",21,1
"2320",1,1,327,13,1,"1883668",22,1
"2420",2,1,497,20,1,"1883668",23,1
"2520",2,0,304,1,1,"1883668",24,1
"2620",2,0,243,7,1,"1883668",25,1
"2720",1,1,238,3,1,"1883668",26,1
"2820",2,1,719,21,1,"1883668",27,1
"2910",1,0,290,34,1,"1883668",28,1
"306",1,0,549,35,1,"1883668",29,1
"3110",2,1,110,31,1,"1883668",30,1
"326",1,1,280,2,1,"1883668",31,1
"336",2,1,275,18,1,"1883668",32,1
"346",1,1,323,9,1,"1883668",33,1
"356",2,1,343,25,1,"1883668",34,1
"366",1,0,284,33,1,"1883668",35,1
"376",1,0,429,22,1,"1883668",36,1
"386",2,1,777,28,1,"1883668",37,1
"396",1,1,329,4,1,"1883668",38,1
"406",2,1,348,26,1,"1883668",39,1
"4110",1,0,282,29,1,"1883668",40,1
"426",2,0,255,17,1,"1883668",41,1
"436",2,0,221,8,1,"1883668",42,1
"446",1,0,208,24,1,"1883668",43,1
"456",2,0,239,10,1,"1883668",44,1
"466",2,1,245,32,1,"1883668",45,1
"476",1,0,430,30,1,"1883668",46,1
"486",1,0,689,36,1,"1883668",47,1
"496",2,0,1103,11,1,"1883668",48,1
"506",2,0,902,16,1,"1883668",49,1
"5110",1,1,728,12,1,"1883668",50,1
"526",2,1,906,27,1,"1883668",51,1
"536",1,1,647,5,1,"1883668",52,1
"546",2,0,739,15,1,"1883668",53,1
"556",1,0,643,23,1,"1883668",54,1
"566",2,1,745,19,1,"1883668",55,1
"576",1,1,274,14,1,"1883668",56,1
"586",2,0,400,6,1,"1883668",57,1
"596",1,1,271,13,1,"1883668",58,1
"606",2,1,282,20,1,"1883668",59,1
"6110",1,1,342,1,1,"1883668",60,1
"626",2,0,102,7,1,"1883668",61,1
"636",1,1,343,3,1,"1883668",62,1
"646",1,0,356,21,1,"1883668",63,1
"656",2,1,466,34,1,"1883668",64,1
"666",1,0,304,35,1,"1883668",65,1
"676",2,1,542,31,1,"1883668",66,1
"686",1,1,336,2,1,"1883668",67,1
"696",1,1,384,18,1,"1883668",68,1
"706",2,0,618,9,1,"1883668",69,1
"7110",1,0,624,25,1,"1883668",70,1
"726",1,0,487,33,1,"1883668",71,1
"736",1,0,147,22,1,"1883668",72,1
"746",1,1,259,4,1,"1883668",73,1
"756",2,0,497,8,1,"1883668",74,1
"766",1,0,303,19,1,"1883668",75,1
"776",2,0,527,7,1,"1883668",76,1
"786",1,0,565,33,1,"1883668",77,1
"796",1,1,239,12,1,"1883668",78,1
"806",2,0,242,16,1,"1883668",79,1
"8110",1,1,391,3,1,"1883668",80,1
"826",2,0,241,10,1,"1883668",81,1
"836",2,1,256,22,1,"1883668",82,1
"846",2,0,259,2,1,"1883668",83,1
"856",2,0,494,14,1,"1883668",84,1
"866",1,0,795,21,1,"1883668",85,1
"876",2,0,1075,5,1,"1883668",86,1
"886",1,0,359,28,1,"1883668",87,1
"896",2,0,100,17,1,"1883668",88,1
"906",2,1,472,23,1,"1883668",89,1
"9110",1,1,654,13,1,"1883668",90,1
"926",2,1,336,27,1,"1883668",91,1
"936",2,1,259,34,1,"1883668",92,1
"946",1,1,330,18,1,"1883668",93,1
"956",2,1,728,26,1,"1883668",94,1
"966",2,0,782,11,1,"1883668",95,1
"976",1,0,215,35,1,"1883668",96,1
"986",1,0,286,24,1,"1883668",97,1
"996",2,1,1612,32,1,"1883668",98,1
"1006",NA,-1,0,1,1,"1883668",99,1
"10110",1,0,167,29,1,"1883668",100,1
"1026",2,1,189,36,1,"1883668",101,1
"1036",1,1,274,15,1,"1883668",102,1
"1046",2,1,430,30,1,"1883668",103,1
"1056",2,1,245,31,1,"1883668",104,1
"1066",1,1,451,9,1,"1883668",105,1
"1076",1,0,275,20,1,"1883668",106,1
"1086",1,1,433,6,1,"1883668",107,1
"1096",2,1,415,25,1,"1883668",108,1
"1106",1,1,245,15,1,"1883668",109,1
"11110",2,1,315,22,1,"1883668",110,1
"1126",1,0,269,33,1,"1883668",111,1
"1136",1,1,527,13,1,"1883668",112,1
"1146",2,1,311,27,1,"1883668",113,1
"1156",1,1,473,1,1,"1883668",114,1
"1166",2,0,299,2,1,"1883668",115,1
"1176",2,0,261,14,1,"1883668",116,1
"1186",1,1,452,8,1,"1883668",117,1
"1196",2,0,445,6,1,"1883668",118,1
"1206",2,1,372,28,1,"1883668",119,1
"12110",2,0,642,12,1,"1883668",120,1
"1226",2,1,692,32,1,"1883668",121,1
"1236",1,1,406,16,1,"1883668",122,1
"1246",2,1,137,35,1,"1883668",123,1
"1256",1,1,316,3,1,"1883668",124,1
"1266",2,1,950,36,1,"1883668",125,1
"1276",1,0,263,23,1,"1883668",126,1
"1286",2,1,269,29,1,"1883668",127,1
"1296",1,1,364,4,1,"1883668",128,1
"1306",2,1,765,31,1,"1883668",129,1
"13110",1,0,935,24,1,"1883668",130,1
"1326",2,1,884,34,1,"1883668",131,1
"1336",1,0,738,26,1,"1883668",132,1
"1346",1,0,810,20,1,"1883668",133,1
"1356",1,1,462,7,1,"1883668",134,1
"1366",1,0,664,21,1,"1883668",135,1
"1376",2,1,734,25,1,"1883668",136,1
"1386",2,1,834,30,1,"1883668",137,1
"1396",1,1,650,9,1,"1883668",138,1
"1406",2,1,277,18,1,"1883668",139,1
"14110",1,0,292,19,1,"1883668",140,1
"1426",2,0,336,11,1,"1883668",141,1
"1436",1,1,804,10,1,"1883668",142,1
"1446",2,0,565,5,1,"1883668",143,1
"1456",1,1,758,17,1,"1883668",144,1
"1466",2,0,961,17,1,"1883668",145,1
"1476",1,1,460,1,1,"1883668",146,1
"1486",2,0,311,14,1,"1883668",147,1
"1496",1,0,260,27,1,"1883668",148,1
"1506",2,1,769,18,1,"1883668",149,1
"15110",1,1,431,4,1,"1883668",150,1
"1526",2,0,524,12,1,"1883668",151,1
"1536",1,0,581,36,1,"1883668",152,1
"1546",2,1,300,31,1,"1883668",153,1
"1556",1,0,602,25,1,"1883668",154,1
"1566",2,0,552,15,1,"1883668",155,1
"1576",1,1,559,10,1,"1883668",156,1
"1586",1,0,277,26,1,"1883668",157,1
"1596",2,1,456,29,1,"1883668",158,1
"1606",1,0,171,21,1,"1883668",159,1
"16110",2,0,361,11,1,"1883668",160,1
"1626",2,1,258,19,1,"1883668",161,1
"1636",1,1,353,13,1,"1883668",162,1
"1646",1,0,490,20,1,"1883668",163,1
"1656",1,0,404,34,1,"1883668",164,1
"1666",2,1,442,30,1,"1883668",165,1
"1676",1,1,296,7,1,"1883668",166,1
"1686",1,1,299,16,1,"1883668",167,1
"1696",1,0,300,32,1,"1883668",168,1
"1706",2,0,315,8,1,"1883668",169,1
"17110",2,1,427,23,1,"1883668",170,1
"1726",1,0,301,24,1,"1883668",171,1
"1736",2,0,471,9,1,"1883668",172,1
"1746",2,0,283,3,1,"1883668",173,1
"1756",2,1,245,35,1,"1883668",174,1
"1766",1,1,377,5,1,"1883668",175,1
"1776",2,1,284,33,1,"1883668",176,1
"1786",2,1,806,28,1,"1883668",177,1
"1796",1,1,833,2,1,"1883668",178,1
"1806",1,0,750,22,1,"1883668",179,1
"18110",1,1,1196,6,1,"1883668",180,1
"1826",2,1,495,33,1,"1883668",181,1
"1836",1,1,333,4,1,"1883668",182,1
"1846",1,1,583,7,1,"1883668",183,1
"1856",2,0,266,13,1,"1883668",184,1
"1866",2,1,267,32,1,"1883668",185,1
"1876",1,1,250,11,1,"1883668",186,1
"1886",2,1,423,22,1,"1883668",187,1
"1896",1,1,237,9,1,"1883668",188,1
"1906",2,1,686,28,1,"1883668",189,1
"19110",1,0,568,20,1,"1883668",190,1
"1926",2,1,183,21,1,"1883668",191,1
"1936",1,1,439,2,1,"1883668",192,1
"1946",2,0,575,12,1,"1883668",193,1
"1956",1,0,871,27,1,"1883668",194,1
"1966",2,0,959,16,1,"1883668",195,1
"1976",1,0,685,19,1,"1883668",196,1
"1986",1,0,259,23,1,"1883668",197,1
"1996",1,1,575,6,1,"1883668",198,1
"2006",2,1,411,26,1,"1883668",199,1
"20110",2,0,407,17,1,"1883668",200,1
"2026",1,0,298,25,1,"1883668",201,1
"2036",1,1,388,10,1,"1883668",202,1
"2046",1,0,531,30,1,"1883668",203,1
"2056",2,1,593,34,1,"1883668",204,1
"2066",1,1,402,3,1,"1883668",205,1
"2076",1,1,306,1,1,"1883668",206,1
"2086",1,1,276,5,1,"1883668",207,1
"2096",2,1,283,35,1,"1883668",208,1
"2106",2,1,344,29,1,"1883668",209,1
"21110",2,1,273,31,1,"1883668",210,1
"2126",2,1,659,18,1,"1883668",211,1
"2136",1,1,245,15,1,"1883668",212,1
"2146",2,1,494,24,1,"1883668",213,1
"2156",1,1,474,14,1,"1883668",214,1
"2166",2,1,487,36,1,"1883668",215,1
"2176",1,1,672,8,1,"1883668",216,1
"2186",2,1,247,24,1,"1883668",217,1
"2196",1,1,349,16,1,"1883668",218,1
"2206",1,1,445,8,1,"1883668",219,1
"22110",2,0,394,9,1,"1883668",220,1
"2226",2,1,769,21,1,"1883668",221,1
"2236",2,0,478,14,1,"1883668",222,1
"2246",2,0,311,4,1,"1883668",223,1
"2256",2,0,259,13,1,"1883668",224,1
"2266",2,0,227,12,1,"1883668",225,1
"2276",2,0,374,6,1,"1883668",226,1
"2286",1,0,275,31,1,"1883668",227,1
"2296",1,1,302,3,1,"1883668",228,1
"2306",2,1,208,22,1,"1883668",229,1
"23110",1,1,278,10,1,"1883668",230,1
"2326",2,0,259,15,1,"1883668",231,1
"2336",1,0,418,36,1,"1883668",232,1
"2346",1,1,542,11,1,"1883668",233,1
"2356",2,1,336,18,1,"1883668",234,1
"2366",1,0,397,20,1,"1883668",235,1
"2376",2,1,960,27,1,"1883668",236,1
"2386",1,0,2109,33,1,"1883668",237,1
"2396",NA,-1,0,23,1,"1883668",238,1
"2406",2,0,344,17,1,"1883668",239,1
"24110",1,0,620,35,1,"1883668",240,1
"2426",1,0,186,28,1,"1883668",241,1
"2436",1,0,320,25,1,"1883668",242,1
"2446",1,0,349,19,1,"1883668",243,1
"2456",1,0,254,30,1,"1883668",244,1
"2466",1,0,276,29,1,"1883668",245,1
"2476",1,1,267,7,1,"1883668",246,1
"2486",2,1,484,34,1,"1883668",247,1
"2496",1,1,232,1,1,"1883668",248,1
"2506",2,1,665,32,1,"1883668",249,1
"25110",1,1,362,5,1,"1883668",250,1
"2526",1,0,277,26,1,"1883668",251,1
"2536",1,1,435,2,1,"1883668",252,1
"2546",1,1,559,18,1,"1883668",253,1
"2556",2,0,410,6,1,"1883668",254,1
"2566",1,1,280,9,1,"1883668",255,1
"2576",2,0,341,16,1,"1883668",256,1
"2586",1,1,235,12,1,"1883668",257,1
"2596",2,1,252,27,1,"1883668",258,1
"2606",1,1,452,13,1,"1883668",259,1
"26110",2,1,254,25,1,"1883668",260,1
"2626",1,1,715,11,1,"1883668",261,1
"2636",2,1,409,22,1,"1883668",262,1
"2646",1,0,548,20,1,"1883668",263,1
"2656",2,1,311,29,1,"1883668",264,1
"2666",1,0,482,35,1,"1883668",265,1
"2676",2,1,224,19,1,"1883668",266,1
"2686",1,1,471,1,1,"1883668",267,1
"2696",2,0,12,2,1,"1883668",268,1
"2706",2,1,824,26,1,"1883668",269,1
"27110",1,0,639,23,1,"1883668",270,1
"2726",2,0,676,7,1,"1883668",271,1
"2736",1,0,373,33,1,"1883668",272,1
"2746",1,0,815,32,1,"1883668",273,1
"2756",2,1,653,31,1,"1883668",274,1
"2766",1,1,315,4,1,"1883668",275,1
"2776",1,1,250,8,1,"1883668",276,1
"2786",2,1,278,21,1,"1883668",277,1
"2796",2,1,274,30,1,"1883668",278,1
"2806",1,1,94,3,1,"1883668",279,1
"28110",2,1,186,36,1,"1883668",280,1
"2826",1,1,333,17,1,"1883668",281,1
"2836",2,1,270,24,1,"1883668",282,1
"2846",1,1,327,14,1,"1883668",283,1
"2856",2,1,963,28,1,"1883668",284,1
"2866",1,1,525,10,1,"1883668",285,1
"2876",1,1,372,15,1,"1883668",286,1
"2886",2,0,1093,5,1,"1883668",287,1
"2896",1,0,444,34,1,"1883668",288,1
"2107",1,1,1302,7,1,"adfa595",1,2
"327",1,0,488,36,1,"adfa595",2,2
"427",2,1,466,28,1,"adfa595",3,2
"527",1,0,355,25,1,"adfa595",4,2
"627",1,0,308,20,1,"adfa595",5,2
"727",1,0,318,24,1,"adfa595",6,2
"827",1,1,240,2,1,"adfa595",7,2
"927",1,1,259,12,1,"adfa595",8,2
"1027",2,0,236,8,1,"adfa595",9,2
"1127",1,1,285,17,1,"adfa595",10,2
"1227",1,0,552,32,1,"adfa595",11,2
"1327",2,1,375,27,1,"adfa595",12,2
"1427",1,0,425,33,1,"adfa595",13,2
"1527",1,1,370,16,1,"adfa595",14,2
"1627",1,0,357,21,1,"adfa595",15,2
"1727",1,1,526,13,1,"adfa595",16,2
"1827",1,1,2232,5,1,"adfa595",17,2
"1927",2,0,627,15,1,"adfa595",18,2
"2027",2,1,260,30,1,"adfa595",19,2
"2127",2,1,557,34,1,"adfa595",20,2
"2227",1,1,1088,10,1,"adfa595",21,2
"2327",1,0,1322,22,1,"adfa595",22,2
"2427",1,0,603,29,1,"adfa595",23,2
"2527",1,1,813,1,1,"adfa595",24,2
"2627",2,0,888,11,1,"adfa595",25,2
"2727",1,1,742,6,1,"adfa595",26,2
"2827",1,0,857,19,1,"adfa595",27,2
"2911",2,0,739,4,1,"adfa595",28,2
"307",2,0,565,14,1,"adfa595",29,2
"3111",2,0,454,9,1,"adfa595",30,2
"328",1,0,305,23,1,"adfa595",31,2
"337",1,0,390,26,1,"adfa595",32,2
"347",1,1,466,3,1,"adfa595",33,2
"357",1,0,2324,35,1,"adfa595",34,2
"367",1,0,302,31,1,"adfa595",35,2
"377",2,1,2136,18,1,"adfa595",36,2
"387",2,0,841,7,1,"adfa595",37,2
"397",1,0,506,36,1,"adfa595",38,2
"407",1,0,931,28,1,"adfa595",39,2
"4111",1,0,693,25,1,"adfa595",40,2
"428",1,0,253,20,1,"adfa595",41,2
"437",2,1,431,24,1,"adfa595",42,2
"447",1,1,889,2,1,"adfa595",43,2
"457",1,1,972,12,1,"adfa595",44,2
"467",1,1,148,8,1,"adfa595",45,2
"477",1,1,263,17,1,"adfa595",46,2
"487",2,1,88,32,1,"adfa595",47,2
"497",1,0,386,27,1,"adfa595",48,2
"507",2,1,244,33,1,"adfa595",49,2
"5111",1,1,286,16,1,"adfa595",50,2
"528",1,0,306,21,1,"adfa595",51,2
"537",1,1,345,13,1,"adfa595",52,2
"547",1,1,331,5,1,"adfa595",53,2
"557",1,1,383,15,1,"adfa595",54,2
"567",1,0,358,30,1,"adfa595",55,2
"577",1,0,794,34,1,"adfa595",56,2
"587",1,1,307,10,1,"adfa595",57,2
"597",1,0,902,22,1,"adfa595",58,2
"607",1,0,559,29,1,"adfa595",59,2
"6111",1,1,353,1,1,"adfa595",60,2
"628",1,1,460,11,1,"adfa595",61,2
"637",1,1,2389,6,1,"adfa595",62,2
"647",1,0,400,19,1,"adfa595",63,2
"657",1,1,632,4,1,"adfa595",64,2
"667",1,1,427,14,1,"adfa595",65,2
"677",1,1,917,9,1,"adfa595",66,2
"687",1,0,582,23,1,"adfa595",67,2
"697",2,1,154,26,1,"adfa595",68,2
"707",1,1,423,3,1,"adfa595",69,2
"7111",1,0,1012,35,1,"adfa595",70,2
"728",1,0,485,31,1,"adfa595",71,2
"737",1,1,240,18,1,"adfa595",72,2
"747",1,1,482,5,1,"adfa595",73,2
"757",1,1,300,10,1,"adfa595",74,2
"767",1,0,253,25,1,"adfa595",75,2
"777",1,0,111,22,1,"adfa595",76,2
"787",1,0,279,32,1,"adfa595",77,2
"797",2,1,361,21,1,"adfa595",78,2
"807",1,0,1234,31,1,"adfa595",79,2
"8111",1,1,580,4,1,"adfa595",80,2
"828",1,1,301,12,1,"adfa595",81,2
"837",1,1,353,7,1,"adfa595",82,2
"847",2,1,680,35,1,"adfa595",83,2
"857",2,1,540,24,1,"adfa595",84,2
"867",1,1,14,13,1,"adfa595",85,2
"877",1,1,567,6,1,"adfa595",86,2
"887",1,1,586,3,1,"adfa595",87,2
"897",1,1,315,17,1,"adfa595",88,2
"907",1,1,293,9,1,"adfa595",89,2
"9111",1,0,247,30,1,"adfa595",90,2
"928",1,1,318,8,1,"adfa595",91,2
"937",1,1,304,2,1,"adfa595",92,2
"947",2,1,347,19,1,"adfa595",93,2
"957",2,1,459,26,1,"adfa595",94,2
"967",2,0,350,11,1,"adfa595",95,2
"977",1,0,295,36,1,"adfa595",96,2
"987",2,1,378,34,1,"adfa595",97,2
"997",2,1,675,20,1,"adfa595",98,2
"1007",1,1,404,15,1,"adfa595",99,2
"10111",1,1,615,18,1,"adfa595",100,2
"1028",1,1,336,16,1,"adfa595",101,2
"1037",1,0,259,27,1,"adfa595",102,2
"1047",2,0,589,1,1,"adfa595",103,2
"1057",2,1,286,28,1,"adfa595",104,2
"1067",2,1,303,23,1,"adfa595",105,2
"1077",2,1,441,29,1,"adfa595",106,2
"1087",2,0,460,14,1,"adfa595",107,2
"1097",2,1,597,33,1,"adfa595",108,2
"1107",2,0,648,13,1,"adfa595",109,2
"11111",1,1,121,9,1,"adfa595",110,2
"1128",1,0,452,24,1,"adfa595",111,2
"1137",1,1,659,2,1,"adfa595",112,2
"1147",1,0,734,35,1,"adfa595",113,2
"1157",2,1,561,23,1,"adfa595",114,2
"1167",2,0,345,16,1,"adfa595",115,2
"1177",1,1,363,17,1,"adfa595",116,2
"1187",1,0,790,20,1,"adfa595",117,2
"1197",1,1,487,4,1,"adfa595",118,2
"1207",1,1,310,8,1,"adfa595",119,2
"12111",2,0,128,1,1,"adfa595",120,2
"1228",2,1,210,21,1,"adfa595",121,2
"1237",2,0,571,7,1,"adfa595",122,2
"1247",1,0,268,27,1,"adfa595",123,2
"1257",1,0,288,36,1,"adfa595",124,2
"1267",1,1,359,12,1,"adfa595",125,2
"1277",1,0,250,32,1,"adfa595",126,2
"1287",2,1,266,33,1,"adfa595",127,2
"1297",2,0,310,15,1,"adfa595",128,2
"1307",2,0,231,6,1,"adfa595",129,2
"13111",2,0,240,10,1,"adfa595",130,2
"1328",2,1,258,34,1,"adfa595",131,2
"1337",1,1,340,11,1,"adfa595",132,2
"1347",1,0,220,31,1,"adfa595",133,2
"1357",1,1,334,3,1,"adfa595",134,2
"1367",2,1,98,25,1,"adfa595",135,2
"1377",2,0,491,14,1,"adfa595",136,2
"1387",2,0,284,5,1,"adfa595",137,2
"1397",2,1,325,30,1,"adfa595",138,2
"1407",2,1,406,29,1,"adfa595",139,2
"14111",2,1,354,26,1,"adfa595",140,2
"1428",2,1,564,19,1,"adfa595",141,2
"1437",2,1,69,28,1,"adfa595",142,2
"1447",1,1,430,18,1,"adfa595",143,2
"1457",1,0,513,22,1,"adfa595",144,2
"1467",1,0,204,30,1,"adfa595",145,2
"1477",2,0,379,8,1,"adfa595",146,2
"1487",2,0,269,3,1,"adfa595",147,2
"1497",2,0,567,1,1,"adfa595",148,2
"1507",1,0,520,27,1,"adfa595",149,2
"15111",1,0,370,28,1,"adfa595",150,2
"1528",1,1,292,16,1,"adfa595",151,2
"1537",2,1,247,23,1,"adfa595",152,2
"1547",2,1,318,25,1,"adfa595",153,2
"1557",2,1,239,34,1,"adfa595",154,2
"1567",1,1,441,14,1,"adfa595",155,2
"1577",1,0,330,31,1,"adfa595",156,2
"1587",2,1,340,22,1,"adfa595",157,2
"1597",2,1,711,19,1,"adfa595",158,2
"1607",2,0,472,4,1,"adfa595",159,2
"16111",1,1,321,6,1,"adfa595",160,2
"1628",1,0,276,36,1,"adfa595",161,2
"1637",1,1,263,12,1,"adfa595",162,2
"1647",1,0,303,33,1,"adfa595",163,2
"1657",1,1,226,5,1,"adfa595",164,2
"1667",1,0,243,29,1,"adfa595",165,2
"1677",2,0,253,10,1,"adfa595",166,2
"1687",1,0,173,24,1,"adfa595",167,2
"1697",1,1,377,7,1,"adfa595",168,2
"1707",2,1,426,18,1,"adfa595",169,2
"17111",2,0,337,15,1,"adfa595",170,2
"1728",2,1,292,26,1,"adfa595",171,2
"1737",2,1,310,21,1,"adfa595",172,2
"1747",2,0,224,11,1,"adfa595",173,2
"1757",1,0,271,35,1,"adfa595",174,2
"1767",1,0,248,20,1,"adfa595",175,2
"1777",1,1,297,2,1,"adfa595",176,2
"1787",2,1,317,32,1,"adfa595",177,2
"1797",2,0,326,17,1,"adfa595",178,2
"1807",1,1,280,13,1,"adfa595",179,2
"18111",1,1,289,9,1,"adfa595",180,2
"1828",1,0,244,36,1,"adfa595",181,2
"1837",2,0,349,4,1,"adfa595",182,2
"1847",2,1,367,28,1,"adfa595",183,2
"1857",1,0,259,27,1,"adfa595",184,2
"1867",2,1,1067,34,1,"adfa595",185,2
"1877",1,1,956,3,1,"adfa595",186,2
"1887",1,1,422,7,1,"adfa595",187,2
"1897",2,0,183,10,1,"adfa595",188,2
"1907",2,1,297,31,1,"adfa595",189,2
"19111",1,0,371,29,1,"adfa595",190,2
"1928",1,0,516,20,1,"adfa595",191,2
"1937",1,0,239,24,1,"adfa595",192,2
"1947",1,1,288,9,1,"adfa595",193,2
"1957",1,0,303,32,1,"adfa595",194,2
"1967",1,1,1113,1,1,"adfa595",195,2
"1977",1,1,555,8,1,"adfa595",196,2
"1987",2,0,212,14,1,"adfa595",197,2
"1997",1,1,263,13,1,"adfa595",198,2
"2007",1,1,464,18,1,"adfa595",199,2
"20111",1,0,291,35,1,"adfa595",200,2
"2028",1,0,277,30,1,"adfa595",201,2
"2037",1,1,221,16,1,"adfa595",202,2
"2047",1,1,239,17,1,"adfa595",203,2
"2057",1,1,346,6,1,"adfa595",204,2
"2067",2,0,267,15,1,"adfa595",205,2
"2077",1,0,256,26,1,"adfa595",206,2
"2087",1,0,326,25,1,"adfa595",207,2
"2097",1,1,152,12,1,"adfa595",208,2
"2108",1,1,258,2,1,"adfa595",209,2
"21111",2,1,499,22,1,"adfa595",210,2
"2128",2,1,287,23,1,"adfa595",211,2
"2137",2,1,240,19,1,"adfa595",212,2
"2147",1,0,313,33,1,"adfa595",213,2
"2157",2,0,360,11,1,"adfa595",214,2
"2167",2,1,348,21,1,"adfa595",215,2
"2177",2,0,933,5,1,"adfa595",216,2
"2187",1,1,344,16,1,"adfa595",217,2
"2197",1,0,513,30,1,"adfa595",218,2
"2207",1,0,339,35,1,"adfa595",219,2
"22111",1,0,125,29,1,"adfa595",220,2
"2228",2,1,236,24,1,"adfa595",221,2
"2237",2,1,471,21,1,"adfa595",222,2
"2247",2,1,232,26,1,"adfa595",223,2
"2257",2,1,307,27,1,"adfa595",224,2
"2267",2,0,293,3,1,"adfa595",225,2
"2277",2,1,471,25,1,"adfa595",226,2
"2287",1,1,354,6,1,"adfa595",227,2
"2297",1,1,497,5,1,"adfa595",228,2
"2307",1,1,283,7,1,"adfa595",229,2
"23111",1,1,270,13,1,"adfa595",230,2
"2328",1,1,406,4,1,"adfa595",231,2
"2337",1,1,617,2,1,"adfa595",232,2
"2347",1,1,404,15,1,"adfa595",233,2
"2357",1,0,392,31,1,"adfa595",234,2
"2367",2,0,334,10,1,"adfa595",235,2
"2377",2,1,413,28,1,"adfa595",236,2
"2387",2,1,712,32,1,"adfa595",237,2
"2397",2,1,534,34,1,"adfa595",238,2
"2407",2,1,290,36,1,"adfa595",239,2
"24111",2,1,81,23,1,"adfa595",240,2
"2428",1,1,347,12,1,"adfa595",241,2
"2437",1,1,268,18,1,"adfa595",242,2
"2447",1,0,254,20,1,"adfa595",243,2
"2457",2,1,233,33,1,"adfa595",244,2
"2467",2,0,283,1,1,"adfa595",245,2
"2477",2,1,292,19,1,"adfa595",246,2
"2487",2,0,341,11,1,"adfa595",247,2
"2497",2,0,448,14,1,"adfa595",248,2
"2507",2,0,274,17,1,"adfa595",249,2
"25111",2,1,259,22,1,"adfa595",250,2
"2528",2,0,366,9,1,"adfa595",251,2
"2537",2,0,321,8,1,"adfa595",252,2
"2547",1,1,169,13,1,"adfa595",253,2
"2557",1,0,2036,34,1,"adfa595",254,2
"2567",1,1,357,4,1,"adfa595",255,2
"2577",1,1,759,7,1,"adfa595",256,2
"2587",2,1,329,22,1,"adfa595",257,2
"2597",2,1,307,31,1,"adfa595",258,2
"2607",2,1,327,32,1,"adfa595",259,2
"26111",2,0,431,11,1,"adfa595",260,2
"2628",2,1,225,18,1,"adfa595",261,2
"2637",2,0,971,14,1,"adfa595",262,2
"2647",2,1,251,35,1,"adfa595",263,2
"2657",2,1,173,29,1,"adfa595",264,2
"2667",2,1,2167,28,1,"adfa595",265,2
"2677",2,1,1320,26,1,"adfa595",266,2
"2687",2,1,1362,21,1,"adfa595",267,2
"2697",2,0,611,1,1,"adfa595",268,2
"2707",2,1,534,27,1,"adfa595",269,2
"27111",1,1,991,16,1,"adfa595",270,2
"2728",1,0,849,24,1,"adfa595",271,2
"2737",1,1,227,12,1,"adfa595",272,2
"2747",1,0,365,33,1,"adfa595",273,2
"2757",1,0,670,36,1,"adfa595",274,2
"2767",2,0,272,9,1,"adfa595",275,2
"2777",2,0,537,8,1,"adfa595",276,2
"2787",1,0,298,30,1,"adfa595",277,2
"2797",1,1,1773,2,1,"adfa595",278,2
"2807",2,0,669,6,1,"adfa595",279,2
"28111",2,0,207,10,1,"adfa595",280,2
"2828",2,0,282,15,1,"adfa595",281,2
"2837",2,1,364,23,1,"adfa595",282,2
"2847",2,1,93,19,1,"adfa595",283,2
"2857",1,1,230,3,1,"adfa595",284,2
"2867",1,0,311,20,1,"adfa595",285,2
"2877",1,1,2210,5,1,"adfa595",286,2
"2887",1,0,209,25,1,"adfa595",287,2
"2897",1,1,355,17,1,"adfa595",288,2
"2109",2,1,691,23,1,"144aa92",1,2
"329",2,0,440,14,1,"144aa92",2,2
"429",2,0,519,2,1,"144aa92",3,2
"529",1,0,576,31,1,"144aa92",4,2
"629",1,1,834,5,1,"144aa92",5,2
"729",1,1,521,9,1,"144aa92",6,2
"829",2,0,881,1,1,"144aa92",7,2
"929",1,1,236,8,1,"144aa92",8,2
"1029",2,1,472,25,1,"144aa92",9,2
"1129",2,1,418,21,1,"144aa92",10,2
"1229",2,1,341,19,1,"144aa92",11,2
"1329",1,0,689,36,1,"144aa92",12,2
"1429",1,1,840,6,1,"144aa92",13,2
"1529",2,0,833,3,1,"144aa92",14,2
"1629",1,0,664,29,1,"144aa92",15,2
"1729",1,0,1036,35,1,"144aa92",16,2
"1829",2,0,1047,7,1,"144aa92",17,2
"1929",2,0,1198,16,1,"144aa92",18,2
"2029",1,0,810,28,1,"144aa92",19,2
"2129",1,0,746,20,1,"144aa92",20,2
"2229",1,1,700,17,1,"144aa92",21,2
"2329",1,1,661,18,1,"144aa92",22,2
"2429",2,1,645,27,1,"144aa92",23,2
"2529",2,1,813,26,1,"144aa92",24,2
"2629",2,1,632,24,1,"144aa92",25,2
"2729",2,0,772,11,1,"144aa92",26,2
"2829",1,1,885,12,1,"144aa92",27,2
"2912",1,1,485,10,1,"144aa92",28,2
"308",2,0,650,13,1,"144aa92",29,2
"3112",1,1,864,15,1,"144aa92",30,2
"3210",1,0,406,22,1,"144aa92",31,2
"338",2,1,561,30,1,"144aa92",32,2
"348",2,1,642,32,1,"144aa92",33,2
"358",1,1,471,4,1,"144aa92",34,2
"368",1,0,792,33,1,"144aa92",35,2
"378",1,0,889,34,1,"144aa92",36,2
"388",2,1,970,23,1,"144aa92",37,2
"398",2,0,297,14,1,"144aa92",38,2
"408",2,0,391,2,1,"144aa92",39,2
"4112",2,1,903,31,1,"144aa92",40,2
"4210",1,1,690,5,1,"144aa92",41,2
"438",1,1,505,9,1,"144aa92",42,2
"448",1,1,342,1,1,"144aa92",43,2
"458",1,1,421,8,1,"144aa92",44,2
"468",1,0,411,25,1,"144aa92",45,2
"478",1,0,731,21,1,"144aa92",46,2
"488",2,1,511,19,1,"144aa92",47,2
"498",2,1,847,36,1,"144aa92",48,2
"508",2,0,397,6,1,"144aa92",49,2
"5112",1,1,590,3,1,"144aa92",50,2
"5210",1,0,1069,29,1,"144aa92",51,2
"538",1,0,1065,35,1,"144aa92",52,2
"548",1,1,723,7,1,"144aa92",53,2
"558",1,1,1033,16,1,"144aa92",54,2
"568",1,0,647,28,1,"144aa92",55,2
"578",2,1,846,20,1,"144aa92",56,2
"588",2,0,1114,17,1,"144aa92",57,2
"598",1,1,618,18,1,"144aa92",58,2
"608",1,0,346,27,1,"144aa92",59,2
"6112",2,1,631,26,1,"144aa92",60,2
"6210",1,0,610,24,1,"144aa92",61,2
"638",2,0,358,11,1,"144aa92",62,2
"648",1,1,667,12,1,"144aa92",63,2
"658",1,1,658,10,1,"144aa92",64,2
"668",1,1,538,13,1,"144aa92",65,2
"678",1,1,488,15,1,"144aa92",66,2
"688",2,1,559,22,1,"144aa92",67,2
"698",1,0,544,30,1,"144aa92",68,2
"708",2,1,799,32,1,"144aa92",69,2
"7112",2,0,871,4,1,"144aa92",70,2
"7210",2,1,1036,33,1,"144aa92",71,2
"738",1,0,686,34,1,"144aa92",72,2
"748",1,1,1086,18,1,"144aa92",73,2
"758",2,1,1010,27,1,"144aa92",74,2
"768",2,0,1044,5,1,"144aa92",75,2
"778",2,1,1007,28,1,"144aa92",76,2
"788",2,1,1003,23,1,"144aa92",77,2
"798",2,1,1492,19,1,"144aa92",78,2
"808",2,1,1201,21,1,"144aa92",79,2
"8112",2,0,770,8,1,"144aa92",80,2
"8210",2,1,568,24,1,"144aa92",81,2
"838",2,1,654,22,1,"144aa92",82,2
"848",2,1,576,30,1,"144aa92",83,2
"858",2,0,817,2,1,"144aa92",84,2
"868",1,0,889,25,1,"144aa92",85,2
"878",2,0,512,11,1,"144aa92",86,2
"888",2,0,374,14,1,"144aa92",87,2
"898",2,0,458,16,1,"144aa92",88,2
"908",1,0,444,34,1,"144aa92",89,2
"9112",2,0,791,9,1,"144aa92",90,2
"9210",1,1,986,15,1,"144aa92",91,2
"938",1,1,720,12,1,"144aa92",92,2
"948",1,0,1510,26,1,"144aa92",93,2
"958",2,1,805,31,1,"144aa92",94,2
"968",2,1,634,32,1,"144aa92",95,2
"978",1,0,566,36,1,"144aa92",96,2
"988",2,0,605,1,1,"144aa92",97,2
"998",1,0,801,35,1,"144aa92",98,2
"1008",2,0,1158,4,1,"144aa92",99,2
"10112",2,1,689,33,1,"144aa92",100,2
"10210",2,0,748,13,1,"144aa92",101,2
"1038",2,0,637,17,1,"144aa92",102,2
"1048",2,1,364,29,1,"144aa92",103,2
"1058",1,1,309,10,1,"144aa92",104,2
"1068",1,1,471,3,1,"144aa92",105,2
"1078",1,1,481,6,1,"144aa92",106,2
"1088",1,1,433,7,1,"144aa92",107,2
"1098",1,0,444,20,1,"144aa92",108,2
"1108",2,0,930,17,1,"144aa92",109,2
"11112",1,0,856,22,1,"144aa92",110,2
"11210",1,0,852,23,1,"144aa92",111,2
"1138",2,1,863,25,1,"144aa92",112,2
"1148",1,0,503,34,1,"144aa92",113,2
"1158",2,0,259,1,1,"144aa92",114,2
"1168",2,1,469,26,1,"144aa92",115,2
"1178",2,1,664,33,1,"144aa92",116,2
"1188",2,0,744,8,1,"144aa92",117,2
"1198",1,1,901,11,1,"144aa92",118,2
"1208",1,1,1017,18,1,"144aa92",119,2
"12112",1,1,666,12,1,"144aa92",120,2
"12210",2,1,985,20,1,"144aa92",121,2
"1238",2,1,1046,31,1,"144aa92",122,2
"1248",2,0,872,5,1,"144aa92",123,2
"1258",2,0,1233,4,1,"144aa92",124,2
"1268",1,1,931,10,1,"144aa92",125,2
"1278",1,1,795,13,1,"144aa92",126,2
"1288",2,0,312,14,1,"144aa92",127,2
"1298",2,0,478,15,1,"144aa92",128,2
"1308",2,1,757,21,1,"144aa92",129,2
"13112",1,0,451,19,1,"144aa92",130,2
"13210",2,1,862,35,1,"144aa92",131,2
"1338",2,1,862,29,1,"144aa92",132,2
"1348",2,1,1001,27,1,"144aa92",133,2
"1358",1,0,502,28,1,"144aa92",134,2
"1368",1,1,603,16,1,"144aa92",135,2
"1378",2,1,553,30,1,"144aa92",136,2
"1388",1,1,288,2,1,"144aa92",137,2
"1398",2,0,393,6,1,"144aa92",138,2
"1408",2,1,393,32,1,"144aa92",139,2
"14112",1,1,536,3,1,"144aa92",140,2
"14210",1,1,870,9,1,"144aa92",141,2
"1438",2,0,622,7,1,"144aa92",142,2
"1448",2,1,519,24,1,"144aa92",143,2
"1458",2,1,309,36,1,"144aa92",144,2
"1468",1,1,594,12,1,"144aa92",145,2
"1478",2,0,471,15,1,"144aa92",146,2
"1488",1,0,804,26,1,"144aa92",147,2
"1498",2,0,248,14,1,"144aa92",148,2
"1508",1,1,795,16,1,"144aa92",149,2
"15112",1,1,883,13,1,"144aa92",150,2
"15210",1,1,506,6,1,"144aa92",151,2
"1538",2,1,559,18,1,"144aa92",152,2
"1548",1,1,242,8,1,"144aa92",153,2
"1558",1,0,760,31,1,"144aa92",154,2
"1568",1,0,691,22,1,"144aa92",155,2
"1578",2,1,606,24,1,"144aa92",156,2
"1588",2,1,621,19,1,"144aa92",157,2
"1598",2,0,455,4,1,"144aa92",158,2
"1608",1,1,271,7,1,"144aa92",159,2
"16112",2,1,223,30,1,"144aa92",160,2
"16210",1,1,349,3,1,"144aa92",161,2
"1638",2,1,313,33,1,"144aa92",162,2
"1648",2,1,343,21,1,"144aa92",163,2
"1658",2,0,294,5,1,"144aa92",164,2
"1668",2,0,374,10,1,"144aa92",165,2
"1678",1,0,294,36,1,"144aa92",166,2
"1688",2,0,332,2,1,"144aa92",167,2
"1698",2,1,352,35,1,"144aa92",168,2
"1708",2,1,286,25,1,"144aa92",169,2
"17112",1,1,815,17,1,"144aa92",170,2
"17210",1,0,657,23,1,"144aa92",171,2
"1738",1,0,548,20,1,"144aa92",172,2
"1748",2,1,500,32,1,"144aa92",173,2
"1758",2,1,271,29,1,"144aa92",174,2
"1768",2,0,390,11,1,"144aa92",175,2
"1778",2,0,521,1,1,"144aa92",176,2
"1788",2,1,288,34,1,"144aa92",177,2
"1798",2,1,381,28,1,"144aa92",178,2
"1808",2,0,519,9,1,"144aa92",179,2
"18112",2,1,545,27,1,"144aa92",180,2
"18210",2,1,977,33,1,"144aa92",181,2
"1838",2,1,269,26,1,"144aa92",182,2
"1848",1,1,257,7,1,"144aa92",183,2
"1858",1,1,670,9,1,"144aa92",184,2
"1868",2,1,550,36,1,"144aa92",185,2
"1878",1,1,613,16,1,"144aa92",186,2
"1888",1,0,341,30,1,"144aa92",187,2
"1898",1,0,545,28,1,"144aa92",188,2
"1908",1,1,1453,2,1,"144aa92",189,2
"19112",1,0,665,31,1,"144aa92",190,2
"19210",1,0,374,32,1,"144aa92",191,2
"1938",2,1,330,35,1,"144aa92",192,2
"1948",1,1,216,11,1,"144aa92",193,2
"1958",1,1,256,3,1,"144aa92",194,2
"1968",1,0,336,34,1,"144aa92",195,2
"1978",2,0,305,8,1,"144aa92",196,2
"1988",2,0,347,4,1,"144aa92",197,2
"1998",2,1,445,23,1,"144aa92",198,2
"2008",2,1,389,25,1,"144aa92",199,2
"20112",1,1,364,10,1,"144aa92",200,2
"20210",1,1,305,18,1,"144aa92",201,2
"2038",1,1,669,5,1,"144aa92",202,2
"2048",2,0,573,1,1,"144aa92",203,2
"2058",1,0,544,20,1,"144aa92",204,2
"2068",1,0,703,29,1,"144aa92",205,2
"2078",1,1,739,15,1,"144aa92",206,2
"2088",2,0,617,6,1,"144aa92",207,2
"2098",1,0,623,24,1,"144aa92",208,2
"21010",2,1,524,27,1,"144aa92",209,2
"21112",1,1,521,12,1,"144aa92",210,2
"21210",1,1,589,14,1,"144aa92",211,2
"2138",1,1,434,17,1,"144aa92",212,2
"2148",1,0,773,19,1,"144aa92",213,2
"2158",1,1,637,13,1,"144aa92",214,2
"2168",1,0,652,21,1,"144aa92",215,2
"2178",1,0,885,22,1,"144aa92",216,2
"2188",1,1,496,17,1,"144aa92",217,2
"2198",1,0,753,31,1,"144aa92",218,2
"2208",2,0,272,12,1,"144aa92",219,2
"22112",2,1,514,25,1,"144aa92",220,2
"22210",2,1,396,19,1,"144aa92",221,2
"2238",2,1,484,28,1,"144aa92",222,2
"2248",2,1,324,20,1,"144aa92",223,2
"2258",2,0,386,16,1,"144aa92",224,2
"2268",1,0,447,34,1,"144aa92",225,2
"2278",1,1,341,8,1,"144aa92",226,2
"2288",1,1,324,18,1,"144aa92",227,2
"2298",1,1,567,1,1,"144aa92",228,2
"2308",1,1,847,6,1,"144aa92",229,2
"23112",1,0,505,23,1,"144aa92",230,2
"23210",1,1,570,9,1,"144aa92",231,2
"2338",1,1,474,13,1,"144aa92",232,2
"2348",1,1,730,10,1,"144aa92",233,2
"2358",2,0,501,5,1,"144aa92",234,2
"2368",2,0,308,14,1,"144aa92",235,2
"2378",1,0,628,27,1,"144aa92",236,2
"2388",2,1,295,32,1,"144aa92",237,2
"2398",2,1,428,24,1,"144aa92",238,2
"2408",1,0,538,26,1,"144aa92",239,2
"24112",2,1,350,30,1,"144aa92",240,2
"24210",2,1,341,21,1,"144aa92",241,2
"2438",1,0,312,33,1,"144aa92",242,2
"2448",2,1,121,29,1,"144aa92",243,2
"2458",2,0,901,3,1,"144aa92",244,2
"2468",1,1,320,2,1,"144aa92",245,2
"2478",1,1,362,4,1,"144aa92",246,2
"2488",1,1,601,7,1,"144aa92",247,2
"2498",2,0,1296,15,1,"144aa92",248,2
"2508",1,0,505,35,1,"144aa92",249,2
"25112",2,1,581,36,1,"144aa92",250,2
"25210",1,0,718,22,1,"144aa92",251,2
"2538",1,1,501,11,1,"144aa92",252,2
"2548",1,0,371,29,1,"144aa92",253,2
"2558",1,1,674,11,1,"144aa92",254,2
"2568",1,1,486,1,1,"144aa92",255,2
"2578",1,0,440,24,1,"144aa92",256,2
"2588",2,0,472,13,1,"144aa92",257,2
"2598",2,1,344,20,1,"144aa92",258,2
"2608",2,0,297,15,1,"144aa92",259,2
"26112",1,0,328,36,1,"144aa92",260,2
"26210",1,1,326,4,1,"144aa92",261,2
"2638",1,1,373,16,1,"144aa92",262,2
"2648",1,0,166,33,1,"144aa92",263,2
"2658",1,0,11,32,1,"144aa92",264,2
"2668",2,0,158,7,1,"144aa92",265,2
"2678",2,1,222,28,1,"144aa92",266,2
"2688",2,1,311,25,1,"144aa92",267,2
"2698",1,1,390,3,1,"144aa92",268,2
"2708",1,0,487,21,1,"144aa92",269,2
"27112",1,0,350,35,1,"144aa92",270,2
"27210",1,1,552,6,1,"144aa92",271,2
"2738",1,0,418,31,1,"144aa92",272,2
"2748",2,0,288,2,1,"144aa92",273,2
"2758",1,0,214,23,1,"144aa92",274,2
"2768",1,1,346,14,1,"144aa92",275,2
"2778",1,1,792,9,1,"144aa92",276,2
"2788",2,0,539,17,1,"144aa92",277,2
"2798",1,0,423,34,1,"144aa92",278,2
"2808",1,1,259,8,1,"144aa92",279,2
"28112",1,1,397,12,1,"144aa92",280,2
"28210",1,1,661,10,1,"144aa92",281,2
"2838",2,1,298,30,1,"144aa92",282,2
"2848",1,1,617,5,1,"144aa92",283,2
"2858",1,1,342,18,1,"144aa92",284,2
"2868",2,1,289,27,1,"144aa92",285,2
"2878",2,1,420,26,1,"144aa92",286,2
"2888",1,0,547,22,1,"144aa92",287,2
"2898",2,1,573,19,1,"144aa92",288,2
"2130",2,0,1112,7,1,"1b4a3af",1,2
"330",2,1,642,22,1,"1b4a3af",2,2
"430",2,1,692,26,1,"1b4a3af",3,2
"530",1,1,1084,12,1,"1b4a3af",4,2
"630",1,1,782,17,1,"1b4a3af",5,2
"730",2,1,838,19,1,"1b4a3af",6,2
"830",1,1,799,18,1,"1b4a3af",7,2
"930",2,0,1019,6,1,"1b4a3af",8,2
"1030",2,1,758,27,1,"1b4a3af",9,2
"1130",1,1,863,15,1,"1b4a3af",10,2
"1230",2,1,694,21,1,"1b4a3af",11,2
"1330",2,0,703,1,1,"1b4a3af",12,2
"1430",1,0,1072,35,1,"1b4a3af",13,2
"1530",2,1,682,25,1,"1b4a3af",14,2
"1630",1,1,696,14,1,"1b4a3af",15,2
"1730",2,0,723,4,1,"1b4a3af",16,2
"1830",1,0,950,31,1,"1b4a3af",17,2
"1930",2,1,658,20,1,"1b4a3af",18,2
"2030",2,1,770,32,1,"1b4a3af",19,2
"2139",2,0,618,8,1,"1b4a3af",20,2
"2230",2,1,690,30,1,"1b4a3af",21,2
"2330",2,0,610,9,1,"1b4a3af",22,2
"2430",2,1,654,29,1,"1b4a3af",23,2
"2530",2,1,980,36,1,"1b4a3af",24,2
"2630",1,1,679,11,1,"1b4a3af",25,2
"2730",2,1,855,33,1,"1b4a3af",26,2
"2830",2,0,728,2,1,"1b4a3af",27,2
"2913",2,0,977,3,1,"1b4a3af",28,2
"309",2,0,723,5,1,"1b4a3af",29,2
"3113",1,1,940,10,1,"1b4a3af",30,2
"3211",2,1,1515,28,1,"1b4a3af",31,2
"339",1,1,1025,13,1,"1b4a3af",32,2
"349",1,0,808,34,1,"1b4a3af",33,2
"359",2,1,837,23,1,"1b4a3af",34,2
"369",2,1,610,24,1,"1b4a3af",35,2
"379",1,1,689,16,1,"1b4a3af",36,2
"389",2,0,645,7,1,"1b4a3af",37,2
"399",2,1,743,22,1,"1b4a3af",38,2
"409",2,1,671,26,1,"1b4a3af",39,2
"4113",1,1,796,12,1,"1b4a3af",40,2
"4211",1,1,898,17,1,"1b4a3af",41,2
"439",2,1,863,19,1,"1b4a3af",42,2
"449",1,1,732,18,1,"1b4a3af",43,2
"459",2,0,1027,6,1,"1b4a3af",44,2
"469",2,1,1166,27,1,"1b4a3af",45,2
"479",1,1,831,15,1,"1b4a3af",46,2
"489",2,1,730,21,1,"1b4a3af",47,2
"499",2,0,764,1,1,"1b4a3af",48,2
"509",1,0,885,35,1,"1b4a3af",49,2
"5113",2,1,657,25,1,"1b4a3af",50,2
"5211",1,1,678,14,1,"1b4a3af",51,2
"539",2,0,631,4,1,"1b4a3af",52,2
"549",2,1,602,31,1,"1b4a3af",53,2
"559",2,1,576,20,1,"1b4a3af",54,2
"569",2,1,723,32,1,"1b4a3af",55,2
"579",2,0,578,8,1,"1b4a3af",56,2
"589",2,1,456,30,1,"1b4a3af",57,2
"599",2,0,632,9,1,"1b4a3af",58,2
"609",2,1,415,29,1,"1b4a3af",59,2
"6113",1,0,674,36,1,"1b4a3af",60,2
"6211",1,1,672,11,1,"1b4a3af",61,2
"639",2,1,1051,33,1,"1b4a3af",62,2
"649",2,0,543,2,1,"1b4a3af",63,2
"659",2,0,653,3,1,"1b4a3af",64,2
"669",2,0,698,5,1,"1b4a3af",65,2
"679",2,0,1151,10,1,"1b4a3af",66,2
"689",2,1,724,28,1,"1b4a3af",67,2
"699",1,1,644,13,1,"1b4a3af",68,2
"709",1,0,676,34,1,"1b4a3af",69,2
"7113",2,1,623,23,1,"1b4a3af",70,2
"7211",2,1,550,24,1,"1b4a3af",71,2
"739",1,1,799,16,1,"1b4a3af",72,2
"749",1,1,803,7,1,"1b4a3af",73,2
"759",2,1,921,32,1,"1b4a3af",74,2
"769",2,0,718,5,1,"1b4a3af",75,2
"779",2,1,663,24,1,"1b4a3af",76,2
"789",2,1,800,30,1,"1b4a3af",77,2
"799",2,1,663,26,1,"1b4a3af",78,2
"809",1,0,714,35,1,"1b4a3af",79,2
"8113",2,0,624,2,1,"1b4a3af",80,2
"8211",1,1,779,18,1,"1b4a3af",81,2
"839",1,1,692,12,1,"1b4a3af",82,2
"849",1,1,176,11,1,"1b4a3af",83,2
"859",2,0,647,6,1,"1b4a3af",84,2
"869",1,1,664,16,1,"1b4a3af",85,2
"879",2,1,621,21,1,"1b4a3af",86,2
"889",2,0,641,9,1,"1b4a3af",87,2
"899",2,0,543,3,1,"1b4a3af",88,2
"909",1,1,817,17,1,"1b4a3af",89,2
"9113",1,1,669,14,1,"1b4a3af",90,2
"9211",1,0,1206,36,1,"1b4a3af",91,2
"939",2,0,1305,4,1,"1b4a3af",92,2
"949",1,1,793,15,1,"1b4a3af",93,2
"959",2,1,633,25,1,"1b4a3af",94,2
"969",2,0,816,1,1,"1b4a3af",95,2
"979",2,1,668,29,1,"1b4a3af",96,2
"989",2,1,712,31,1,"1b4a3af",97,2
"999",2,1,850,22,1,"1b4a3af",98,2
"1009",2,1,966,23,1,"1b4a3af",99,2
"10113",2,1,897,19,1,"1b4a3af",100,2
"10211",2,1,930,33,1,"1b4a3af",101,2
"1039",2,1,928,28,1,"1b4a3af",102,2
"1049",1,1,705,13,1,"1b4a3af",103,2
"1059",2,1,594,27,1,"1b4a3af",104,2
"1069",1,1,824,10,1,"1b4a3af",105,2
"1079",1,0,1034,34,1,"1b4a3af",106,2
"1089",2,1,690,20,1,"1b4a3af",107,2
"1099",2,0,696,8,1,"1b4a3af",108,2
"1109",2,0,789,3,1,"1b4a3af",109,2
"11113",1,1,638,14,1,"1b4a3af",110,2
"11211",2,1,502,23,1,"1b4a3af",111,2
"1139",1,1,794,18,1,"1b4a3af",112,2
"1149",1,1,628,11,1,"1b4a3af",113,2
"1159",2,0,747,7,1,"1b4a3af",114,2
"1169",2,1,701,30,1,"1b4a3af",115,2
"1179",2,1,720,21,1,"1b4a3af",116,2
"1189",2,0,1057,6,1,"1b4a3af",117,2
"1199",2,0,823,1,1,"1b4a3af",118,2
"1209",2,1,729,25,1,"1b4a3af",119,2
"12113",1,1,763,15,1,"1b4a3af",120,2
"12211",2,1,581,32,1,"1b4a3af",121,2
"1239",2,1,761,31,1,"1b4a3af",122,2
"1249",2,1,753,28,1,"1b4a3af",123,2
"1259",1,0,821,34,1,"1b4a3af",124,2
"1269",2,0,878,8,1,"1b4a3af",125,2
"1279",1,1,1018,13,1,"1b4a3af",126,2
"1289",1,1,589,17,1,"1b4a3af",127,2
"1299",2,1,605,33,1,"1b4a3af",128,2
"1309",1,0,711,36,1,"1b4a3af",129,2
"13113",2,1,645,26,1,"1b4a3af",130,2
"13211",2,0,534,4,1,"1b4a3af",131,2
"1339",1,1,702,10,1,"1b4a3af",132,2
"1349",2,0,626,9,1,"1b4a3af",133,2
"1359",2,1,563,19,1,"1b4a3af",134,2
"1369",2,1,1076,35,1,"1b4a3af",135,2
"1379",2,1,775,20,1,"1b4a3af",136,2
"1389",1,1,708,16,1,"1b4a3af",137,2
"1399",2,0,604,2,1,"1b4a3af",138,2
"1409",2,1,554,27,1,"1b4a3af",139,2
"14113",2,1,602,22,1,"1b4a3af",140,2
"14211",2,0,702,5,1,"1b4a3af",141,2
"1439",2,1,825,29,1,"1b4a3af",142,2
"1449",1,1,665,12,1,"1b4a3af",143,2
"1459",2,1,649,24,1,"1b4a3af",144,2
"1469",2,1,709,26,1,"1b4a3af",145,2
"1479",1,1,829,11,1,"1b4a3af",146,2
"1489",2,1,631,19,1,"1b4a3af",147,2
"1499",2,1,1010,31,1,"1b4a3af",148,2
"1509",2,1,845,32,1,"1b4a3af",149,2
"15113",2,0,768,5,1,"1b4a3af",150,2
"15211",2,0,801,14,1,"1b4a3af",151,2
"1539",1,1,978,17,1,"1b4a3af",152,2
"1549",1,0,866,35,1,"1b4a3af",153,2
"1559",2,0,688,1,1,"1b4a3af",154,2
"1569",2,1,584,24,1,"1b4a3af",155,2
"1579",2,1,658,28,1,"1b4a3af",156,2
"1589",1,1,850,10,1,"1b4a3af",157,2
"1599",1,1,665,18,1,"1b4a3af",158,2
"1609",1,1,674,13,1,"1b4a3af",159,2
"16113",1,0,677,34,1,"1b4a3af",160,2
"16211",1,1,1197,16,1,"1b4a3af",161,2
"1639",2,0,737,3,1,"1b4a3af",162,2
"1649",2,0,856,4,1,"1b4a3af",163,2
"1659",2,1,1061,36,1,"1b4a3af",164,2
"1669",2,0,638,7,1,"1b4a3af",165,2
"1679",2,1,608,20,1,"1b4a3af",166,2
"1689",2,0,888,9,1,"1b4a3af",167,2
"1699",2,0,1004,12,1,"1b4a3af",168,2
"1709",1,1,1012,15,1,"1b4a3af",169,2
"17113",2,1,744,27,1,"1b4a3af",170,2
"17211",2,1,540,23,1,"1b4a3af",171,2
"1739",2,0,836,8,1,"1b4a3af",172,2
"1749",2,0,548,6,1,"1b4a3af",173,2
"1759",2,1,716,33,1,"1b4a3af",174,2
"1769",2,1,547,21,1,"1b4a3af",175,2
"1779",2,1,631,29,1,"1b4a3af",176,2
"1789",2,0,510,2,1,"1b4a3af",177,2
"1799",2,1,885,22,1,"1b4a3af",178,2
"1809",2,1,400,25,1,"1b4a3af",179,2
"18113",2,1,671,30,1,"1b4a3af",180,2
"18211",1,0,745,36,1,"1b4a3af",181,2
"1839",2,0,641,1,1,"1b4a3af",182,2
"1849",1,0,984,34,1,"1b4a3af",183,2
"1859",2,0,633,7,1,"1b4a3af",184,2
"1869",2,1,537,20,1,"1b4a3af",185,2
"1879",2,1,626,30,1,"1b4a3af",186,2
"1889",2,0,705,6,1,"1b4a3af",187,2
"1899",2,0,588,8,1,"1b4a3af",188,2
"1909",2,1,844,35,1,"1b4a3af",189,2
"19113",2,0,766,3,1,"1b4a3af",190,2
"19211",2,1,722,21,1,"1b4a3af",191,2
"1939",2,0,1502,4,1,"1b4a3af",192,2
"1949",2,1,1086,24,1,"1b4a3af",193,2
"1959",2,0,1250,9,1,"1b4a3af",194,2
"1969",2,0,560,5,1,"1b4a3af",195,2
"1979",2,0,621,2,1,"1b4a3af",196,2
"1989",1,1,940,17,1,"1b4a3af",197,2
"1999",1,1,789,13,1,"1b4a3af",198,2
"2009",2,0,950,12,1,"1b4a3af",199,2
"20113",1,1,937,15,1,"1b4a3af",200,2
"20211",2,1,586,29,1,"1b4a3af",201,2
"2039",2,1,743,33,1,"1b4a3af",202,2
"2049",2,1,859,26,1,"1b4a3af",203,2
"2059",2,1,627,25,1,"1b4a3af",204,2
"2069",2,1,421,31,1,"1b4a3af",205,2
"2079",2,1,441,28,1,"1b4a3af",206,2
"2089",2,0,699,10,1,"1b4a3af",207,2
"2099",2,1,455,18,1,"1b4a3af",208,2
"21011",2,1,608,19,1,"1b4a3af",209,2
"21113",1,1,622,11,1,"1b4a3af",210,2
"21211",1,1,625,14,1,"1b4a3af",211,2
"21310",2,1,417,32,1,"1b4a3af",212,2
"2149",2,1,413,27,1,"1b4a3af",213,2
"2159",1,1,765,16,1,"1b4a3af",214,2
"2169",2,1,649,22,1,"1b4a3af",215,2
"2179",2,1,363,23,1,"1b4a3af",216,2
"2189",2,1,738,34,1,"1b4a3af",217,2
"2199",2,1,586,32,1,"1b4a3af",218,2
"2209",2,1,531,19,1,"1b4a3af",219,2
"22113",2,0,643,4,1,"1b4a3af",220,2
"22211",2,1,518,31,1,"1b4a3af",221,2
"2239",2,1,590,28,1,"1b4a3af",222,2
"2249",2,0,581,13,1,"1b4a3af",223,2
"2259",2,1,557,24,1,"1b4a3af",224,2
"2269",2,1,839,26,1,"1b4a3af",225,2
"2279",2,0,644,7,1,"1b4a3af",226,2
"2289",2,1,500,33,1,"1b4a3af",227,2
"2299",2,1,469,29,1,"1b4a3af",228,2
"2309",2,1,690,35,1,"1b4a3af",229,2
"23113",2,1,438,25,1,"1b4a3af",230,2
"23211",2,0,591,2,1,"1b4a3af",231,2
"2339",2,0,404,6,1,"1b4a3af",232,2
"2349",2,0,526,9,1,"1b4a3af",233,2
"2359",2,1,575,30,1,"1b4a3af",234,2
"2369",2,1,787,23,1,"1b4a3af",235,2
"2379",1,1,812,16,1,"1b4a3af",236,2
"2389",1,1,691,11,1,"1b4a3af",237,2
"2399",1,0,783,36,1,"1b4a3af",238,2
"2409",2,0,711,12,1,"1b4a3af",239,2
"24113",2,1,590,20,1,"1b4a3af",240,2
"24211",2,1,641,22,1,"1b4a3af",241,2
"2439",1,1,640,15,1,"1b4a3af",242,2
"2449",1,1,656,14,1,"1b4a3af",243,2
"2459",2,0,595,1,1,"1b4a3af",244,2
"2469",2,0,419,8,1,"1b4a3af",245,2
"2479",1,1,670,17,1,"1b4a3af",246,2
"2489",2,0,765,5,1,"1b4a3af",247,2
