"","keys","accuracy","rt","Fimg","Simg","feature_index","subID","trialNum","run"
"2",0,1,886,6,1,2,"f431658",1,1
"3",1,0,528,2,1,2,"f431658",2,1
"4",0,0,365,2,2,2,"f431658",3,1
"5",1,1,459,5,5,2,"f431658",4,1
"6",0,1,651,3,1,2,"f431658",5,1
"7",1,1,298,1,1,2,"f431658",6,1
"8",0,1,401,5,1,2,"f431658",7,1
"9",1,1,366,4,4,2,"f431658",8,1
"10",1,1,370,3,3,2,"f431658",9,1
"11",1,0,493,1,4,2,"f431658",10,1
"12",0,0,383,6,6,2,"f431658",11,1
"13",0,1,911,2,1,2,"f431658",12,1
"14",0,1,331,1,6,2,"f431658",13,1
"15",0,0,432,6,6,2,"f431658",14,1
"16",1,1,364,2,2,2,"f431658",15,1
"17",1,1,341,4,4,2,"f431658",16,1
"18",1,0,409,1,3,2,"f431658",17,1
"19",1,1,314,1,1,2,"f431658",18,1
"20",1,1,1107,3,3,2,"f431658",19,1
"21",1,1,372,5,5,2,"f431658",20,1
"22",0,1,597,4,1,2,"f431658",21,1
"23",0,1,391,5,1,2,"f431658",22,1
"24",0,0,1939,3,3,2,"f431658",23,1
"25",1,1,457,4,4,2,"f431658",24,1
"26",0,1,1115,3,1,2,"f431658",25,1
"27",0,1,462,1,4,2,"f431658",26,1
"28",1,1,937,6,6,2,"f431658",27,1
"29",0,0,571,5,5,2,"f431658",28,1
"30",0,1,362,1,6,2,"f431658",29,1
"31",1,1,531,2,2,2,"f431658",30,1
"32",0,1,460,5,1,2,"f431658",31,1
"33",1,1,851,1,1,2,"f431658",32,1
"34",1,0,565,1,2,2,"f431658",33,1
"35",0,0,578,2,2,2,"f431658",34,1
"36",1,0,647,1,3,2,"f431658",35,1
"37",0,1,365,1,4,2,"f431658",36,1
"38",0,1,525,2,1,2,"f431658",37,1
"39",0,1,617,1,6,2,"f431658",38,1
"40",1,1,360,1,1,2,"f431658",39,1
"41",1,0,344,5,1,2,"f431658",40,1
"42",0,0,338,5,5,2,"f431658",41,1
"43",1,1,394,3,3,2,"f431658",42,1
"44",1,1,747,4,4,2,"f431658",43,1
"45",1,1,439,6,6,2,"f431658",44,1
"46",1,1,408,1,1,2,"f431658",45,1
"47",1,1,339,2,2,2,"f431658",46,1
"48",1,0,433,2,1,2,"f431658",47,1
"49",1,1,1026,3,3,2,"f431658",48,1
"50",1,1,1237,5,5,2,"f431658",49,1
"51",1,0,411,3,1,2,"f431658",50,1
"52",0,1,672,6,1,2,"f431658",51,1
"53",1,0,394,4,1,2,"f431658",52,1
"54",1,1,626,6,6,2,"f431658",53,1
"55",0,0,754,4,4,2,"f431658",54,1
"56",1,0,1318,5,1,2,"f431658",55,1
"57",1,0,777,1,5,2,"f431658",56,1
"58",0,1,476,1,4,2,"f431658",57,1
"59",1,1,798,5,5,2,"f431658",58,1
"60",1,0,804,1,6,2,"f431658",59,1
"61",1,1,678,6,6,2,"f431658",60,1
"62",0,0,826,4,4,2,"f431658",61,1
"63",1,0,498,3,1,2,"f431658",62,1
"64",0,0,634,2,2,2,"f431658",63,1
"65",1,1,398,3,3,2,"f431658",64,1
"66",0,0,389,1,1,2,"f431658",65,1
"67",0,1,335,2,1,2,"f431658",66,1
"68",0,0,683,6,6,2,"f431658",67,1
"69",1,0,408,1,3,2,"f431658",68,1
"70",1,0,332,1,2,2,"f431658",69,1
"71",1,1,785,2,2,2,"f431658",70,1
"72",0,1,369,1,6,2,"f431658",71,1
"73",1,1,1364,4,4,2,"f431658",72,1
"74",0,0,838,3,3,2,"f431658",73,1
"75",0,1,371,1,5,2,"f431658",74,1
"76",1,1,465,1,1,2,"f431658",75,1
"77",0,1,1285,4,1,2,"f431658",76,1
"78",0,0,1017,5,5,2,"f431658",77,1
"210",1,1,1332,2,2,2,"132b1f4",1,1
"310",1,1,471,3,3,2,"132b1f4",2,1
"410",1,0,348,4,1,2,"132b1f4",3,1
"510",1,1,535,5,5,2,"132b1f4",4,1
"610",0,1,426,3,1,2,"132b1f4",5,1
"79",1,0,369,2,1,2,"132b1f4",6,1
"81",1,1,414,6,6,2,"132b1f4",7,1
"91",1,0,371,1,5,2,"132b1f4",8,1
"101",1,1,437,4,4,2,"132b1f4",9,1
"111",0,1,628,1,6,2,"132b1f4",10,1
"121",0,0,478,1,1,2,"132b1f4",11,1
"131",1,0,301,6,1,2,"132b1f4",12,1
"141",1,0,309,2,1,2,"132b1f4",13,1
"151",0,1,277,1,5,2,"132b1f4",14,1
"161",1,1,621,4,4,2,"132b1f4",15,1
"171",1,1,381,5,5,2,"132b1f4",16,1
"181",1,1,404,3,3,2,"132b1f4",17,1
"191",1,0,419,3,1,2,"132b1f4",18,1
"201",0,0,363,2,2,2,"132b1f4",19,1
"211",1,0,298,1,4,2,"132b1f4",20,1
"221",0,0,820,6,6,2,"132b1f4",21,1
"231",1,1,288,1,1,2,"132b1f4",22,1
"241",1,0,467,5,1,2,"132b1f4",23,1
"251",0,0,314,3,3,2,"132b1f4",24,1
"261",1,1,273,2,2,2,"132b1f4",25,1
"271",1,0,341,4,1,2,"132b1f4",26,1
"281",1,1,341,6,6,2,"132b1f4",27,1
"291",1,0,448,2,1,2,"132b1f4",28,1
"301",1,0,313,1,6,2,"132b1f4",29,1
"311",1,1,249,5,5,2,"132b1f4",30,1
"321",0,1,303,3,1,2,"132b1f4",31,1
"331",1,1,381,1,1,2,"132b1f4",32,1
"341",0,0,450,4,4,2,"132b1f4",33,1
"351",1,1,317,5,5,2,"132b1f4",34,1
"361",0,0,314,3,3,2,"132b1f4",35,1
"371",1,0,304,6,1,2,"132b1f4",36,1
"381",1,0,350,2,1,2,"132b1f4",37,1
"391",1,0,499,4,1,2,"132b1f4",38,1
"401",0,0,282,6,6,2,"132b1f4",39,1
"411",1,1,317,2,2,2,"132b1f4",40,1
"421",1,0,333,5,1,2,"132b1f4",41,1
"431",1,1,468,4,4,2,"132b1f4",42,1
"441",1,0,411,1,3,2,"132b1f4",43,1
"451",1,1,677,1,1,2,"132b1f4",44,1
"461",0,1,999,1,5,2,"132b1f4",45,1
"471",1,1,414,1,1,2,"132b1f4",46,1
"481",0,1,343,4,1,2,"132b1f4",47,1
"491",1,1,370,2,2,2,"132b1f4",48,1
"501",1,1,913,4,4,2,"132b1f4",49,1
"511",0,0,345,6,6,2,"132b1f4",50,1
"521",0,1,282,1,6,2,"132b1f4",51,1
"531",1,0,626,1,3,2,"132b1f4",52,1
"541",1,1,325,5,5,2,"132b1f4",53,1
"551",1,1,336,3,3,2,"132b1f4",54,1
"561",1,0,536,2,1,2,"132b1f4",55,1
"571",1,1,309,1,1,2,"132b1f4",56,1
"581",0,0,429,2,2,2,"132b1f4",57,1
"591",1,0,375,1,5,2,"132b1f4",58,1
"601",0,0,322,4,4,2,"132b1f4",59,1
"611",1,1,1191,5,5,2,"132b1f4",60,1
"621",1,1,333,6,6,2,"132b1f4",61,1
"631",1,0,342,1,3,2,"132b1f4",62,1
"641",1,0,492,4,1,2,"132b1f4",63,1
"651",1,0,373,2,1,2,"132b1f4",64,1
"661",1,1,302,3,3,2,"132b1f4",65,1
"671",1,0,301,1,6,2,"132b1f4",66,1
"681",1,0,271,5,1,2,"132b1f4",67,1
"691",1,1,614,3,3,2,"132b1f4",68,1
"701",1,1,314,4,4,2,"132b1f4",69,1
"711",0,1,345,1,6,2,"132b1f4",70,1
"721",1,1,351,6,6,2,"132b1f4",71,1
"731",1,1,316,2,2,2,"132b1f4",72,1
"741",0,1,328,1,4,2,"132b1f4",73,1
"751",1,0,386,2,1,2,"132b1f4",74,1
"761",1,1,308,1,1,2,"132b1f4",75,1
"771",1,1,273,5,5,2,"132b1f4",76,1
"781",0,1,305,3,1,2,"132b1f4",77,1
"212",1,0,823,2,1,2,"1d3a28a",1,1
"312",0,1,449,1,5,2,"1d3a28a",2,1
"412",0,0,394,3,3,2,"1d3a28a",3,1
"512",1,0,313,1,4,2,"1d3a28a",4,1
"612",1,1,333,6,6,2,"1d3a28a",5,1
"710",1,1,347,2,2,2,"1d3a28a",6,1
"82",1,1,263,4,4,2,"1d3a28a",7,1
"92",1,1,334,5,5,2,"1d3a28a",8,1
"102",1,0,541,6,1,2,"1d3a28a",9,1
"112",1,1,329,1,1,2,"1d3a28a",10,1
"122",1,0,323,3,1,2,"1d3a28a",11,1
"132",1,1,365,2,2,2,"1d3a28a",12,1
"142",0,0,422,5,5,2,"1d3a28a",13,1
"152",0,1,493,3,1,2,"1d3a28a",14,1
"162",1,1,354,6,6,2,"1d3a28a",15,1
"172",0,1,126,4,1,2,"1d3a28a",16,1
"182",1,1,392,1,1,2,"1d3a28a",17,1
"192",0,1,278,1,5,2,"1d3a28a",18,1
"202",1,1,411,3,3,2,"1d3a28a",19,1
"213",1,0,380,2,1,2,"1d3a28a",20,1
"222",0,1,461,1,6,2,"1d3a28a",21,1
"232",1,1,493,4,4,2,"1d3a28a",22,1
"242",0,1,392,1,5,2,"1d3a28a",23,1
"252",1,1,353,4,4,2,"1d3a28a",24,1
"262",1,0,740,1,3,2,"1d3a28a",25,1
"272",1,1,143,5,5,2,"1d3a28a",26,1
"282",1,1,296,3,3,2,"1d3a28a",27,1
"292",1,0,337,1,2,2,"1d3a28a",28,1
"302",1,1,288,6,6,2,"1d3a28a",29,1
"313",1,1,259,1,1,2,"1d3a28a",30,1
"322",1,1,270,2,2,2,"1d3a28a",31,1
"332",0,1,382,4,1,2,"1d3a28a",32,1
"342",0,1,817,1,6,2,"1d3a28a",33,1
"352",0,1,269,4,1,2,"1d3a28a",34,1
"362",1,1,64,5,5,2,"1d3a28a",35,1
"372",1,1,454,4,4,2,"1d3a28a",36,1
"382",1,1,342,1,1,2,"1d3a28a",37,1
"392",1,0,390,2,1,2,"1d3a28a",38,1
"402",0,1,69,5,1,2,"1d3a28a",39,1
"413",1,1,330,3,3,2,"1d3a28a",40,1
"422",0,1,272,3,1,2,"1d3a28a",41,1
"432",1,1,213,2,2,2,"1d3a28a",42,1
"442",0,1,664,1,6,2,"1d3a28a",43,1
"452",1,1,626,6,6,2,"1d3a28a",44,1
"462",0,1,805,1,4,2,"1d3a28a",45,1
"472",0,1,467,3,1,2,"1d3a28a",46,1
"482",1,1,338,4,4,2,"1d3a28a",47,1
"492",1,1,318,6,6,2,"1d3a28a",48,1
"502",1,1,388,3,3,2,"1d3a28a",49,1
"513",0,1,263,5,1,2,"1d3a28a",50,1
"522",1,1,325,5,5,2,"1d3a28a",51,1
"532",0,1,167,6,1,2,"1d3a28a",52,1
"542",1,1,467,1,1,2,"1d3a28a",53,1
"552",1,0,495,2,1,2,"1d3a28a",54,1
"562",1,1,164,2,2,2,"1d3a28a",55,1
"572",0,1,106,1,2,2,"1d3a28a",56,1
"582",1,1,237,6,6,2,"1d3a28a",57,1
"592",1,1,283,5,5,2,"1d3a28a",58,1
"602",0,1,532,1,4,2,"1d3a28a",59,1
"613",0,0,233,2,2,2,"1d3a28a",60,1
"622",0,0,435,3,3,2,"1d3a28a",61,1
"632",0,1,243,5,1,2,"1d3a28a",62,1
"642",0,1,255,6,1,2,"1d3a28a",63,1
"652",1,1,518,1,1,2,"1d3a28a",64,1
"662",1,1,872,4,4,2,"1d3a28a",65,1
"672",0,1,348,1,3,2,"1d3a28a",66,1
"682",0,1,118,5,1,2,"1d3a28a",67,1
"692",0,1,888,3,1,2,"1d3a28a",68,1
"702",1,1,450,6,6,2,"1d3a28a",69,1
"712",1,1,343,1,1,2,"1d3a28a",70,1
"722",0,1,614,1,4,2,"1d3a28a",71,1
"732",1,1,290,5,5,2,"1d3a28a",72,1
"742",0,1,256,1,6,2,"1d3a28a",73,1
"752",1,1,167,3,3,2,"1d3a28a",74,1
"762",1,1,118,4,4,2,"1d3a28a",75,1
"772",1,1,238,2,2,2,"1d3a28a",76,1
"782",0,1,591,2,1,2,"1d3a28a",77,1
"214",0,1,1448,1,6,2,"1273cfc",1,1
"314",1,1,321,5,5,2,"1273cfc",2,1
"414",1,1,304,1,1,2,"1273cfc",3,1
"514",1,1,510,3,3,2,"1273cfc",4,1
"614",1,0,386,5,1,2,"1273cfc",5,1
"713",1,0,508,1,3,2,"1273cfc",6,1
"83",1,1,524,4,4,2,"1273cfc",7,1
"93",-1,-1,0,6,6,2,"1273cfc",8,1
"103",-1,-1,0,2,1,2,"1273cfc",9,1
"113",0,0,367,2,2,2,"1273cfc",10,1
"123",1,0,427,1,4,2,"1273cfc",11,1
"133",1,0,352,1,2,2,"1273cfc",12,1
"143",1,1,336,2,2,2,"1273cfc",13,1
"153",0,1,633,1,6,2,"1273cfc",14,1
"163",1,1,307,3,3,2,"1273cfc",15,1
"173",1,1,289,5,5,2,"1273cfc",16,1
"183",1,1,414,6,6,2,"1273cfc",17,1
"193",0,0,575,4,4,2,"1273cfc",18,1
"203",0,1,658,5,1,2,"1273cfc",19,1
"215",1,1,257,1,1,2,"1273cfc",20,1
"223",1,0,754,1,3,2,"1273cfc",21,1
"233",0,1,476,4,1,2,"1273cfc",22,1
"243",1,1,351,3,3,2,"1273cfc",23,1
"253",1,1,554,2,2,2,"1273cfc",24,1
"263",1,1,322,4,4,2,"1273cfc",25,1
"273",0,1,400,1,4,2,"1273cfc",26,1
"283",1,0,178,1,2,2,"1273cfc",27,1
"293",1,1,294,5,5,2,"1273cfc",28,1
"303",1,1,336,6,6,2,"1273cfc",29,1
"315",0,1,398,1,6,2,"1273cfc",30,1
"323",0,1,493,3,1,2,"1273cfc",31,1
"333",0,1,368,5,1,2,"1273cfc",32,1
"343",1,1,492,1,1,2,"1273cfc",33,1
"353",1,1,979,6,6,2,"1273cfc",34,1
"363",1,0,1164,2,1,2,"1273cfc",35,1
"373",1,1,1072,3,3,2,"1273cfc",36,1
"383",0,1,1323,1,5,2,"1273cfc",37,1
"393",1,1,314,5,5,2,"1273cfc",38,1
"403",0,1,462,3,1,2,"1273cfc",39,1
"415",1,1,543,2,2,2,"1273cfc",40,1
"423",0,1,836,1,4,2,"1273cfc",41,1
"433",1,1,729,4,4,2,"1273cfc",42,1
"443",1,1,573,1,1,2,"1273cfc",43,1
"453",0,1,444,6,1,2,"1273cfc",44,1
"463",1,0,320,1,2,2,"1273cfc",45,1
"473",0,1,790,4,1,2,"1273cfc",46,1
"483",1,1,1429,4,4,2,"1273cfc",47,1
"493",0,1,1072,6,1,2,"1273cfc",48,1
"503",1,1,368,1,1,2,"1273cfc",49,1
"515",1,1,425,2,2,2,"1273cfc",50,1
"523",1,1,149,3,3,2,"1273cfc",51,1
"533",1,1,511,5,5,2,"1273cfc",52,1
"543",0,1,1093,3,1,2,"1273cfc",53,1
"553",1,1,370,6,6,2,"1273cfc",54,1
"563",0,1,572,1,5,2,"1273cfc",55,1
"573",1,1,513,1,1,2,"1273cfc",56,1
"583",0,1,602,1,5,2,"1273cfc",57,1
"593",1,1,507,6,6,2,"1273cfc",58,1
"603",0,1,570,3,1,2,"1273cfc",59,1
"615",1,0,335,1,2,2,"1273cfc",60,1
"623",0,1,1117,1,6,2,"1273cfc",61,1
"633",0,0,378,3,3,2,"1273cfc",62,1
"643",1,1,510,5,5,2,"1273cfc",63,1
"653",1,1,569,2,2,2,"1273cfc",64,1
"663",0,1,1682,1,4,2,"1273cfc",65,1
"673",1,1,837,4,4,2,"1273cfc",66,1
"683",0,0,789,4,4,2,"1273cfc",67,1
"693",0,1,555,1,2,2,"1273cfc",68,1
"703",1,1,698,3,3,2,"1273cfc",69,1
"714",0,1,508,1,3,2,"1273cfc",70,1
"723",1,1,274,2,2,2,"1273cfc",71,1
"733",0,1,356,5,1,2,"1273cfc",72,1
"743",1,1,448,5,5,2,"1273cfc",73,1
"753",0,1,493,6,1,2,"1273cfc",74,1
"763",1,1,539,1,1,2,"1273cfc",75,1
"773",0,1,419,4,1,2,"1273cfc",76,1
"783",1,1,617,6,6,2,"1273cfc",77,1
"216",1,1,642,2,2,3,"13d9a1d",1,1
"316",1,1,458,6,6,3,"13d9a1d",2,1
"416",1,0,336,1,3,3,"13d9a1d",3,1
"516",0,1,303,4,1,3,"13d9a1d",4,1
"616",1,0,507,5,1,3,"13d9a1d",5,1
"715",0,0,291,4,4,3,"13d9a1d",6,1
"84",0,0,346,1,1,3,"13d9a1d",7,1
"94",0,0,787,3,3,3,"13d9a1d",8,1
"104",1,0,269,1,2,3,"13d9a1d",9,1
"114",0,1,235,6,1,3,"13d9a1d",10,1
"124",1,1,275,5,5,3,"13d9a1d",11,1
"134",1,1,530,6,6,3,"13d9a1d",12,1
"144",0,1,206,4,1,3,"13d9a1d",13,1
"154",1,0,306,1,2,3,"13d9a1d",14,1
"164",0,0,474,5,5,3,"13d9a1d",15,1
"174",0,0,453,2,2,3,"13d9a1d",16,1
"184",0,1,521,1,6,3,"13d9a1d",17,1
"194",1,1,275,3,3,3,"13d9a1d",18,1
"204",0,1,328,5,1,3,"13d9a1d",19,1
"217",1,1,563,4,4,3,"13d9a1d",20,1
"224",1,0,423,1,3,3,"13d9a1d",21,1
"234",1,1,304,1,1,3,"13d9a1d",22,1
"244",1,1,369,2,2,3,"13d9a1d",23,1
"254",0,0,322,4,4,3,"13d9a1d",24,1
"264",0,1,353,1,6,3,"13d9a1d",25,1
"274",1,1,481,3,3,3,"13d9a1d",26,1
"284",1,0,279,1,2,3,"13d9a1d",27,1
"294",1,1,322,6,6,3,"13d9a1d",28,1
"304",0,0,435,1,1,3,"13d9a1d",29,1
"317",0,1,314,1,4,3,"13d9a1d",30,1
"324",1,1,303,5,5,3,"13d9a1d",31,1
"334",1,0,447,1,3,3,"13d9a1d",32,1
"344",0,1,237,1,5,3,"13d9a1d",33,1
"354",1,1,357,1,1,3,"13d9a1d",34,1
"364",1,1,99,2,2,3,"13d9a1d",35,1
"374",1,0,299,2,1,3,"13d9a1d",36,1
"384",0,1,280,1,4,3,"13d9a1d",37,1
"394",1,1,599,3,3,3,"13d9a1d",38,1
"404",1,0,317,1,3,3,"13d9a1d",39,1
"417",0,0,172,4,4,3,"13d9a1d",40,1
"424",1,1,302,6,6,3,"13d9a1d",41,1
"434",0,0,435,5,5,3,"13d9a1d",42,1
"444",0,1,273,6,1,3,"13d9a1d",43,1
"454",0,1,246,5,1,3,"13d9a1d",44,1
"464",0,1,417,1,6,3,"13d9a1d",45,1
"474",0,1,357,1,4,3,"13d9a1d",46,1
"484",1,0,410,2,1,3,"13d9a1d",47,1
"494",1,1,805,2,2,3,"13d9a1d",48,1
"504",1,0,280,1,3,3,"13d9a1d",49,1
"517",1,1,120,5,5,3,"13d9a1d",50,1
"524",1,1,36,3,3,3,"13d9a1d",51,1
"534",1,1,338,6,6,3,"13d9a1d",52,1
"544",1,1,379,4,4,3,"13d9a1d",53,1
"554",1,1,362,1,1,3,"13d9a1d",54,1
"564",1,0,252,1,5,3,"13d9a1d",55,1
"574",1,1,336,4,4,3,"13d9a1d",56,1
"584",0,1,302,6,1,3,"13d9a1d",57,1
"594",1,0,384,1,2,3,"13d9a1d",58,1
"604",1,1,249,5,5,3,"13d9a1d",59,1
"617",0,1,310,1,5,3,"13d9a1d",60,1
"624",1,1,359,6,6,3,"13d9a1d",61,1
"634",0,1,392,1,4,3,"13d9a1d",62,1
"644",1,1,821,3,3,3,"13d9a1d",63,1
"654",1,1,592,2,2,3,"13d9a1d",64,1
"664",1,0,355,1,3,3,"13d9a1d",65,1
"674",1,1,342,1,1,3,"13d9a1d",66,1
"684",0,1,344,1,4,3,"13d9a1d",67,1
"694",1,1,507,1,1,3,"13d9a1d",68,1
"704",1,1,359,5,5,3,"13d9a1d",69,1
"716",1,1,523,4,4,3,"13d9a1d",70,1
"724",0,1,204,6,1,3,"13d9a1d",71,1
"734",1,0,447,2,1,3,"13d9a1d",72,1
"744",1,1,268,3,3,3,"13d9a1d",73,1
"754",1,0,491,5,1,3,"13d9a1d",74,1
"764",1,1,498,2,2,3,"13d9a1d",75,1
"774",0,1,370,3,1,3,"13d9a1d",76,1
"784",1,1,394,6,6,3,"13d9a1d",77,1
"218",0,1,852,2,1,2,"1584d36",1,1
"318",0,0,307,2,2,2,"1584d36",2,1
"418",0,0,260,3,3,2,"1584d36",3,1
"518",1,0,315,3,1,2,"1584d36",4,1
"618",0,1,677,1,4,2,"1584d36",5,1
"717",0,0,975,4,4,2,"1584d36",6,1
"85",0,1,436,5,1,2,"1584d36",7,1
"95",0,0,141,1,1,2,"1584d36",8,1
"105",0,0,37,5,5,2,"1584d36",9,1
"115",0,1,310,6,1,2,"1584d36",10,1
"125",0,0,425,6,6,2,"1584d36",11,1
"135",0,0,237,5,5,2,"1584d36",12,1
"145",1,1,335,2,2,2,"1584d36",13,1
"155",0,0,300,6,6,2,"1584d36",14,1
"165",1,1,290,3,3,2,"1584d36",15,1
"175",1,1,269,4,4,2,"1584d36",16,1
"185",0,1,348,2,1,2,"1584d36",17,1
"195",0,1,619,6,1,2,"1584d36",18,1
"205",0,0,193,1,1,2,"1584d36",19,1
"219",1,0,288,5,1,2,"1584d36",20,1
"225",1,0,387,1,4,2,"1584d36",21,1
"235",1,0,284,1,3,2,"1584d36",22,1
"245",0,1,363,2,1,2,"1584d36",23,1
"255",0,1,314,4,1,2,"1584d36",24,1
"265",0,0,304,4,4,2,"1584d36",25,1
"275",0,0,175,3,3,2,"1584d36",26,1
"285",1,1,515,6,6,2,"1584d36",27,1
"295",0,0,324,2,2,2,"1584d36",28,1
"305",1,0,833,1,6,2,"1584d36",29,1
"319",0,0,547,1,1,2,"1584d36",30,1
"325",0,1,330,5,1,2,"1584d36",31,1
"335",0,0,270,5,5,2,"1584d36",32,1
"345",0,1,343,3,1,2,"1584d36",33,1
"355",0,1,477,2,1,2,"1584d36",34,1
"365",0,1,857,1,6,2,"1584d36",35,1
"375",0,0,307,1,1,2,"1584d36",36,1
"385",0,0,367,2,2,2,"1584d36",37,1
"395",0,0,374,4,4,2,"1584d36",38,1
"405",0,0,208,6,6,2,"1584d36",39,1
"419",1,0,305,5,1,2,"1584d36",40,1
"425",0,1,275,3,1,2,"1584d36",41,1
"435",1,0,280,4,1,2,"1584d36",42,1
"445",0,0,312,3,3,2,"1584d36",43,1
"455",0,0,733,5,5,2,"1584d36",44,1
"465",0,0,190,5,5,2,"1584d36",45,1
"475",0,0,893,3,3,2,"1584d36",46,1
"485",0,0,511,6,6,2,"1584d36",47,1
"495",-1,-1,0,1,1,2,"1584d36",48,1
"505",0,1,508,4,1,2,"1584d36",49,1
"519",0,1,542,1,2,2,"1584d36",50,1
"525",0,1,333,6,1,2,"1584d36",51,1
"535",1,0,334,1,3,2,"1584d36",52,1
"545",0,1,495,5,1,2,"1584d36",53,1
"555",1,1,325,4,4,2,"1584d36",54,1
"565",-1,-1,0,2,2,2,"1584d36",55,1
"575",1,1,372,4,4,2,"1584d36",56,1
"585",1,0,485,5,1,2,"1584d36",57,1
"595",1,1,285,5,5,2,"1584d36",58,1
"605",0,0,375,6,6,2,"1584d36",59,1
"619",-1,-1,0,3,1,2,"1584d36",60,1
"625",0,1,306,2,1,2,"1584d36",61,1
"635",0,0,425,3,3,2,"1584d36",62,1
"645",1,1,538,1,1,2,"1584d36",63,1
"655",0,1,287,4,1,2,"1584d36",64,1
"665",0,1,102,1,6,2,"1584d36",65,1
"675",1,1,339,2,2,2,"1584d36",66,1
"685",0,1,974,2,1,2,"1584d36",67,1
"695",0,1,871,1,4,2,"1584d36",68,1
"705",-1,-1,0,5,1,2,"1584d36",69,1
"718",0,1,1969,3,1,2,"1584d36",70,1
"725",-1,-1,0,3,3,2,"1584d36",71,1
"735",-1,-1,0,5,5,2,"1584d36",72,1
"745",0,0,315,1,1,2,"1584d36",73,1
"755",0,1,581,1,6,2,"1584d36",74,1
"765",-1,-1,0,4,4,2,"1584d36",75,1
"775",0,0,352,2,2,2,"1584d36",76,1
"785",0,0,260,6,6,2,"1584d36",77,1
"220",1,0,647,1,6,3,"1cc4275",1,1
"320",1,1,433,4,4,3,"1cc4275",2,1
"420",1,1,476,5,5,3,"1cc4275",3,1
"520",0,1,311,1,2,3,"1cc4275",4,1
"620",1,0,305,1,3,3,"1cc4275",5,1
"719",1,0,367,4,1,3,"1cc4275",6,1
"86",0,0,388,2,2,3,"1cc4275",7,1
"96",1,1,321,1,1,3,"1cc4275",8,1
"106",0,0,262,6,6,3,"1cc4275",9,1
"116",1,1,257,3,3,3,"1cc4275",10,1
"126",1,0,83,5,1,3,"1cc4275",11,1
"136",1,0,298,6,1,3,"1cc4275",12,1
"146",1,1,276,4,4,3,"1cc4275",13,1
"156",1,1,350,3,3,3,"1cc4275",14,1
"166",1,0,280,1,4,3,"1cc4275",15,1
"176",1,0,361,2,1,3,"1cc4275",16,1
"186",1,1,404,6,6,3,"1cc4275",17,1
"196",1,1,307,2,2,3,"1cc4275",18,1
"206",1,1,290,5,5,3,"1cc4275",19,1
"2110",0,1,283,3,1,3,"1cc4275",20,1
"226",0,1,309,1,5,3,"1cc4275",21,1
"236",1,1,287,1,1,3,"1cc4275",22,1
"246",0,1,491,1,6,3,"1cc4275",23,1
"256",1,1,292,5,5,3,"1cc4275",24,1
"266",1,1,292,1,1,3,"1cc4275",25,1
"276",1,1,290,2,2,3,"1cc4275",26,1
"286",0,1,302,1,3,3,"1cc4275",27,1
"296",1,1,224,6,6,3,"1cc4275",28,1
"306",1,1,285,3,3,3,"1cc4275",29,1
"3110",0,1,270,1,2,3,"1cc4275",30,1
"326",0,1,297,4,1,3,"1cc4275",31,1
"336",0,1,249,5,1,3,"1cc4275",32,1
"346",1,1,262,4,4,3,"1cc4275",33,1
"356",1,1,278,4,4,3,"1cc4275",34,1
"366",1,0,206,1,2,3,"1cc4275",35,1
"376",0,1,269,1,4,3,"1cc4275",36,1
"386",1,1,241,1,1,3,"1cc4275",37,1
"396",0,1,355,5,1,3,"1cc4275",38,1
"406",1,1,395,6,6,3,"1cc4275",39,1
"4110",1,1,462,5,5,3,"1cc4275",40,1
"426",0,1,255,1,6,3,"1cc4275",41,1
"436",1,1,289,2,2,3,"1cc4275",42,1
"446",0,1,351,3,1,3,"1cc4275",43,1
"456",-1,-1,0,3,3,3,"1cc4275",44,1
"466",0,1,258,3,1,3,"1cc4275",45,1
"476",1,1,290,3,3,3,"1cc4275",46,1
"486",1,1,393,1,1,3,"1cc4275",47,1
"496",1,1,291,4,4,3,"1cc4275",48,1
"506",1,1,302,5,5,3,"1cc4275",49,1
"5110",0,1,322,4,1,3,"1cc4275",50,1
"526",1,1,825,6,6,3,"1cc4275",51,1
"536",0,1,246,5,1,3,"1cc4275",52,1
"546",0,1,280,1,2,3,"1cc4275",53,1
"556",0,1,301,1,6,3,"1cc4275",54,1
"566",1,1,295,2,2,3,"1cc4275",55,1
"576",0,1,325,1,5,3,"1cc4275",56,1
"586",0,1,272,1,4,3,"1cc4275",57,1
"596",1,1,283,4,4,3,"1cc4275",58,1
"606",1,1,259,5,5,3,"1cc4275",59,1
"6110",1,1,268,2,2,3,"1cc4275",60,1
"626",1,1,221,6,6,3,"1cc4275",61,1
"636",0,1,304,1,3,3,"1cc4275",62,1
"646",1,1,285,3,3,3,"1cc4275",63,1
"656",1,1,268,1,1,3,"1cc4275",64,1
"666",0,1,231,6,1,3,"1cc4275",65,1
"676",0,1,259,2,1,3,"1cc4275",66,1
"686",1,1,266,6,6,3,"1cc4275",67,1
"696",1,1,306,1,1,3,"1cc4275",68,1
"706",1,1,259,2,2,3,"1cc4275",69,1
"7110",0,1,286,5,1,3,"1cc4275",70,1
"726",0,1,233,1,2,3,"1cc4275",71,1
"736",1,1,257,5,5,3,"1cc4275",72,1
"746",1,1,257,4,4,3,"1cc4275",73,1
"756",0,1,353,4,1,3,"1cc4275",74,1
"766",1,1,326,3,3,3,"1cc4275",75,1
"776",0,1,431,1,3,3,"1cc4275",76,1
"786",0,1,376,6,1,3,"1cc4275",77,1
"227",1,0,559,1,3,1,"1539ca4",1,1
"327",1,1,405,1,1,1,"1539ca4",2,1
"427",0,1,781,1,2,1,"1539ca4",3,1
"527",1,1,368,2,2,1,"1539ca4",4,1
"627",0,0,477,3,3,1,"1539ca4",5,1
"720",1,0,335,6,1,1,"1539ca4",6,1
"87",1,1,275,5,5,1,"1539ca4",7,1
"97",0,1,347,1,5,1,"1539ca4",8,1
"107",0,1,338,1,4,1,"1539ca4",9,1
"117",1,1,329,6,6,1,"1539ca4",10,1
"127",0,0,393,4,4,1,"1539ca4",11,1
"137",0,0,404,5,5,1,"1539ca4",12,1
"147",0,1,313,1,6,1,"1539ca4",13,1
"157",0,1,483,1,5,1,"1539ca4",14,1
"167",1,1,336,6,6,1,"1539ca4",15,1
"177",1,0,346,1,4,1,"1539ca4",16,1
"187",1,1,338,2,2,1,"1539ca4",17,1
"197",1,1,398,1,1,1,"1539ca4",18,1
"207",1,1,358,4,4,1,"1539ca4",19,1
"2111",1,0,292,1,2,1,"1539ca4",20,1
"228",0,0,315,3,3,1,"1539ca4",21,1
"237",0,1,342,1,3,1,"1539ca4",22,1
"247",0,1,377,4,1,1,"1539ca4",23,1
"257",1,1,418,6,6,1,"1539ca4",24,1
"267",1,1,374,2,2,1,"1539ca4",25,1
"277",0,1,470,1,5,1,"1539ca4",26,1
"287",0,1,481,2,1,1,"1539ca4",27,1
"297",0,1,651,1,6,1,"1539ca4",28,1
"307",0,0,241,4,4,1,"1539ca4",29,1
"3111",1,1,290,5,5,1,"1539ca4",30,1
"328",0,1,385,3,1,1,"1539ca4",31,1
"337",1,1,207,3,3,1,"1539ca4",32,1
"347",1,1,305,1,1,1,"1539ca4",33,1
"357",1,1,405,6,6,1,"1539ca4",34,1
"367",0,1,380,1,3,1,"1539ca4",35,1
"377",0,1,295,5,1,1,"1539ca4",36,1
"387",0,1,380,6,1,1,"1539ca4",37,1
"397",1,1,323,1,1,1,"1539ca4",38,1
"407",1,1,290,2,2,1,"1539ca4",39,1
"4111",1,1,372,3,3,1,"1539ca4",40,1
"428",1,0,314,4,1,1,"1539ca4",41,1
"437",0,1,322,1,2,1,"1539ca4",42,1
"447",1,1,341,5,5,1,"1539ca4",43,1
"457",1,1,260,4,4,1,"1539ca4",44,1
"467",1,1,304,5,5,1,"1539ca4",45,1
"477",0,1,501,3,1,1,"1539ca4",46,1
"487",1,1,329,1,1,1,"1539ca4",47,1
"497",1,1,304,4,4,1,"1539ca4",48,1
"507",0,1,185,4,1,1,"1539ca4",49,1
"5111",0,1,290,1,5,1,"1539ca4",50,1
"528",1,0,286,2,1,1,"1539ca4",51,1
"537",0,1,248,1,6,1,"1539ca4",52,1
"547",0,0,413,6,6,1,"1539ca4",53,1
"557",1,1,401,3,3,1,"1539ca4",54,1
"567",1,1,309,2,2,1,"1539ca4",55,1
"577",0,1,331,1,5,1,"1539ca4",56,1
"587",1,1,324,3,3,1,"1539ca4",57,1
"597",1,1,1004,4,4,1,"1539ca4",58,1
"607",1,1,251,1,1,1,"1539ca4",59,1
"6111",0,1,371,6,1,1,"1539ca4",60,1
"628",1,1,1174,5,5,1,"1539ca4",61,1
"637",1,0,685,4,1,1,"1539ca4",62,1
"647",-1,-1,0,1,3,1,"1539ca4",63,1
"657",0,1,730,1,2,1,"1539ca4",64,1
"667",1,1,326,2,2,1,"1539ca4",65,1
"677",1,1,458,6,6,1,"1539ca4",66,1
"687",1,1,305,3,3,1,"1539ca4",67,1
"697",1,1,405,4,4,1,"1539ca4",68,1
"707",0,1,353,1,5,1,"1539ca4",69,1
"7111",1,1,331,5,5,1,"1539ca4",70,1
"727",0,1,418,1,6,1,"1539ca4",71,1
"737",0,1,328,1,3,1,"1539ca4",72,1
"747",1,0,284,1,2,1,"1539ca4",73,1
"757",1,1,326,6,6,1,"1539ca4",74,1
"767",0,1,251,4,1,1,"1539ca4",75,1
"777",1,1,247,1,1,1,"1539ca4",76,1
"787",1,1,261,2,2,1,"1539ca4",77,1
"229",1,1,1682,4,4,3,"7c3b1e8",1,1
"329",1,1,512,5,5,3,"7c3b1e8",2,1
"429",1,1,382,3,3,3,"7c3b1e8",3,1
"529",1,0,681,4,1,3,"7c3b1e8",4,1
"629",1,1,402,1,1,3,"7c3b1e8",5,1
"728",1,0,330,1,3,3,"7c3b1e8",6,1
"88",1,1,738,6,6,3,"7c3b1e8",7,1
"98",1,1,331,2,2,3,"7c3b1e8",8,1
"108",1,0,417,1,5,3,"7c3b1e8",9,1
"118",0,1,337,2,1,3,"7c3b1e8",10,1
"128",0,1,390,6,1,3,"7c3b1e8",11,1
"138",1,1,273,6,6,3,"7c3b1e8",12,1
"148",0,1,354,5,1,3,"7c3b1e8",13,1
"158",0,1,312,1,3,3,"7c3b1e8",14,1
"168",1,1,356,3,3,3,"7c3b1e8",15,1
"178",1,1,254,1,1,3,"7c3b1e8",16,1
"188",0,1,345,1,4,3,"7c3b1e8",17,1
"198",1,1,310,2,2,3,"7c3b1e8",18,1
"208",1,1,498,4,4,3,"7c3b1e8",19,1
"2112",1,1,261,5,5,3,"7c3b1e8",20,1
"2210",0,1,536,2,1,3,"7c3b1e8",21,1
"238",0,1,299,1,6,3,"7c3b1e8",22,1
"248",1,1,358,3,3,3,"7c3b1e8",23,1
"258",1,1,267,5,5,3,"7c3b1e8",24,1
"268",1,1,254,1,1,3,"7c3b1e8",25,1
"278",0,1,265,6,1,3,"7c3b1e8",26,1
"288",1,1,253,4,4,3,"7c3b1e8",27,1
"298",0,1,313,1,4,3,"7c3b1e8",28,1
"308",0,1,357,5,1,3,"7c3b1e8",29,1
"3112",1,1,247,6,6,3,"7c3b1e8",30,1
"3210",0,1,251,1,2,3,"7c3b1e8",31,1
"338",0,1,495,3,1,3,"7c3b1e8",32,1
"348",1,1,387,2,2,3,"7c3b1e8",33,1
"358",1,1,325,1,1,3,"7c3b1e8",34,1
"368",1,1,377,2,2,3,"7c3b1e8",35,1
"378",0,1,873,1,5,3,"7c3b1e8",36,1
"388",0,1,329,1,3,3,"7c3b1e8",37,1
"398",1,1,317,3,3,3,"7c3b1e8",38,1
"408",0,1,472,6,1,3,"7c3b1e8",39,1
"4112",1,1,243,4,4,3,"7c3b1e8",40,1
"4210",0,1,358,2,1,3,"7c3b1e8",41,1
"438",1,1,458,6,6,3,"7c3b1e8",42,1
"448",1,1,359,5,5,3,"7c3b1e8",43,1
"458",0,1,312,1,4,3,"7c3b1e8",44,1
"468",1,1,352,3,3,3,"7c3b1e8",45,1
"478",1,1,368,4,4,3,"7c3b1e8",46,1
"488",1,1,367,5,5,3,"7c3b1e8",47,1
"498",1,1,302,6,6,3,"7c3b1e8",48,1
"508",0,1,336,1,3,3,"7c3b1e8",49,1
"5112",0,1,311,1,2,3,"7c3b1e8",50,1
"5210",1,1,352,1,1,3,"7c3b1e8",51,1
"538",0,1,301,1,4,3,"7c3b1e8",52,1
"548",0,1,376,1,6,3,"7c3b1e8",53,1
"558",0,1,267,5,1,3,"7c3b1e8",54,1
"568",1,1,255,2,2,3,"7c3b1e8",55,1
"578",0,1,435,2,1,3,"7c3b1e8",56,1
"588",1,1,559,4,4,3,"7c3b1e8",57,1
"598",1,1,330,5,5,3,"7c3b1e8",58,1
"608",0,1,406,1,6,3,"7c3b1e8",59,1
"6112",1,1,265,1,1,3,"7c3b1e8",60,1
"6210",0,1,352,4,1,3,"7c3b1e8",61,1
"638",1,1,536,3,3,3,"7c3b1e8",62,1
"648",0,1,397,5,1,3,"7c3b1e8",63,1
"658",0,1,311,1,3,3,"7c3b1e8",64,1
"668",1,1,366,2,2,3,"7c3b1e8",65,1
"678",1,1,534,6,6,3,"7c3b1e8",66,1
"688",1,1,366,5,5,3,"7c3b1e8",67,1
"698",1,1,276,6,6,3,"7c3b1e8",68,1
"708",0,1,366,1,5,3,"7c3b1e8",69,1
"7112",0,1,444,6,1,3,"7c3b1e8",70,1
"729",0,1,456,1,2,3,"7c3b1e8",71,1
"738",1,1,411,3,3,3,"7c3b1e8",72,1
"748",1,1,382,2,2,3,"7c3b1e8",73,1
"758",0,1,378,3,1,3,"7c3b1e8",74,1
"768",1,1,406,4,4,3,"7c3b1e8",75,1
"778",0,1,297,4,1,3,"7c3b1e8",76,1
"788",1,1,509,1,1,3,"7c3b1e8",77,1
"230",1,1,613,1,1,3,"1566a9e",1,1
"330",1,1,411,2,2,3,"1566a9e",2,1
"430",1,0,544,3,1,3,"1566a9e",3,1
"530",1,1,265,6,6,3,"1566a9e",4,1
"630",1,0,284,4,1,3,"1566a9e",5,1
"730",1,0,349,1,2,3,"1566a9e",6,1
"89",1,1,340,4,4,3,"1566a9e",7,1
"99",1,0,338,5,1,3,"1566a9e",8,1
"109",1,1,291,3,3,3,"1566a9e",9,1
"119",1,0,321,6,1,3,"1566a9e",10,1
"129",1,1,451,5,5,3,"1566a9e",11,1
"139",0,0,320,2,2,3,"1566a9e",12,1
"149",0,0,353,4,4,3,"1566a9e",13,1
"159",0,1,666,1,3,3,"1566a9e",14,1
"169",1,0,525,1,4,3,"1566a9e",15,1
"179",1,1,481,6,6,3,"1566a9e",16,1
"189",1,0,635,1,6,3,"1566a9e",17,1
"199",1,1,336,1,1,3,"1566a9e",18,1
"209",1,1,370,3,3,3,"1566a9e",19,1
"2113",0,1,755,1,5,3,"1566a9e",20,1
"2211",0,1,404,2,1,3,"1566a9e",21,1
"239",1,1,778,5,5,3,"1566a9e",22,1
"249",1,1,507,2,2,3,"1566a9e",23,1
"259",1,1,330,6,6,3,"1566a9e",24,1
"269",1,0,449,1,4,3,"1566a9e",25,1
"279",1,1,457,1,1,3,"1566a9e",26,1
"289",1,0,363,2,1,3,"1566a9e",27,1
"299",1,1,306,3,3,3,"1566a9e",28,1
"309",1,1,338,4,4,3,"1566a9e",29,1
"3113",1,0,1277,1,5,3,"1566a9e",30,1
"3211",1,0,630,1,3,3,"1566a9e",31,1
"339",1,1,346,5,5,3,"1566a9e",32,1
"349",1,0,539,6,1,3,"1566a9e",33,1
"359",1,0,607,2,1,3,"1566a9e",34,1
"369",1,1,486,1,1,3,"1566a9e",35,1
"379",0,1,388,4,1,3,"1566a9e",36,1
"389",1,1,329,2,2,3,"1566a9e",37,1
"399",1,1,331,6,6,3,"1566a9e",38,1
"409",1,1,920,3,3,3,"1566a9e",39,1
"4113",1,0,882,3,1,3,"1566a9e",40,1
"4211",1,1,354,5,5,3,"1566a9e",41,1
"439",1,0,228,5,1,3,"1566a9e",42,1
"449",1,0,465,6,1,3,"1566a9e",43,1
"459",1,1,987,4,4,3,"1566a9e",44,1
"469",1,0,475,6,1,3,"1566a9e",45,1
"479",1,0,1864,1,2,3,"1566a9e",46,1
"489",1,1,1005,6,6,3,"1566a9e",47,1
"499",1,0,237,1,5,3,"1566a9e",48,1
"509",1,0,403,1,4,3,"1566a9e",49,1
"5113",1,1,589,3,3,3,"1566a9e",50,1
"5211",1,1,733,1,1,3,"1566a9e",51,1
"539",1,0,1309,3,1,3,"1566a9e",52,1
"549",1,1,374,2,2,3,"1566a9e",53,1
"559",1,1,332,5,5,3,"1566a9e",54,1
"569",1,1,1188,4,4,3,"1566a9e",55,1
"579",1,0,315,6,1,3,"1566a9e",56,1
"589",1,0,327,2,1,3,"1566a9e",57,1
"599",1,1,732,5,5,3,"1566a9e",58,1
"609",-1,-1,0,3,1,3,"1566a9e",59,1
"6113",1,1,456,4,4,3,"1566a9e",60,1
"6211",1,0,1151,1,5,3,"1566a9e",61,1
"639",1,1,745,6,6,3,"1566a9e",62,1
"649",1,1,409,1,1,3,"1566a9e",63,1
"659",1,0,443,1,4,3,"1566a9e",64,1
"669",1,1,1547,3,3,3,"1566a9e",65,1
"679",1,1,669,2,2,3,"1566a9e",66,1
"689",1,0,779,6,1,3,"1566a9e",67,1
"699",1,0,976,1,4,3,"1566a9e",68,1
"709",1,1,520,5,5,3,"1566a9e",69,1
"7113",1,1,295,3,3,3,"1566a9e",70,1
"7210",1,0,1473,2,1,3,"1566a9e",71,1
"739",1,1,669,1,1,3,"1566a9e",72,1
"749",-1,-1,0,2,2,3,"1566a9e",73,1
"759",1,0,1607,5,1,3,"1566a9e",74,1
"769",1,1,1717,6,6,3,"1566a9e",75,1
"779",1,0,1773,1,3,3,"1566a9e",76,1
"789",1,1,368,4,4,3,"1566a9e",77,1
"240",1,1,1839,5,5,3,"14ee05a",1,1
"340",1,1,583,3,3,3,"14ee05a",2,1
"440",1,0,747,1,4,3,"14ee05a",3,1
"540",1,1,595,2,2,3,"14ee05a",4,1
"640",1,0,302,1,3,3,"14ee05a",5,1
"740",1,0,465,5,1,3,"14ee05a",6,1
"810",1,1,508,6,6,3,"14ee05a",7,1
"910",1,0,366,1,2,3,"14ee05a",8,1
"1010",1,1,531,4,4,3,"14ee05a",9,1
"1110",0,0,505,1,1,3,"14ee05a",10,1
"1210",0,1,539,6,1,3,"14ee05a",11,1
"1310",1,1,525,2,2,3,"14ee05a",12,1
"1410",0,1,455,1,6,3,"14ee05a",13,1
"1510",0,0,508,1,1,3,"14ee05a",14,1
"1610",0,0,290,3,3,3,"14ee05a",15,1
"1710",1,1,335,5,5,3,"14ee05a",16,1
"1810",0,1,403,2,1,3,"14ee05a",17,1
"1910",0,1,483,1,4,3,"14ee05a",18,1
"2010",0,1,342,5,1,3,"14ee05a",19,1
"2114",1,1,497,6,6,3,"14ee05a",20,1
"2212",1,1,467,4,4,3,"14ee05a",21,1
"2310",0,1,579,1,3,3,"14ee05a",22,1
"2410",0,1,330,3,1,3,"14ee05a",23,1
"2510",1,1,384,4,4,3,"14ee05a",24,1
"2610",1,1,333,2,2,3,"14ee05a",25,1
"2710",0,1,580,1,4,3,"14ee05a",26,1
"2810",0,1,379,2,1,3,"14ee05a",27,1
"2910",1,1,557,6,6,3,"14ee05a",28,1
"3010",0,1,621,6,1,3,"14ee05a",29,1
"3114",1,1,1432,5,5,3,"14ee05a",30,1
"3212",1,1,465,1,1,3,"14ee05a",31,1
"3310",0,1,564,1,5,3,"14ee05a",32,1
"3410",1,1,386,3,3,3,"14ee05a",33,1
"3510",1,1,410,4,4,3,"14ee05a",34,1
"3610",0,1,481,3,1,3,"14ee05a",35,1
"3710",1,1,342,2,2,3,"14ee05a",36,1
"3810",1,1,593,1,1,3,"14ee05a",37,1
"3910",1,1,345,3,3,3,"14ee05a",38,1
"4010",0,1,82,2,1,3,"14ee05a",39,1
"4114",1,1,601,6,6,3,"14ee05a",40,1
"4212",1,1,404,5,5,3,"14ee05a",41,1
"4310",0,1,372,4,1,3,"14ee05a",42,1
"4410",0,1,532,1,6,3,"14ee05a",43,1
"4510",0,1,368,5,1,3,"14ee05a",44,1
"4610",0,1,553,1,5,3,"14ee05a",45,1
"4710",1,1,404,2,2,3,"14ee05a",46,1
"4810",1,1,467,5,5,3,"14ee05a",47,1
"4910",1,1,476,3,3,3,"14ee05a",48,1
"5010",1,1,563,1,1,3,"14ee05a",49,1
"5114",0,1,615,1,4,3,"14ee05a",50,1
"5212",0,1,475,2,1,3,"14ee05a",51,1
"5310",0,1,529,6,1,3,"14ee05a",52,1
"5410",1,1,565,6,6,3,"14ee05a",53,1
"5510",1,1,500,4,4,3,"14ee05a",54,1
"5610",0,1,568,1,3,3,"14ee05a",55,1
"5710",1,1,496,5,5,3,"14ee05a",56,1
"5810",0,1,350,1,2,3,"14ee05a",57,1
"5910",1,1,426,2,2,3,"14ee05a",58,1
"6010",0,1,527,5,1,3,"14ee05a",59,1
"6114",0,1,345,1,6,3,"14ee05a",60,1
"6212",1,1,555,1,1,3,"14ee05a",61,1
"6310",0,1,560,1,3,3,"14ee05a",62,1
"6410",1,1,498,4,4,3,"14ee05a",63,1
"6510",0,1,468,1,4,3,"14ee05a",64,1
"6610",1,1,694,3,3,3,"14ee05a",65,1
"6710",1,1,426,6,6,3,"14ee05a",66,1
"6810",0,1,369,1,6,3,"14ee05a",67,1
"6910",1,1,356,4,4,3,"14ee05a",68,1
"7010",0,1,689,1,5,3,"14ee05a",69,1
"7114",1,1,1071,3,3,3,"14ee05a",70,1
"7211",1,0,490,1,2,3,"14ee05a",71,1
"7310",1,1,301,5,5,3,"14ee05a",72,1
"7410",1,1,512,2,2,3,"14ee05a",73,1
"7510",0,1,880,1,3,3,"14ee05a",74,1
"7610",0,1,490,4,1,3,"14ee05a",75,1
"7710",1,1,1126,1,1,3,"14ee05a",76,1
"7810",1,1,473,6,6,3,"14ee05a",77,1
"250",1,1,956,6,6,1,"1dc7147",1,1
"350",1,1,439,3,3,1,"1dc7147",2,1
"450",0,1,586,1,6,1,"1dc7147",3,1
"550",0,1,254,5,1,1,"1dc7147",4,1
"650",1,1,476,4,4,1,"1dc7147",5,1
"750",1,0,522,2,1,1,"1dc7147",6,1
"811",0,0,596,5,5,1,"1dc7147",7,1
"911",1,1,350,2,2,1,"1dc7147",8,1
"1011",0,1,737,1,3,1,"1dc7147",9,1
"1111",0,1,632,4,1,1,"1dc7147",10,1
"1211",1,1,315,1,1,1,"1dc7147",11,1
"1311",1,1,513,2,2,1,"1dc7147",12,1
"1411",1,1,1117,3,3,1,"1dc7147",13,1
"1511",0,1,626,1,6,1,"1dc7147",14,1
"1611",0,1,286,4,1,1,"1dc7147",15,1
"1711",0,1,292,3,1,1,"1dc7147",16,1
"1811",1,1,553,1,1,1,"1dc7147",17,1
"1911",0,1,240,1,5,1,"1dc7147",18,1
"2011",1,1,320,4,4,1,"1dc7147",19,1
"2115",1,1,310,5,5,1,"1dc7147",20,1
"2213",1,1,936,6,6,1,"1dc7147",21,1
"2311",1,0,305,2,1,1,"1dc7147",22,1
"2411",1,1,444,1,1,1,"1dc7147",23,1
"2511",0,1,213,4,1,1,"1dc7147",24,1
"2611",1,1,410,3,3,1,"1dc7147",25,1
"2711",1,1,345,5,5,1,"1dc7147",26,1
"2811",1,0,443,1,2,1,"1dc7147",27,1
"2911",1,1,316,4,4,1,"1dc7147",28,1
"3011",1,1,314,2,2,1,"1dc7147",29,1
"3115",1,1,251,6,6,1,"1dc7147",30,1
"3213",1,0,301,3,1,1,"1dc7147",31,1
"3311",0,1,613,1,5,1,"1dc7147",32,1
"3411",0,1,258,6,1,1,"1dc7147",33,1
"3511",1,1,1153,2,2,1,"1dc7147",34,1
"3611",0,1,269,1,5,1,"1dc7147",35,1
"3711",0,1,240,4,1,1,"1dc7147",36,1
"3811",0,1,513,3,1,1,"1dc7147",37,1
"3911",1,0,495,2,1,1,"1dc7147",38,1
"4011",0,1,269,1,6,1,"1dc7147",39,1
"4115",1,1,391,5,5,1,"1dc7147",40,1
"4213",1,1,245,6,6,1,"1dc7147",41,1
"4311",1,1,263,3,3,1,"1dc7147",42,1
"4411",1,1,426,1,1,1,"1dc7147",43,1
"4511",1,1,277,4,4,1,"1dc7147",44,1
"4611",1,1,257,4,4,1,"1dc7147",45,1
"4711",0,0,333,2,2,1,"1dc7147",46,1
"4811",0,1,207,1,4,1,"1dc7147",47,1
"4911",0,1,391,1,6,1,"1dc7147",48,1
"5011",1,0,913,2,1,1,"1dc7147",49,1
"5115",1,1,306,5,5,1,"1dc7147",50,1
"5213",0,1,305,5,1,1,"1dc7147",51,1
"5311",0,1,330,3,1,1,"1dc7147",52,1
"5411",1,1,318,1,1,1,"1dc7147",53,1
"5511",1,1,448,3,3,1,"1dc7147",54,1
"5611",1,1,513,6,6,1,"1dc7147",55,1
"5711",0,1,296,1,2,1,"1dc7147",56,1
"5811",0,1,281,1,5,1,"1dc7147",57,1
"5911",0,1,226,1,3,1,"1dc7147",58,1
"6011",0,1,276,1,4,1,"1dc7147",59,1
"6115",1,1,332,2,2,1,"1dc7147",60,1
"6213",0,1,420,1,6,1,"1dc7147",61,1
"6311",1,1,254,5,5,1,"1dc7147",62,1
"6411",1,1,323,4,4,1,"1dc7147",63,1
"6511",1,1,298,6,6,1,"1dc7147",64,1
"6611",1,1,244,3,3,1,"1dc7147",65,1
"6711",1,1,304,1,1,1,"1dc7147",66,1
"6811",0,1,322,1,4,1,"1dc7147",67,1
"6911",1,1,294,5,5,1,"1dc7147",68,1
"7011",1,1,507,2,2,1,"1dc7147",69,1
"7115",1,0,555,2,1,1,"1dc7147",70,1
"7212",1,1,360,6,6,1,"1dc7147",71,1
"7311",0,1,584,3,1,1,"1dc7147",72,1
"7411",1,1,271,1,1,1,"1dc7147",73,1
"7511",0,1,337,6,1,1,"1dc7147",74,1
"7611",0,1,590,1,5,1,"1dc7147",75,1
"7711",1,1,326,3,3,1,"1dc7147",76,1
"7811",1,1,315,4,4,1,"1dc7147",77,1
"260",1,0,579,3,1,3,"516e367",1,1
"360",1,1,442,3,3,3,"516e367",2,1
"460",1,1,487,4,4,3,"516e367",3,1
"560",1,1,343,5,5,3,"516e367",4,1
"660",0,0,367,1,1,3,"516e367",5,1
"760",0,1,343,5,1,3,"516e367",6,1
"812",1,1,340,6,6,3,"516e367",7,1
"912",0,1,543,6,1,3,"516e367",8,1
"1012",0,1,357,4,1,3,"516e367",9,1
"1112",1,1,404,2,2,3,"516e367",10,1
"1212",1,0,399,1,2,3,"516e367",11,1
"1312",0,1,306,2,1,3,"516e367",12,1
"1412",1,0,361,1,3,3,"516e367",13,1
"1512",0,0,299,6,6,3,"516e367",14,1
"1612",1,1,344,2,2,3,"516e367",15,1
"1712",1,0,322,1,4,3,"516e367",16,1
"1812",1,1,429,1,1,3,"516e367",17,1
"1912",0,1,387,6,1,3,"516e367",18,1
"2012",0,1,335,5,1,3,"516e367",19,1
"2116",1,1,346,3,3,3,"516e367",20,1
"2214",1,1,309,5,5,3,"516e367",21,1
"2312",1,1,301,4,4,3,"516e367",22,1
"2412",0,1,349,1,3,3,"516e367",23,1
"2512",1,1,311,3,3,3,"516e367",24,1
"2612",0,1,277,1,5,3,"516e367",25,1
"2712",1,1,356,5,5,3,"516e367",26,1
"2812",1,1,300,6,6,3,"516e367",27,1
"2912",1,1,297,1,1,3,"516e367",28,1
"3012",0,1,315,1,2,3,"516e367",29,1
"3116",1,1,331,4,4,3,"516e367",30,1
"3214",0,1,257,1,6,3,"516e367",31,1
"3312",1,1,283,2,2,3,"516e367",32,1
"3412",0,1,321,1,4,3,"516e367",33,1
"3512",0,1,289,1,6,3,"516e367",34,1
"3612",1,1,268,3,3,3,"516e367",35,1
"3712",0,1,328,1,3,3,"516e367",36,1
"3812",0,1,258,2,1,3,"516e367",37,1
"3912",1,1,316,6,6,3,"516e367",38,1
"4012",0,0,276,1,1,3,"516e367",39,1
"4116",1,1,291,4,4,3,"516e367",40,1
"4214",1,1,312,2,2,3,"516e367",41,1
"4312",0,1,323,5,1,3,"516e367",42,1
"4412",1,1,335,5,5,3,"516e367",43,1
"4512",0,1,415,1,4,3,"516e367",44,1
"4612",1,1,406,2,2,3,"516e367",45,1
"4712",1,1,300,4,4,3,"516e367",46,1
"4812",0,1,335,4,1,3,"516e367",47,1
"4912",1,1,336,1,1,3,"516e367",48,1
"5012",0,1,269,5,1,3,"516e367",49,1
"5116",1,1,253,6,6,3,"516e367",50,1
"5214",1,1,310,3,3,3,"516e367",51,1
"5312",0,1,281,6,1,3,"516e367",52,1
"5412",0,1,392,3,1,3,"516e367",53,1
"5512",0,1,297,1,2,3,"516e367",54,1
"5612",1,1,407,5,5,3,"516e367",55,1
"5712",1,1,240,3,3,3,"516e367",56,1
"5812",0,1,296,1,6,3,"516e367",57,1
"5912",1,1,343,6,6,3,"516e367",58,1
"6012",0,1,320,1,5,3,"516e367",59,1
"6116",0,1,386,3,1,3,"516e367",60,1
"6214",0,1,361,2,1,3,"516e367",61,1
"6312",1,1,464,5,5,3,"516e367",62,1
"6412",0,1,363,1,4,3,"516e367",63,1
"6512",1,1,265,2,2,3,"516e367",64,1
"6612",1,1,244,1,1,3,"516e367",65,1
"6712",1,1,351,4,4,3,"516e367",66,1
"6812",1,1,339,4,4,3,"516e367",67,1
"6912",0,1,251,1,2,3,"516e367",68,1
"7012",0,1,290,1,4,3,"516e367",69,1
"7116",0,1,408,5,1,3,"516e367",70,1
"7213",0,1,253,3,1,3,"516e367",71,1
"7312",1,1,273,3,3,3,"516e367",72,1
"7412",1,1,290,2,2,3,"516e367",73,1
"7512",1,1,354,5,5,3,"516e367",74,1
"7612",1,1,293,1,1,3,"516e367",75,1
"7712",1,1,321,6,6,3,"516e367",76,1
"7812",0,1,420,6,1,3,"516e367",77,1
"270",0,1,1448,1,6,2,"1273cfc",1,1
"370",1,1,321,5,5,2,"1273cfc",2,1
"470",1,1,304,1,1,2,"1273cfc",3,1
"570",1,1,510,3,3,2,"1273cfc",4,1
"670",1,0,386,5,1,2,"1273cfc",5,1
"770",1,0,508,1,3,2,"1273cfc",6,1
"813",1,1,524,4,4,2,"1273cfc",7,1
"913",-1,-1,0,6,6,2,"1273cfc",8,1
"1013",-1,-1,0,2,1,2,"1273cfc",9,1
"1113",0,0,367,2,2,2,"1273cfc",10,1
"1213",1,0,427,1,4,2,"1273cfc",11,1
"1313",1,0,352,1,2,2,"1273cfc",12,1
"1413",1,1,336,2,2,2,"1273cfc",13,1
"1513",0,1,633,1,6,2,"1273cfc",14,1
"1613",1,1,307,3,3,2,"1273cfc",15,1
"1713",1,1,289,5,5,2,"1273cfc",16,1
"1813",1,1,414,6,6,2,"1273cfc",17,1
"1913",0,0,575,4,4,2,"1273cfc",18,1
"2013",0,1,658,5,1,2,"1273cfc",19,1
"2117",1,1,257,1,1,2,"1273cfc",20,1
"2215",1,0,754,1,3,2,"1273cfc",21,1
"2313",0,1,476,4,1,2,"1273cfc",22,1
"2413",1,1,351,3,3,2,"1273cfc",23,1
"2513",1,1,554,2,2,2,"1273cfc",24,1
"2613",1,1,322,4,4,2,"1273cfc",25,1
"2713",0,1,400,1,4,2,"1273cfc",26,1
"2813",1,0,178,1,2,2,"1273cfc",27,1
"2913",1,1,294,5,5,2,"1273cfc",28,1
"3013",1,1,336,6,6,2,"1273cfc",29,1
"3117",0,1,398,1,6,2,"1273cfc",30,1
"3215",0,1,493,3,1,2,"1273cfc",31,1
"3313",0,1,368,5,1,2,"1273cfc",32,1
"3413",1,1,492,1,1,2,"1273cfc",33,1
"3513",1,1,979,6,6,2,"1273cfc",34,1
"3613",1,0,1164,2,1,2,"1273cfc",35,1
"3713",1,1,1072,3,3,2,"1273cfc",36,1
"3813",0,1,1323,1,5,2,"1273cfc",37,1
"3913",1,1,314,5,5,2,"1273cfc",38,1
"4013",0,1,462,3,1,2,"1273cfc",39,1
"4117",1,1,543,2,2,2,"1273cfc",40,1
"4215",0,1,836,1,4,2,"1273cfc",41,1
"4313",1,1,729,4,4,2,"1273cfc",42,1
"4413",1,1,573,1,1,2,"1273cfc",43,1
"4513",0,1,444,6,1,2,"1273cfc",44,1
"4613",1,0,320,1,2,2,"1273cfc",45,1
"4713",0,1,790,4,1,2,"1273cfc",46,1
"4813",1,1,1429,4,4,2,"1273cfc",47,1
"4913",0,1,1072,6,1,2,"1273cfc",48,1
"5013",1,1,368,1,1,2,"1273cfc",49,1
"5117",1,1,425,2,2,2,"1273cfc",50,1
"5215",1,1,149,3,3,2,"1273cfc",51,1
"5313",1,1,511,5,5,2,"1273cfc",52,1
"5413",0,1,1093,3,1,2,"1273cfc",53,1
"5513",1,1,370,6,6,2,"1273cfc",54,1
"5613",0,1,572,1,5,2,"1273cfc",55,1
"5713",1,1,513,1,1,2,"1273cfc",56,1
"5813",0,1,602,1,5,2,"1273cfc",57,1
"5913",1,1,507,6,6,2,"1273cfc",58,1
"6013",0,1,570,3,1,2,"1273cfc",59,1
"6117",1,0,335,1,2,2,"1273cfc",60,1
"6215",0,1,1117,1,6,2,"1273cfc",61,1
"6313",0,0,378,3,3,2,"1273cfc",62,1
"6413",1,1,510,5,5,2,"1273cfc",63,1
"6513",1,1,569,2,2,2,"1273cfc",64,1
"6613",0,1,1682,1,4,2,"1273cfc",65,1
"6713",1,1,837,4,4,2,"1273cfc",66,1
"6813",0,0,789,4,4,2,"1273cfc",67,1
"6913",0,1,555,1,2,2,"1273cfc",68,1
"7013",1,1,698,3,3,2,"1273cfc",69,1
"7117",0,1,508,1,3,2,"1273cfc",70,1
"7214",1,1,274,2,2,2,"1273cfc",71,1
"7313",0,1,356,5,1,2,"1273cfc",72,1
"7413",1,1,448,5,5,2,"1273cfc",73,1
"7513",0,1,493,6,1,2,"1273cfc",74,1
"7613",1,1,539,1,1,2,"1273cfc",75,1
"7713",0,1,419,4,1,2,"1273cfc",76,1
"7813",1,1,617,6,6,2,"1273cfc",77,1
"280",1,0,897,4,1,1,"760cd77",1,1
"380",0,1,496,2,1,1,"760cd77",2,1
"480",1,1,351,2,2,1,"760cd77",3,1
"580",1,1,237,1,1,1,"760cd77",4,1
"680",1,0,239,1,5,1,"760cd77",5,1
"780",1,0,372,3,1,1,"760cd77",6,1
"814",1,1,404,5,5,1,"760cd77",7,1
"914",1,0,465,1,6,1,"760cd77",8,1
"1014",1,1,487,4,4,1,"760cd77",9,1
"1114",1,1,402,3,3,1,"760cd77",10,1
"1214",1,1,454,6,6,1,"760cd77",11,1
"1314",0,1,699,4,1,1,"760cd77",12,1
"1414",0,0,421,5,5,1,"760cd77",13,1
"1514",0,0,324,4,4,1,"760cd77",14,1
"1614",0,0,518,3,3,1,"760cd77",15,1
"1714",0,0,573,6,6,1,"760cd77",16,1
"1814",0,1,386,1,3,1,"760cd77",17,1
"1914",1,1,653,1,1,1,"760cd77",18,1
"2014",0,1,487,6,1,1,"760cd77",19,1
"2118",1,1,385,2,2,1,"760cd77",20,1
"2216",0,1,419,5,1,1,"760cd77",21,1
"2314",1,0,593,1,2,1,"760cd77",22,1
"2414",0,0,504,6,6,1,"760cd77",23,1
"2514",1,0,541,1,3,1,"760cd77",24,1
"2614",1,1,308,2,2,1,"760cd77",25,1
"2714",1,1,296,3,3,1,"760cd77",26,1
"2814",1,1,423,1,1,1,"760cd77",27,1
"2914",0,1,292,2,1,1,"760cd77",28,1
"3014",1,1,278,5,5,1,"760cd77",29,1
"3118",0,1,730,4,1,1,"760cd77",30,1
"3216",1,1,326,4,4,1,"760cd77",31,1
"3314",0,1,658,6,1,1,"760cd77",32,1
"3414",0,1,417,1,5,1,"760cd77",33,1
"3514",1,1,268,2,2,1,"760cd77",34,1
"3614",1,1,328,4,4,1,"760cd77",35,1
"3714",0,1,429,1,2,1,"760cd77",36,1
"3814",1,1,258,1,1,1,"760cd77",37,1
"3914",0,0,343,6,6,1,"760cd77",38,1
"4014",0,1,232,1,3,1,"760cd77",39,1
"4118",1,1,249,5,5,1,"760cd77",40,1
"4216",0,1,334,1,4,1,"760cd77",41,1
"4314",0,0,177,3,3,1,"760cd77",42,1
"4414",0,1,257,5,1,1,"760cd77",43,1
"4514",0,1,208,6,1,1,"760cd77",44,1
"4614",0,1,266,6,1,1,"760cd77",45,1
"4714",1,1,319,4,4,1,"760cd77",46,1
"4814",0,1,228,2,1,1,"760cd77",47,1
"4914",1,1,332,2,2,1,"760cd77",48,1
"5014",0,1,213,4,1,1,"760cd77",49,1
"5118",0,1,225,3,1,1,"760cd77",50,1
"5216",1,1,217,1,1,1,"760cd77",51,1
"5314",1,1,251,3,3,1,"760cd77",52,1
"5414",0,1,254,1,5,1,"760cd77",53,1
"5514",1,1,261,6,6,1,"760cd77",54,1
"5614",1,1,13,5,5,1,"760cd77",55,1
"5714",0,1,298,1,2,1,"760cd77",56,1
"5814",0,1,328,5,1,1,"760cd77",57,1
"5914",1,1,273,6,6,1,"760cd77",58,1
"6014",0,1,175,3,1,1,"760cd77",59,1
"6118",1,1,243,4,4,1,"760cd77",60,1
"6216",1,1,597,5,5,1,"760cd77",61,1
"6314",0,1,255,1,4,1,"760cd77",62,1
"6414",1,1,57,2,2,1,"760cd77",63,1
"6514",1,1,446,1,1,1,"760cd77",64,1
"6614",1,1,439,3,3,1,"760cd77",65,1
"6714",0,1,305,1,6,1,"760cd77",66,1
"6814",1,1,271,3,3,1,"760cd77",67,1
"6914",0,1,430,1,5,1,"760cd77",68,1
"7014",0,1,216,4,1,1,"760cd77",69,1
"7118",1,1,231,1,1,1,"760cd77",70,1
"7215",1,1,310,5,5,1,"760cd77",71,1
"7314",1,1,263,4,4,1,"760cd77",72,1
"7414",1,0,249,1,2,1,"760cd77",73,1
"7514",0,1,194,6,1,1,"760cd77",74,1
"7614",1,1,190,2,2,1,"760cd77",75,1
"7714",1,1,226,6,6,1,"760cd77",76,1
"7814",0,1,254,3,1,1,"760cd77",77,1
"290",1,0,823,2,1,2,"1d3a28a",1,1
"390",0,1,449,1,5,2,"1d3a28a",2,1
"490",0,0,394,3,3,2,"1d3a28a",3,1
"590",1,0,313,1,4,2,"1d3a28a",4,1
"690",1,1,333,6,6,2,"1d3a28a",5,1
"790",1,1,347,2,2,2,"1d3a28a",6,1
"815",1,1,263,4,4,2,"1d3a28a",7,1
"915",1,1,334,5,5,2,"1d3a28a",8,1
"1015",1,0,541,6,1,2,"1d3a28a",9,1
"1115",1,1,329,1,1,2,"1d3a28a",10,1
"1215",1,0,323,3,1,2,"1d3a28a",11,1
"1315",1,1,365,2,2,2,"1d3a28a",12,1
"1415",0,0,422,5,5,2,"1d3a28a",13,1
"1515",0,1,493,3,1,2,"1d3a28a",14,1
"1615",1,1,354,6,6,2,"1d3a28a",15,1
"1715",0,1,126,4,1,2,"1d3a28a",16,1
"1815",1,1,392,1,1,2,"1d3a28a",17,1
"1915",0,1,278,1,5,2,"1d3a28a",18,1
"2015",1,1,411,3,3,2,"1d3a28a",19,1
"2119",1,0,380,2,1,2,"1d3a28a",20,1
"2217",0,1,461,1,6,2,"1d3a28a",21,1
"2315",1,1,493,4,4,2,"1d3a28a",22,1
"2415",0,1,392,1,5,2,"1d3a28a",23,1
"2515",1,1,353,4,4,2,"1d3a28a",24,1
"2615",1,0,740,1,3,2,"1d3a28a",25,1
"2715",1,1,143,5,5,2,"1d3a28a",26,1
"2815",1,1,296,3,3,2,"1d3a28a",27,1
"2915",1,0,337,1,2,2,"1d3a28a",28,1
"3015",1,1,288,6,6,2,"1d3a28a",29,1
"3119",1,1,259,1,1,2,"1d3a28a",30,1
"3217",1,1,270,2,2,2,"1d3a28a",31,1
"3315",0,1,382,4,1,2,"1d3a28a",32,1
"3415",0,1,817,1,6,2,"1d3a28a",33,1
"3515",0,1,269,4,1,2,"1d3a28a",34,1
"3615",1,1,64,5,5,2,"1d3a28a",35,1
"3715",1,1,454,4,4,2,"1d3a28a",36,1
"3815",1,1,342,1,1,2,"1d3a28a",37,1
"3915",1,0,390,2,1,2,"1d3a28a",38,1
"4015",0,1,69,5,1,2,"1d3a28a",39,1
"4119",1,1,330,3,3,2,"1d3a28a",40,1
"4217",0,1,272,3,1,2,"1d3a28a",41,1
"4315",1,1,213,2,2,2,"1d3a28a",42,1
"4415",0,1,664,1,6,2,"1d3a28a",43,1
"4515",1,1,626,6,6,2,"1d3a28a",44,1
"4615",0,1,805,1,4,2,"1d3a28a",45,1
"4715",0,1,467,3,1,2,"1d3a28a",46,1
"4815",1,1,338,4,4,2,"1d3a28a",47,1
"4915",1,1,318,6,6,2,"1d3a28a",48,1
"5015",1,1,388,3,3,2,"1d3a28a",49,1
"5119",0,1,263,5,1,2,"1d3a28a",50,1
"5217",1,1,325,5,5,2,"1d3a28a",51,1
"5315",0,1,167,6,1,2,"1d3a28a",52,1
"5415",1,1,467,1,1,2,"1d3a28a",53,1
"5515",1,0,495,2,1,2,"1d3a28a",54,1
"5615",1,1,164,2,2,2,"1d3a28a",55,1
"5715",0,1,106,1,2,2,"1d3a28a",56,1
"5815",1,1,237,6,6,2,"1d3a28a",57,1
"5915",1,1,283,5,5,2,"1d3a28a",58,1
"6015",0,1,532,1,4,2,"1d3a28a",59,1
"6119",0,0,233,2,2,2,"1d3a28a",60,1
"6217",0,0,435,3,3,2,"1d3a28a",61,1
"6315",0,1,243,5,1,2,"1d3a28a",62,1
"6415",0,1,255,6,1,2,"1d3a28a",63,1
"6515",1,1,518,1,1,2,"1d3a28a",64,1
"6615",1,1,872,4,4,2,"1d3a28a",65,1
"6715",0,1,348,1,3,2,"1d3a28a",66,1
"6815",0,1,118,5,1,2,"1d3a28a",67,1
"6915",0,1,888,3,1,2,"1d3a28a",68,1
"7015",1,1,450,6,6,2,"1d3a28a",69,1
"7119",1,1,343,1,1,2,"1d3a28a",70,1
"7216",0,1,614,1,4,2,"1d3a28a",71,1
"7315",1,1,290,5,5,2,"1d3a28a",72,1
"7415",0,1,256,1,6,2,"1d3a28a",73,1
"7515",1,1,167,3,3,2,"1d3a28a",74,1
"7615",1,1,118,4,4,2,"1d3a28a",75,1
"7715",1,1,238,2,2,2,"1d3a28a",76,1
"7815",0,1,591,2,1,2,"1d3a28a",77,1
"2100",0,1,1752,1,4,1,"1a3a265",1,1
"3100",0,1,650,5,1,1,"1a3a265",2,1
"4100",1,1,1414,4,4,1,"1a3a265",3,1
"5100",0,1,1129,1,2,1,"1a3a265",4,1
"6100",1,1,603,3,3,1,"1a3a265",5,1
"791",1,1,477,1,1,1,"1a3a265",6,1
"816",0,1,1256,3,1,1,"1a3a265",7,1
"916",1,1,538,6,6,1,"1a3a265",8,1
"1016",1,1,504,5,5,1,"1a3a265",9,1
"1116",1,1,772,2,2,1,"1a3a265",10,1
"1216",0,1,836,6,1,1,"1a3a265",11,1
"1316",0,1,1017,6,1,1,"1a3a265",12,1
"1416",0,1,632,3,1,1,"1a3a265",13,1
"1516",1,1,868,4,4,1,"1a3a265",14,1
"1616",0,1,383,5,1,1,"1a3a265",15,1
"1716",0,1,374,2,1,1,"1a3a265",16,1
"1816",1,1,905,1,1,1,"1a3a265",17,1
"1916",0,1,762,1,4,1,"1a3a265",18,1
"2016",1,1,816,2,2,1,"1a3a265",19,1
"2120",1,1,256,3,3,1,"1a3a265",20,1
"2218",1,1,501,5,5,1,"1a3a265",21,1
"2316",-1,-1,0,6,6,1,"1a3a265",22,1
"2416",1,1,630,6,6,1,"1a3a265",23,1
"2516",1,1,1369,5,5,1,"1a3a265",24,1
"2616",1,1,1342,2,2,1,"1a3a265",25,1
"2716",0,1,968,1,2,1,"1a3a265",26,1
"2816",0,1,317,1,4,1,"1a3a265",27,1
"2916",1,1,696,3,3,1,"1a3a265",28,1
"3016",0,1,973,5,1,1,"1a3a265",29,1
"3120",1,1,469,4,4,1,"1a3a265",30,1
"3218",1,1,410,1,1,1,"1a3a265",31,1
"3316",0,1,413,6,1,1,"1a3a265",32,1
"3416",0,1,462,3,1,1,"1a3a265",33,1
"3516",1,1,306,1,1,1,"1a3a265",34,1
"3616",1,1,405,6,6,1,"1a3a265",35,1
"3716",1,1,478,5,5,1,"1a3a265",36,1
"3816",1,1,404,3,3,1,"1a3a265",37,1
"3916",0,1,370,1,4,1,"1a3a265",38,1
"4016",0,1,314,1,3,1,"1a3a265",39,1
"4120",0,1,388,2,1,1,"1a3a265",40,1
"4218",1,1,380,4,4,1,"1a3a265",41,1
"4316",1,1,430,2,2,1,"1a3a265",42,1
"4416",0,1,341,5,1,1,"1a3a265",43,1
"4516",0,1,556,6,1,1,"1a3a265",44,1
"4616",0,1,333,1,3,1,"1a3a265",45,1
"4716",1,1,338,5,5,1,"1a3a265",46,1
"4816",0,1,320,1,2,1,"1a3a265",47,1
"4916",0,1,314,1,6,1,"1a3a265",48,1
"5016",1,1,289,2,2,1,"1a3a265",49,1
"5120",0,1,354,5,1,1,"1a3a265",50,1
"5218",1,1,314,4,4,1,"1a3a265",51,1
"5316",1,1,336,6,6,1,"1a3a265",52,1
"5416",1,1,318,3,3,1,"1a3a265",53,1
"5516",1,1,413,1,1,1,"1a3a265",54,1
"5616",0,1,346,1,4,1,"1a3a265",55,1
"5716",1,1,695,1,1,1,"1a3a265",56,1
"5816",1,1,291,3,3,1,"1a3a265",57,1
"5916",0,1,449,1,4,1,"1a3a265",58,1
"6016",0,1,324,1,3,1,"1a3a265",59,1
"6120",1,1,542,6,6,1,"1a3a265",60,1
"6218",0,1,422,1,6,1,"1a3a265",61,1
"6316",1,1,319,2,2,1,"1a3a265",62,1
"6416",0,1,331,1,2,1,"1a3a265",63,1
"6516",1,1,318,5,5,1,"1a3a265",64,1
"6616",1,1,459,4,4,1,"1a3a265",65,1
"6716",0,1,309,5,1,1,"1a3a265",66,1
"6816",0,1,343,4,1,1,"1a3a265",67,1
"6916",1,1,260,6,6,1,"1a3a265",68,1
"7016",0,1,302,2,1,1,"1a3a265",69,1
"7120",0,1,607,1,3,1,"1a3a265",70,1
"7217",1,1,524,3,3,1,"1a3a265",71,1
"7316",1,1,435,5,5,1,"1a3a265",72,1
"7416",0,1,368,5,1,1,"1a3a265",73,1
"7516",1,1,293,4,4,1,"1a3a265",74,1
"7616",1,1,509,1,1,1,"1a3a265",75,1
"7716",1,1,554,2,2,1,"1a3a265",76,1
"7816",0,1,447,6,1,1,"1a3a265",77,1
"2101",1,0,611,1,4,3,"13c1598",1,1
"3101",1,0,412,1,5,3,"13c1598",2,1
"4101",1,0,390,6,1,3,"13c1598",3,1
"5101",0,0,387,5,5,3,"13c1598",4,1
"6101",1,0,514,2,1,3,"13c1598",5,1
"792",1,1,314,4,4,3,"13c1598",6,1
"817",0,0,519,1,1,3,"13c1598",7,1
"917",1,1,417,2,2,3,"13c1598",8,1
"1017",1,1,529,3,3,3,"13c1598",9,1
"1117",1,0,433,1,3,3,"13c1598",10,1
"1217",1,1,482,6,6,3,"13c1598",11,1
"1317",0,0,507,2,2,3,"13c1598",12,1
"1417",1,0,401,5,1,3,"13c1598",13,1
"1517",1,1,303,3,3,3,"13c1598",14,1
"1617",0,1,350,2,1,3,"13c1598",15,1
"1717",1,1,356,4,4,3,"13c1598",16,1
"1817",1,1,354,1,1,3,"13c1598",17,1
"1917",0,1,436,3,1,3,"13c1598",18,1
"2017",0,1,435,4,1,3,"13c1598",19,1
"2121",1,0,358,1,6,3,"13c1598",20,1
"2219",0,0,439,6,6,3,"13c1598",21,1
"2317",1,1,340,5,5,3,"13c1598",22,1
"2417",0,0,500,1,1,3,"13c1598",23,1
"2517",1,0,155,5,1,3,"13c1598",24,1
"2617",0,1,318,1,6,3,"13c1598",25,1
"2717",0,1,496,2,1,3,"13c1598",26,1
"2817",1,1,413,5,5,3,"13c1598",27,1
"2917",1,0,283,4,1,3,"13c1598",28,1
"3017",0,0,329,3,3,3,"13c1598",29,1
"3121",0,1,338,1,3,3,"13c1598",30,1
"3219",0,0,399,6,6,3,"13c1598",31,1
"3317",1,1,437,4,4,3,"13c1598",32,1
"3417",0,0,376,2,2,3,"13c1598",33,1
"3517",0,1,383,1,4,3,"13c1598",34,1
"3617",0,1,335,6,1,3,"13c1598",35,1
"3717",1,1,341,1,1,3,"13c1598",36,1
"3817",0,0,406,2,2,3,"13c1598",37,1
"3917",0,0,331,3,3,3,"13c1598",38,1
"4017",0,1,417,1,3,3,"13c1598",39,1
"4121",0,1,250,5,1,3,"13c1598",40,1
"4219",1,1,324,5,5,3,"13c1598",41,1
"4317",1,1,369,6,6,3,"13c1598",42,1
"4417",0,1,543,2,1,3,"13c1598",43,1
"4517",1,1,316,4,4,3,"13c1598",44,1
"4617",0,1,363,1,2,3,"13c1598",45,1
"4717",0,1,463,6,1,3,"13c1598",46,1
"4817",0,1,406,1,5,3,"13c1598",47,1
"4917",1,0,455,4,1,3,"13c1598",48,1
"5017",1,1,204,4,4,3,"13c1598",49,1
"5121",0,0,140,6,6,3,"13c1598",50,1
"5219",0,0,315,2,2,3,"13c1598",51,1
"5317",1,1,269,1,1,3,"13c1598",52,1
"5417",1,1,281,5,5,3,"13c1598",53,1
"5517",1,0,274,1,3,3,"13c1598",54,1
"5617",0,0,650,3,3,3,"13c1598",55,1
"5717",0,0,348,1,1,3,"13c1598",56,1
"5817",1,1,266,3,3,3,"13c1598",57,1
"5917",1,0,204,1,5,3,"13c1598",58,1
"6017",0,1,388,1,2,3,"13c1598",59,1
"6121",1,1,442,6,6,3,"13c1598",60,1
"6219",-1,-1,0,1,3,3,"13c1598",61,1
"6317",0,0,581,5,5,3,"13c1598",62,1
"6417",1,0,305,1,4,3,"13c1598",63,1
"6517",1,1,240,4,4,3,"13c1598",64,1
"6617",1,0,420,1,6,3,"13c1598",65,1
"6717",0,0,406,2,2,3,"13c1598",66,1
"6817",0,1,456,1,5,3,"13c1598",67,1
"6917",0,1,544,4,1,3,"13c1598",68,1
"7017",1,0,393,1,2,3,"13c1598",69,1
"7121",0,0,363,5,5,3,"13c1598",70,1
"7218",0,0,325,3,3,3,"13c1598",71,1
"7317",0,0,761,6,6,3,"13c1598",72,1
"7417",1,1,279,1,1,3,"13c1598",73,1
"7517",0,1,246,1,3,3,"13c1598",74,1
"7617",1,0,294,6,1,3,"13c1598",75,1
"7717",1,1,206,4,4,3,"13c1598",76,1
"7817",0,0,56,2,2,3,"13c1598",77,1
"2102",-1,-1,0,5,5,2,"14fe1df",1,1
"3102",0,0,959,1,1,2,"14fe1df",2,1
"4102",1,1,527,6,6,2,"14fe1df",3,1
"5102",0,0,609,3,3,2,"14fe1df",4,1
"6102",1,1,588,4,4,2,"14fe1df",5,1
"793",1,0,884,1,5,2,"14fe1df",6,1
"818",0,1,856,6,1,2,"14fe1df",7,1
"918",1,1,1171,2,2,2,"14fe1df",8,1
"1018",0,1,463,3,1,2,"14fe1df",9,1
"1118",0,1,527,4,1,2,"14fe1df",10,1
"1218",0,1,461,2,1,2,"14fe1df",11,1
"1318",0,1,479,6,1,2,"14fe1df",12,1
"1418",1,1,450,6,6,2,"14fe1df",13,1
"1518",0,0,453,3,3,2,"14fe1df",14,1
"1618",1,1,563,2,2,2,"14fe1df",15,1
"1718",0,1,435,4,1,2,"14fe1df",16,1
"1818",1,1,532,5,5,2,"14fe1df",17,1
"1918",0,1,408,1,2,2,"14fe1df",18,1
"2018",1,0,500,1,3,2,"14fe1df",19,1
"2122",0,0,513,4,4,2,"14fe1df",20,1
"2220",1,1,600,1,1,2,"14fe1df",21,1
"2318",0,1,444,5,1,2,"14fe1df",22,1
"2418",0,1,1140,1,6,2,"14fe1df",23,1
"2518",0,1,458,1,3,2,"14fe1df",24,1
"2618",1,1,420,3,3,2,"14fe1df",25,1
"2718",1,1,496,6,6,2,"14fe1df",26,1
"2818",0,1,413,1,5,2,"14fe1df",27,1
"2918",1,1,596,2,2,2,"14fe1df",28,1
"3018",0,1,601,4,1,2,"14fe1df",29,1
"3122",1,0,426,2,1,2,"14fe1df",30,1
"3220",1,1,669,5,5,2,"14fe1df",31,1
"3318",1,1,408,4,4,2,"14fe1df",32,1
"3418",1,1,516,1,1,2,"14fe1df",33,1
"3518",0,0,534,4,4,2,"14fe1df",34,1
"3618",1,0,500,1,2,2,"14fe1df",35,1
"3718",1,1,839,6,6,2,"14fe1df",36,1
"3818",0,0,453,2,2,2,"14fe1df",37,1
"3918",1,1,373,5,5,2,"14fe1df",38,1
"4018",1,1,341,1,1,2,"14fe1df",39,1
"4122",0,1,351,1,5,2,"14fe1df",40,1
"4220",0,1,404,1,3,2,"14fe1df",41,1
"4318",0,1,361,4,1,2,"14fe1df",42,1
"4418",0,1,478,1,6,2,"14fe1df",43,1
"4518",1,1,413,3,3,2,"14fe1df",44,1
"4618",0,0,568,5,5,2,"14fe1df",45,1
"4718",1,0,405,1,2,2,"14fe1df",46,1
"4818",0,1,1422,6,1,2,"14fe1df",47,1
"4918",0,1,400,3,1,2,"14fe1df",48,1
"5018",1,1,451,1,1,2,"14fe1df",49,1
"5122",1,1,738,2,2,2,"14fe1df",50,1
"5220",0,1,353,5,1,2,"14fe1df",51,1
"5318",0,1,439,4,1,2,"14fe1df",52,1
"5418",0,0,326,4,4,2,"14fe1df",53,1
"5518",1,1,711,6,6,2,"14fe1df",54,1
"5618",0,0,458,3,3,2,"14fe1df",55,1
"5718",0,1,365,1,4,2,"14fe1df",56,1
"5818",1,1,501,6,6,2,"14fe1df",57,1
"5918",0,0,814,3,3,2,"14fe1df",58,1
"6018",0,1,426,1,5,2,"14fe1df",59,1
"6122",1,0,1310,2,1,2,"14fe1df",60,1
"6220",1,1,350,2,2,2,"14fe1df",61,1
"6318",0,0,469,4,4,2,"14fe1df",62,1
"6418",1,1,450,5,5,2,"14fe1df",63,1
"6518",0,1,427,1,6,2,"14fe1df",64,1
"6618",1,1,423,1,1,2,"14fe1df",65,1
"6718",0,1,382,1,3,2,"14fe1df",66,1
"6818",0,1,1288,6,1,2,"14fe1df",67,1
"6918",1,1,661,2,2,2,"14fe1df",68,1
"7018",0,0,611,3,3,2,"14fe1df",69,1
"7122",1,1,1106,6,6,2,"14fe1df",70,1
"7219",0,1,687,4,1,2,"14fe1df",71,1
"7318",1,1,618,1,1,2,"14fe1df",72,1
"7418",1,1,665,5,5,2,"14fe1df",73,1
"7518",0,1,335,1,3,2,"14fe1df",74,1
"7618",1,1,393,4,4,2,"14fe1df",75,1
"7718",0,1,837,5,1,2,"14fe1df",76,1
"7818",1,0,555,1,2,2,"14fe1df",77,1
"2103",1,0,793,3,1,1,"1ea4c3b",1,1
"3103",1,1,463,1,1,1,"1ea4c3b",2,1
"4103",1,1,548,4,4,1,"1ea4c3b",3,1
"5103",0,1,417,4,1,1,"1ea4c3b",4,1
"6103",1,0,371,5,1,1,"1ea4c3b",5,1
"794",1,0,519,1,2,1,"1ea4c3b",6,1
"819",0,0,425,5,5,1,"1ea4c3b",7,1
"919",1,1,324,3,3,1,"1ea4c3b",8,1
"1019",1,1,598,6,6,1,"1ea4c3b",9,1
"1119",1,1,267,2,2,1,"1ea4c3b",10,1
"1219",1,0,308,1,6,1,"1ea4c3b",11,1
"1319",1,0,419,3,1,1,"1ea4c3b",12,1
"1419",1,0,423,1,2,1,"1ea4c3b",13,1
"1519",0,0,400,3,3,1,"1ea4c3b",14,1
"1619",0,1,246,5,1,1,"1ea4c3b",15,1
"1719",1,0,354,1,6,1,"1ea4c3b",16,1
"1819",1,1,306,1,1,1,"1ea4c3b",17,1
"1919",1,1,362,2,2,1,"1ea4c3b",18,1
"2019",0,1,425,4,1,1,"1ea4c3b",19,1
"2123",0,0,472,4,4,1,"1ea4c3b",20,1
"2221",0,0,318,6,6,1,"1ea4c3b",21,1
"2319",1,1,440,5,5,1,"1ea4c3b",22,1
"2419",0,1,454,6,1,1,"1ea4c3b",23,1
"2519",1,1,307,6,6,1,"1ea4c3b",24,1
"2619",1,1,349,5,5,1,"1ea4c3b",25,1
"2719",0,1,417,5,1,1,"1ea4c3b",26,1
"2819",0,1,495,4,1,1,"1ea4c3b",27,1
"2919",1,1,393,2,2,1,"1ea4c3b",28,1
"3019",0,1,301,1,2,1,"1ea4c3b",29,1
"3123",1,1,347,4,4,1,"1ea4c3b",30,1
"3221",0,1,448,3,1,1,"1ea4c3b",31,1
"3319",1,1,331,1,1,1,"1ea4c3b",32,1
"3419",1,1,198,3,3,1,"1ea4c3b",33,1
"3519",1,1,316,4,4,1,"1ea4c3b",34,1
"3619",1,1,425,5,5,1,"1ea4c3b",35,1
"3719",1,1,347,1,1,1,"1ea4c3b",36,1
"3819",0,1,417,2,1,1,"1ea4c3b",37,1
"3919",0,0,495,2,2,1,"1ea4c3b",38,1
"4019",1,1,433,6,6,1,"1ea4c3b",39,1
"4123",0,1,575,1,3,1,"1ea4c3b",40,1
"4221",0,1,291,1,6,1,"1ea4c3b",41,1
"4319",0,1,409,1,4,1,"1ea4c3b",42,1
"4419",0,1,347,1,5,1,"1ea4c3b",43,1
"4519",1,1,238,3,3,1,"1ea4c3b",44,1
"4619",0,1,360,1,5,1,"1ea4c3b",45,1
"4719",1,1,323,1,1,1,"1ea4c3b",46,1
"4819",1,1,268,6,6,1,"1ea4c3b",47,1
"4919",1,1,463,4,4,1,"1ea4c3b",48,1
"5019",0,1,268,2,1,1,"1ea4c3b",49,1
"5123",1,1,220,3,3,1,"1ea4c3b",50,1
"5221",0,1,370,1,6,1,"1ea4c3b",51,1
"5319",0,1,291,4,1,1,"1ea4c3b",52,1
"5419",1,1,323,5,5,1,"1ea4c3b",53,1
"5519",0,1,300,3,1,1,"1ea4c3b",54,1
"5619",1,1,370,2,2,1,"1ea4c3b",55,1
"5719",1,1,308,1,1,1,"1ea4c3b",56,1
"5819",0,1,503,4,1,1,"1ea4c3b",57,1
"5919",1,1,402,3,3,1,"1ea4c3b",58,1
"6019",0,1,385,1,6,1,"1ea4c3b",59,1
"6123",1,1,267,4,4,1,"1ea4c3b",60,1
"6221",1,1,410,6,6,1,"1ea4c3b",61,1
"6319",1,1,340,2,2,1,"1ea4c3b",62,1
"6419",1,1,276,5,5,1,"1ea4c3b",63,1
"6519",0,1,341,5,1,1,"1ea4c3b",64,1
"6619",0,1,394,3,1,1,"1ea4c3b",65,1
"6719",0,1,510,2,1,1,"1ea4c3b",66,1
"6819",1,0,324,2,1,1,"1ea4c3b",67,1
"6919",1,1,417,2,2,1,"1ea4c3b",68,1
"7019",0,1,480,1,3,1,"1ea4c3b",69,1
"7123",1,1,456,3,3,1,"1ea4c3b",70,1
"7220",0,1,386,1,6,1,"1ea4c3b",71,1
"7319",1,1,348,1,1,1,"1ea4c3b",72,1
"7419",1,1,471,5,5,1,"1ea4c3b",73,1
"7519",0,1,426,5,1,1,"1ea4c3b",74,1
"7619",0,1,324,4,1,1,"1ea4c3b",75,1
"7719",1,1,433,6,6,1,"1ea4c3b",76,1
"7819",-1,-1,0,4,4,1,"1ea4c3b",77,1
"2104",1,0,973,3,1,3,"11a31fc",1,1
"3104",0,0,634,2,2,3,"11a31fc",2,1
"4104",1,1,718,6,6,3,"11a31fc",3,1
"5104",1,0,543,5,1,3,"11a31fc",4,1
"6104",1,1,538,4,4,3,"11a31fc",5,1
"795",0,1,426,1,2,3,"11a31fc",6,1
"820",1,0,493,1,6,3,"11a31fc",7,1
"920",1,1,658,1,1,3,"11a31fc",8,1
"1020",1,1,531,3,3,3,"11a31fc",9,1
"1120",0,0,461,5,5,3,"11a31fc",10,1
"1220",1,0,381,4,1,3,"11a31fc",11,1
"1320",1,0,503,2,1,3,"11a31fc",12,1
"1420",1,1,452,5,5,3,"11a31fc",13,1
"1520",1,1,456,6,6,3,"11a31fc",14,1
"1620",0,1,342,1,6,3,"11a31fc",15,1
"1720",1,1,364,3,3,3,"11a31fc",16,1
"1820",1,1,369,4,4,3,"11a31fc",17,1
"1920",1,0,608,5,1,3,"11a31fc",18,1
"2020",1,1,446,2,2,3,"11a31fc",19,1
"2124",0,1,359,3,1,3,"11a31fc",20,1
"2222",1,0,374,1,4,3,"11a31fc",21,1
"2320",0,0,362,1,1,3,"11a31fc",22,1
"2420",1,0,310,2,1,3,"11a31fc",23,1
"2520",0,0,376,4,4,3,"11a31fc",24,1
"2620",0,1,325,6,1,3,"11a31fc",25,1
"2720",0,0,416,1,1,3,"11a31fc",26,1
"2820",1,0,311,1,3,3,"11a31fc",27,1
"2920",0,1,367,4,1,3,"11a31fc",28,1
"3020",0,0,331,2,2,3,"11a31fc",29,1
"3124",1,1,266,5,5,3,"11a31fc",30,1
"3222",0,1,243,1,5,3,"11a31fc",31,1
"3320",0,0,271,6,6,3,"11a31fc",32,1
"3420",0,0,253,3,3,3,"11a31fc",33,1
"3520",0,0,342,4,4,3,"11a31fc",34,1
"3620",1,1,511,3,3,3,"11a31fc",35,1
"3720",1,0,417,6,1,3,"11a31fc",36,1
"3820",0,1,327,2,1,3,"11a31fc",37,1
"3920",0,1,296,1,4,3,"11a31fc",38,1
"4020",1,0,330,5,1,3,"11a31fc",39,1
"4124",0,0,304,2,2,3,"11a31fc",40,1
"4222",1,1,269,6,6,3,"11a31fc",41,1
"4320",0,1,402,1,3,3,"11a31fc",42,1
"4420",0,0,295,5,5,3,"11a31fc",43,1
"4520",0,0,243,1,1,3,"11a31fc",44,1
"4620",1,0,259,1,6,3,"11a31fc",45,1
"4720",0,0,311,1,1,3,"11a31fc",46,1
"4820",0,0,329,5,5,3,"11a31fc",47,1
"4920",0,0,160,6,6,3,"11a31fc",48,1
"5020",1,1,353,4,4,3,"11a31fc",49,1
"5124",1,1,362,2,2,3,"11a31fc",50,1
"5222",1,0,402,2,1,3,"11a31fc",51,1
"5320",0,1,340,5,1,3,"11a31fc",52,1
"5420",0,1,666,4,1,3,"11a31fc",53,1
"5520",1,0,427,1,3,3,"11a31fc",54,1
"5620",1,1,606,3,3,3,"11a31fc",55,1
"5720",0,1,955,6,1,3,"11a31fc",56,1
"5820",0,1,704,1,3,3,"11a31fc",57,1
"5920",0,1,262,1,2,3,"11a31fc",58,1
"6020",0,0,523,3,3,3,"11a31fc",59,1
"6124",1,1,296,4,4,3,"11a31fc",60,1
"6222",1,1,406,2,2,3,"11a31fc",61,1
"6320",1,1,880,6,6,3,"11a31fc",62,1
"6420",1,1,1298,5,5,3,"11a31fc",63,1
"6520",1,1,905,1,1,3,"11a31fc",64,1
"6620",0,1,306,5,1,3,"11a31fc",65,1
"6720",0,1,1474,1,4,3,"11a31fc",66,1
"6820",0,0,796,1,1,3,"11a31fc",67,1
"6920",0,0,427,4,4,3,"11a31fc",68,1
"7020",1,0,887,1,6,3,"11a31fc",69,1
"7124",0,1,151,5,1,3,"11a31fc",70,1
"7221",0,1,327,3,1,3,"11a31fc",71,1
"7320",1,0,372,1,4,3,"11a31fc",72,1
"7420",0,0,434,6,6,3,"11a31fc",73,1
"7520",0,0,14,5,5,3,"11a31fc",74,1
"7620",0,1,410,1,2,3,"11a31fc",75,1
"7720",0,0,459,2,2,3,"11a31fc",76,1
"7820",1,1,303,3,3,3,"11a31fc",77,1
"2105",0,1,859,1,2,3,"04dc77b",1,1
"3105",0,1,1577,1,3,3,"04dc77b",2,1
"4105",1,1,651,5,5,3,"04dc77b",3,1
"5105",1,0,653,5,1,3,"04dc77b",4,1
"6105",0,1,456,6,1,3,"04dc77b",5,1
"796",1,1,437,3,3,3,"04dc77b",6,1
"821",1,1,280,4,4,3,"04dc77b",7,1
"921",1,1,409,6,6,3,"04dc77b",8,1
"1021",1,0,275,1,4,3,"04dc77b",9,1
"1121",1,1,388,1,1,3,"04dc77b",10,1
"1221",1,1,252,2,2,3,"04dc77b",11,1
"1321",1,1,480,2,2,3,"04dc77b",12,1
"1421",0,1,283,1,2,3,"04dc77b",13,1
"1521",1,0,391,1,6,3,"04dc77b",14,1
"1621",0,1,179,5,1,3,"04dc77b",15,1
"1721",0,1,227,3,1,3,"04dc77b",16,1
"1821",0,0,256,4,4,3,"04dc77b",17,1
"1921",1,1,271,3,3,3,"04dc77b",18,1
"2021",0,0,248,1,1,3,"04dc77b",19,1
"2125",0,0,332,6,6,3,"04dc77b",20,1
"2223",1,0,285,1,4,3,"04dc77b",21,1
"2321",0,0,283,5,5,3,"04dc77b",22,1
"2421",1,0,403,6,1,3,"04dc77b",23,1
"2521",1,0,144,4,1,3,"04dc77b",24,1
"2621",0,0,257,6,6,3,"04dc77b",25,1
"2721",1,1,285,1,1,3,"04dc77b",26,1
"2821",0,1,258,2,1,3,"04dc77b",27,1
"2921",0,0,267,2,2,3,"04dc77b",28,1
"3021",0,0,266,3,3,3,"04dc77b",29,1
"3125",0,0,293,5,5,3,"04dc77b",30,1
"3223",0,1,471,3,1,3,"04dc77b",31,1
"3321",1,0,288,5,1,3,"04dc77b",32,1
"3421",1,1,337,4,4,3,"04dc77b",33,1
"3521",1,0,434,6,1,3,"04dc77b",34,1
"3621",1,1,282,3,3,3,"04dc77b",35,1
"3721",1,1,223,1,1,3,"04dc77b",36,1
"3821",0,1,320,1,2,3,"04dc77b",37,1
"3921",1,1,296,6,6,3,"04dc77b",38,1
"4021",1,1,487,4,4,3,"04dc77b",39,1
"4125",0,1,303,4,1,3,"04dc77b",40,1
"4223",1,1,363,5,5,3,"04dc77b",41,1
"4321",1,1,471,2,2,3,"04dc77b",42,1
"4421",0,1,305,3,1,3,"04dc77b",43,1
"4521",0,1,360,1,5,3,"04dc77b",44,1
"4621",0,0,241,4,4,3,"04dc77b",45,1
"4721",1,1,242,1,1,3,"04dc77b",46,1
"4821",0,0,249,3,3,3,"04dc77b",47,1
"4921",1,0,236,1,4,3,"04dc77b",48,1
"5021",1,1,134,2,2,3,"04dc77b",49,1
"5125",1,0,376,1,5,3,"04dc77b",50,1
"5223",0,1,312,2,1,3,"04dc77b",51,1
"5321",0,0,250,6,6,3,"04dc77b",52,1
"5421",1,1,223,5,5,3,"04dc77b",53,1
"5521",0,1,297,1,6,3,"04dc77b",54,1
"5621",1,0,390,1,3,3,"04dc77b",55,1
"5721",1,0,167,6,1,3,"04dc77b",56,1
"5821",1,1,592,1,1,3,"04dc77b",57,1
"5921",1,0,245,4,1,3,"04dc77b",58,1
"6021",0,1,305,1,5,3,"04dc77b",59,1
"6125",1,1,360,6,6,3,"04dc77b",60,1
"6223",1,0,0,1,3,3,"04dc77b",61,1
"6321",0,1,252,2,1,3,"04dc77b",62,1
"6421",0,0,271,3,3,3,"04dc77b",63,1
"6521",0,0,270,2,2,3,"04dc77b",64,1
"6621",1,1,553,5,5,3,"04dc77b",65,1
"6721",1,1,238,4,4,3,"04dc77b",66,1
"6821",1,1,664,1,1,3,"04dc77b",67,1
"6921",0,1,174,6,1,3,"04dc77b",68,1
"7021",0,0,181,2,2,3,"04dc77b",69,1
"7125",1,1,277,4,4,3,"04dc77b",70,1
"7222",1,1,266,5,5,3,"04dc77b",71,1
"7321",0,1,244,4,1,3,"04dc77b",72,1
"7421",1,0,231,1,3,3,"04dc77b",73,1
"7521",1,1,339,6,6,3,"04dc77b",74,1
"7621",1,0,265,1,2,3,"04dc77b",75,1
"7721",0,1,357,1,5,3,"04dc77b",76,1
"7821",1,1,283,3,3,3,"04dc77b",77,1
"2106",1,1,747,1,1,2,"166ecb9",1,1
"3106",1,1,367,2,2,2,"166ecb9",2,1
"4106",1,0,277,6,1,2,"166ecb9",3,1
"5106",1,0,1433,1,5,2,"166ecb9",4,1
"6106",1,1,356,4,4,2,"166ecb9",5,1
"797",1,1,19,6,6,2,"166ecb9",6,1
"822",1,0,95,1,4,2,"166ecb9",7,1
"922",1,0,457,2,1,2,"166ecb9",8,1
"1022",0,0,244,5,5,2,"166ecb9",9,1
"1122",1,1,689,3,3,2,"166ecb9",10,1
"1222",1,0,297,3,1,2,"166ecb9",11,1
"1322",0,0,304,5,5,2,"166ecb9",12,1
"1422",0,1,321,6,1,2,"166ecb9",13,1
"1522",0,0,360,4,4,2,"166ecb9",14,1
"1622",0,1,494,4,1,2,"166ecb9",15,1
"1722",1,1,638,2,2,2,"166ecb9",16,1
"1822",1,1,309,1,1,2,"166ecb9",17,1
"1922",0,1,332,5,1,2,"166ecb9",18,1
"2022",1,1,351,3,3,2,"166ecb9",19,1
"2126",1,0,588,1,3,2,"166ecb9",20,1
"2224",1,0,308,2,1,2,"166ecb9",21,1
"2322",1,1,268,6,6,2,"166ecb9",22,1
"2422",1,1,259,2,2,2,"166ecb9",23,1
"2522",0,0,297,3,3,2,"166ecb9",24,1
"2622",1,0,460,1,6,2,"166ecb9",25,1
"2722",1,1,314,6,6,2,"166ecb9",26,1
"2822",1,1,355,5,5,2,"166ecb9",27,1
"2922",1,1,422,1,1,2,"166ecb9",28,1
"3022",0,0,387,4,4,2,"166ecb9",29,1
"3126",0,1,380,3,1,2,"166ecb9",30,1
"3224",0,1,280,1,5,2,"166ecb9",31,1
"3322",1,0,301,1,2,2,"166ecb9",32,1
"3422",0,1,465,4,1,2,"166ecb9",33,1
"3522",0,1,296,1,5,2,"166ecb9",34,1
"3622",1,1,424,3,3,2,"166ecb9",35,1
"3722",0,1,306,3,1,2,"166ecb9",36,1
"3822",1,1,261,2,2,2,"166ecb9",37,1
"3922",1,0,317,1,2,2,"166ecb9",38,1
"4022",1,1,323,6,6,2,"166ecb9",39,1
"4126",0,1,294,1,4,2,"166ecb9",40,1
"4224",1,1,283,1,1,2,"166ecb9",41,1
"4322",0,0,693,5,5,2,"166ecb9",42,1
"4422",1,1,261,4,4,2,"166ecb9",43,1
"4522",0,1,383,1,6,2,"166ecb9",44,1
"4622",1,1,280,4,4,2,"166ecb9",45,1
"4722",1,1,314,1,1,2,"166ecb9",46,1
"4822",0,1,307,4,1,2,"166ecb9",47,1
"4922",1,1,255,3,3,2,"166ecb9",48,1
"5022",0,1,405,1,5,2,"166ecb9",49,1
"5126",1,1,456,6,6,2,"166ecb9",50,1
"5224",1,1,231,5,5,2,"166ecb9",51,1
"5322",1,1,247,2,2,2,"166ecb9",52,1
"5422",1,0,335,2,1,2,"166ecb9",53,1
"5522",0,1,322,6,1,2,"166ecb9",54,1
"5622",0,1,269,1,3,2,"166ecb9",55,1
"5722",1,1,262,2,2,2,"166ecb9",56,1
"5822",1,1,1131,4,4,2,"166ecb9",57,1
"5922",0,1,297,1,6,2,"166ecb9",58,1
"6022",1,0,252,1,2,2,"166ecb9",59,1
"6126",1,0,131,3,1,2,"166ecb9",60,1
"6224",0,1,81,5,1,2,"166ecb9",61,1
"6322",1,1,275,1,1,2,"166ecb9",62,1
"6422",1,1,282,5,5,2,"166ecb9",63,1
"6522",1,1,781,6,6,2,"166ecb9",64,1
"6622",0,1,288,1,4,2,"166ecb9",65,1
"6722",1,1,244,3,3,2,"166ecb9",66,1
"6822",1,1,258,1,1,2,"166ecb9",67,1
"6922",0,1,335,6,1,2,"166ecb9",68,1
"7022",0,1,369,4,1,2,"166ecb9",69,1
"7126",1,1,275,3,3,2,"166ecb9",70,1
"7223",1,0,822,1,3,2,"166ecb9",71,1
"7322",1,1,1033,5,5,2,"166ecb9",72,1
"7422",0,1,654,5,1,2,"166ecb9",73,1
"7522",1,0,361,2,1,2,"166ecb9",74,1
"7622",1,1,294,2,2,2,"166ecb9",75,1
"7722",1,1,896,4,4,2,"166ecb9",76,1
"7822",1,1,276,6,6,2,"166ecb9",77,1
"2107",1,1,798,5,5,2,"130763f",1,1
"3107",1,0,685,1,4,2,"130763f",2,1
"4107",0,0,798,2,2,2,"130763f",3,1
"5107",1,0,647,1,3,2,"130763f",4,1
"6107",1,1,419,6,6,2,"130763f",5,1
"798",0,0,711,4,4,2,"130763f",6,1
"823",0,1,653,5,1,2,"130763f",7,1
"923",1,0,477,1,2,2,"130763f",8,1
"1023",1,1,380,3,3,2,"130763f",9,1
"1123",1,0,895,1,6,2,"130763f",10,1
"1223",0,0,681,1,1,2,"130763f",11,1
"1323",1,1,469,5,5,2,"130763f",12,1
"1423",1,1,437,4,4,2,"130763f",13,1
"1523",-1,-1,0,1,4,2,"130763f",14,1
"1623",1,0,380,2,1,2,"130763f",15,1
"1723",1,1,846,1,1,2,"130763f",16,1
"1823",0,0,486,6,6,2,"130763f",17,1
"1923",0,0,413,2,2,2,"130763f",18,1
"2023",0,1,477,1,6,2,"130763f",19,1
"2127",0,1,308,3,1,2,"130763f",20,1
"2225",1,1,288,3,3,2,"130763f",21,1
"2323",0,1,301,1,5,2,"130763f",22,1
"2423",0,0,383,3,3,2,"130763f",23,1
"2523",0,1,311,3,1,2,"130763f",24,1
"2623",1,1,373,2,2,2,"130763f",25,1
"2723",0,0,412,4,4,2,"130763f",26,1
"2823",0,1,502,5,1,2,"130763f",27,1
"2923",0,1,325,1,6,2,"130763f",28,1
"3023",1,1,525,6,6,2,"130763f",29,1
"3127",0,1,305,1,4,2,"130763f",30,1
"3225",1,1,308,1,1,2,"130763f",31,1
"3323",1,1,313,5,5,2,"130763f",32,1
"3423",0,1,295,2,1,2,"130763f",33,1
"3523",0,1,501,1,3,2,"130763f",34,1
"3623",0,1,318,1,6,2,"130763f",35,1
"3723",0,1,273,5,1,2,"130763f",36,1
"3823",1,1,289,1,1,2,"130763f",37,1
"3923",0,1,336,2,1,2,"130763f",38,1
"4023",1,1,340,2,2,2,"130763f",39,1
"4127",1,1,333,5,5,2,"130763f",40,1
"4225",1,1,272,3,3,2,"130763f",41,1
"4323",1,1,1176,6,6,2,"130763f",42,1
"4423",1,1,600,4,4,2,"130763f",43,1
"4523",0,1,387,1,4,2,"130763f",44,1
"4623",0,0,296,1,1,2,"130763f",45,1
"4723",0,1,288,1,3,2,"130763f",46,1
"4823",1,1,374,4,4,2,"130763f",47,1
"4923",1,1,368,5,5,2,"130763f",48,1
"5023",0,1,291,6,1,2,"130763f",49,1
"5127",0,1,443,4,1,2,"130763f",50,1
"5225",1,1,250,6,6,2,"130763f",51,1
"5323",0,1,336,5,1,2,"130763f",52,1
"5423",0,1,439,1,2,2,"130763f",53,1
"5523",1,1,272,3,3,2,"130763f",54,1
"5623",1,1,244,2,2,2,"130763f",55,1
"5723",0,1,277,2,1,2,"130763f",56,1
"5823",0,1,255,3,1,2,"130763f",57,1
"5923",0,0,439,5,5,2,"130763f",58,1
"6023",1,1,397,6,6,2,"130763f",59,1
"6127",1,1,453,3,3,2,"130763f",60,1
"6225",1,1,443,1,1,2,"130763f",61,1
"6323",0,1,431,1,6,2,"130763f",62,1
"6423",1,1,452,4,4,2,"130763f",63,1
"6523",0,1,288,4,1,2,"130763f",64,1
"6623",1,1,467,2,2,2,"130763f",65,1
"6723",0,1,294,1,5,2,"130763f",66,1
"6823",1,1,373,3,3,2,"130763f",67,1
"6923",1,1,421,4,4,2,"130763f",68,1
"7023",0,1,462,1,5,2,"130763f",69,1
"7127",0,1,220,1,3,2,"130763f",70,1
"7224",0,1,277,2,1,2,"130763f",71,1
"7323",0,1,336,1,6,2,"130763f",72,1
"7423",1,1,285,2,2,2,"130763f",73,1
"7523",1,1,308,5,5,2,"130763f",74,1
"7623",1,1,260,6,6,2,"130763f",75,1
"7723",0,1,288,1,4,2,"130763f",76,1
"7823",1,1,265,1,1,2,"130763f",77,1
"2108",-1,-1,0,1,1,2,"1140ee1",1,1
"3108",1,1,738,6,6,2,"1140ee1",2,1
"4108",0,1,904,2,1,2,"1140ee1",3,1
"5108",1,0,392,5,1,2,"1140ee1",4,1
"6108",0,1,335,4,1,2,"1140ee1",5,1
"799",1,1,1110,3,3,2,"1140ee1",6,1
"824",0,0,340,4,4,2,"1140ee1",7,1
"924",1,1,825,5,5,2,"1140ee1",8,1
"1024",1,0,545,3,1,2,"1140ee1",9,1
"1124",0,0,464,2,2,2,"1140ee1",10,1
"1224",0,1,324,1,6,2,"1140ee1",11,1
"1324",1,1,784,1,1,2,"1140ee1",12,1
"1424",0,1,291,5,1,2,"1140ee1",13,1
"1524",1,1,681,6,6,2,"1140ee1",14,1
"1624",1,1,373,3,3,2,"1140ee1",15,1
"1724",1,1,735,5,5,2,"1140ee1",16,1
"1824",0,1,335,1,6,2,"1140ee1",17,1
"1924",0,0,358,4,4,2,"1140ee1",18,1
"2024",0,1,768,1,3,2,"1140ee1",19,1
"2128",0,1,467,4,1,2,"1140ee1",20,1
"2226",1,0,442,2,1,2,"1140ee1",21,1
"2324",1,1,549,2,2,2,"1140ee1",22,1
"2424",1,1,410,2,2,2,"1140ee1",23,1
"2524",1,1,459,6,6,2,"1140ee1",24,1
"2624",1,1,144,5,5,2,"1140ee1",25,1
"2724",0,1,351,1,4,2,"1140ee1",26,1
"2824",0,0,281,1,1,2,"1140ee1",27,1
"2924",0,1,374,3,1,2,"1140ee1",28,1
"3024",0,1,1155,5,1,2,"1140ee1",29,1
"3128",0,1,1806,6,1,2,"1140ee1",30,1
"3226",0,1,457,2,1,2,"1140ee1",31,1
"3324",0,0,625,3,3,2,"1140ee1",32,1
"3424",1,1,676,4,4,2,"1140ee1",33,1
"3524",0,1,556,5,1,2,"1140ee1",34,1
"3624",0,1,176,1,6,2,"1140ee1",35,1
"3724",1,1,391,2,2,2,"1140ee1",36,1
"3824",0,1,325,1,3,2,"1140ee1",37,1
"3924",1,1,565,6,6,2,"1140ee1",38,1
"4024",1,1,294,5,5,2,"1140ee1",39,1
"4128",0,1,536,4,1,2,"1140ee1",40,1
"4226",1,1,1509,4,4,2,"1140ee1",41,1
"4324",1,0,640,1,2,2,"1140ee1",42,1
"4424",1,1,919,1,1,2,"1140ee1",43,1
"4524",0,0,375,3,3,2,"1140ee1",44,1
"4624",0,1,479,1,3,2,"1140ee1",45,1
"4724",1,1,721,5,5,2,"1140ee1",46,1
"4824",0,1,846,1,6,2,"1140ee1",47,1
"4924",1,1,1356,6,6,2,"1140ee1",48,1
"5024",0,1,525,2,1,2,"1140ee1",49,1
"5128",1,1,1872,2,2,2,"1140ee1",50,1
"5226",0,1,873,1,5,2,"1140ee1",51,1
"5324",0,1,475,1,4,2,"1140ee1",52,1
"5424",1,1,474,3,3,2,"1140ee1",53,1
"5524",0,0,388,1,1,2,"1140ee1",54,1
"5624",-1,-1,0,4,4,2,"1140ee1",55,1
"5724",-1,-1,0,1,5,2,"1140ee1",56,1
"5824",-1,-1,0,4,4,2,"1140ee1",57,1
"5924",0,1,668,3,1,2,"1140ee1",58,1
"6024",1,1,485,1,1,2,"1140ee1",59,1
"6128",0,1,116,1,2,2,"1140ee1",60,1
"6226",1,1,83,3,3,2,"1140ee1",61,1
"6324",1,1,247,6,6,2,"1140ee1",62,1
"6424",1,0,448,4,1,2,"1140ee1",63,1
"6524",0,1,619,1,6,2,"1140ee1",64,1
"6624",1,1,1384,2,2,2,"1140ee1",65,1
"6724",1,1,300,5,5,2,"1140ee1",66,1
"6824",0,1,718,6,1,2,"1140ee1",67,1
"6924",1,0,1990,1,2,2,"1140ee1",68,1
"7024",0,0,1315,6,6,2,"1140ee1",69,1
"7128",0,1,567,1,4,2,"1140ee1",70,1
"7225",1,1,326,1,1,2,"1140ee1",71,1
"7324",0,1,736,5,1,2,"1140ee1",72,1
"7424",0,1,845,3,1,2,"1140ee1",73,1
"7524",1,1,737,4,4,2,"1140ee1",74,1
"7624",1,1,1239,3,3,2,"1140ee1",75,1
"7724",0,0,413,2,2,2,"1140ee1",76,1
"7824",1,1,454,5,5,2,"1140ee1",77,1
"2109",0,1,1448,1,6,2,"1273cfc",1,1
"3109",1,1,321,5,5,2,"1273cfc",2,1
"4109",1,1,304,1,1,2,"1273cfc",3,1
"5109",1,1,510,3,3,2,"1273cfc",4,1
"6109",1,0,386,5,1,2,"1273cfc",5,1
"7100",1,0,508,1,3,2,"1273cfc",6,1
"825",1,1,524,4,4,2,"1273cfc",7,1
"925",-1,-1,0,6,6,2,"1273cfc",8,1
"1025",-1,-1,0,2,1,2,"1273cfc",9,1
"1125",0,0,367,2,2,2,"1273cfc",10,1
"1225",1,0,427,1,4,2,"1273cfc",11,1
"1325",1,0,352,1,2,2,"1273cfc",12,1
"1425",1,1,336,2,2,2,"1273cfc",13,1
"1525",0,1,633,1,6,2,"1273cfc",14,1
"1625",1,1,307,3,3,2,"1273cfc",15,1
"1725",1,1,289,5,5,2,"1273cfc",16,1
"1825",1,1,414,6,6,2,"1273cfc",17,1
"1925",0,0,575,4,4,2,"1273cfc",18,1
"2025",0,1,658,5,1,2,"1273cfc",19,1
"2129",1,1,257,1,1,2,"1273cfc",20,1
"2227",1,0,754,1,3,2,"1273cfc",21,1
"2325",0,1,476,4,1,2,"1273cfc",22,1
"2425",1,1,351,3,3,2,"1273cfc",23,1
"2525",1,1,554,2,2,2,"1273cfc",24,1
"2625",1,1,322,4,4,2,"1273cfc",25,1
"2725",0,1,400,1,4,2,"1273cfc",26,1
"2825",1,0,178,1,2,2,"1273cfc",27,1
"2925",1,1,294,5,5,2,"1273cfc",28,1
"3025",1,1,336,6,6,2,"1273cfc",29,1
"3129",0,1,398,1,6,2,"1273cfc",30,1
"3227",0,1,493,3,1,2,"1273cfc",31,1
"3325",0,1,368,5,1,2,"1273cfc",32,1
"3425",1,1,492,1,1,2,"1273cfc",33,1
"3525",1,1,979,6,6,2,"1273cfc",34,1
"3625",1,0,1164,2,1,2,"1273cfc",35,1
"3725",1,1,1072,3,3,2,"1273cfc",36,1
"3825",0,1,1323,1,5,2,"1273cfc",37,1
"3925",1,1,314,5,5,2,"1273cfc",38,1
"4025",0,1,462,3,1,2,"1273cfc",39,1
"4129",1,1,543,2,2,2,"1273cfc",40,1
"4227",0,1,836,1,4,2,"1273cfc",41,1
"4325",1,1,729,4,4,2,"1273cfc",42,1
"4425",1,1,573,1,1,2,"1273cfc",43,1
"4525",0,1,444,6,1,2,"1273cfc",44,1
"4625",1,0,320,1,2,2,"1273cfc",45,1
"4725",0,1,790,4,1,2,"1273cfc",46,1
"4825",1,1,1429,4,4,2,"1273cfc",47,1
"4925",0,1,1072,6,1,2,"1273cfc",48,1
"5025",1,1,368,1,1,2,"1273cfc",49,1
"5129",1,1,425,2,2,2,"1273cfc",50,1
"5227",1,1,149,3,3,2,"1273cfc",51,1
"5325",1,1,511,5,5,2,"1273cfc",52,1
"5425",0,1,1093,3,1,2,"1273cfc",53,1
"5525",1,1,370,6,6,2,"1273cfc",54,1
"5625",0,1,572,1,5,2,"1273cfc",55,1
"5725",1,1,513,1,1,2,"1273cfc",56,1
"5825",0,1,602,1,5,2,"1273cfc",57,1
"5925",1,1,507,6,6,2,"1273cfc",58,1
"6025",0,1,570,3,1,2,"1273cfc",59,1
"6129",1,0,335,1,2,2,"1273cfc",60,1
"6227",0,1,1117,1,6,2,"1273cfc",61,1
"6325",0,0,378,3,3,2,"1273cfc",62,1
"6425",1,1,510,5,5,2,"1273cfc",63,1
"6525",1,1,569,2,2,2,"1273cfc",64,1
"6625",0,1,1682,1,4,2,"1273cfc",65,1
"6725",1,1,837,4,4,2,"1273cfc",66,1
"6825",0,0,789,4,4,2,"1273cfc",67,1
"6925",0,1,555,1,2,2,"1273cfc",68,1
"7025",1,1,698,3,3,2,"1273cfc",69,1
"7129",0,1,508,1,3,2,"1273cfc",70,1
"7226",1,1,274,2,2,2,"1273cfc",71,1
"7325",0,1,356,5,1,2,"1273cfc",72,1
"7425",1,1,448,5,5,2,"1273cfc",73,1
"7525",0,1,493,6,1,2,"1273cfc",74,1
"7625",1,1,539,1,1,2,"1273cfc",75,1
"7725",0,1,419,4,1,2,"1273cfc",76,1
"7825",1,1,617,6,6,2,"1273cfc",77,1
"2130",1,0,382,3,1,2,"1fd534d",1,1
"3130",1,0,1715,1,6,2,"1fd534d",2,1
"4130",1,1,979,3,3,2,"1fd534d",3,1
"5130",1,1,1817,6,6,2,"1fd534d",4,1
"6130",1,1,1827,1,1,2,"1fd534d",5,1
"7101",1,0,1894,2,1,2,"1fd534d",6,1
"826",1,0,1710,4,1,2,"1fd534d",7,1
"926",1,0,1777,5,1,2,"1fd534d",8,1
"1026",1,1,1834,4,4,2,"1fd534d",9,1
"1126",1,1,665,5,5,2,"1fd534d",10,1
"1226",1,1,1830,2,2,2,"1fd534d",11,1
"1326",1,1,1080,4,4,2,"1fd534d",12,1
"1426",1,1,1889,1,1,2,"1fd534d",13,1
"1526",1,1,1931,6,6,2,"1fd534d",14,1
"1626",0,0,335,2,2,2,"1fd534d",15,1
"1726",0,1,1818,2,1,2,"1fd534d",16,1
"1826",0,1,2000,1,4,2,"1fd534d",17,1
"1926",0,1,1711,3,1,2,"1fd534d",18,1
"2026",0,1,1902,1,6,2,"1fd534d",19,1
"2131",0,0,2005,5,5,2,"1fd534d",20,1
"2228",0,1,1118,1,5,2,"1fd534d",21,1
"2326",1,1,1652,3,3,2,"1fd534d",22,1
"2426",1,0,1901,6,1,2,"1fd534d",23,1
"2526",1,0,1786,2,1,2,"1fd534d",24,1
"2626",1,0,1841,3,1,2,"1fd534d",25,1
"2726",1,1,1942,2,2,2,"1fd534d",26,1
"2826",1,1,1882,4,4,2,"1fd534d",27,1
"2926",-1,0,1824,5,5,2,"1fd534d",28,1
"3026",1,1,1891,3,3,2,"1fd534d",29,1
"3131",0,1,1752,4,1,2,"1fd534d",30,1
"3228",0,0,1925,1,1,2,"1fd534d",31,1
"3326",0,0,1826,6,6,2,"1fd534d",32,1
"3426",0,1,1947,5,1,2,"1fd534d",33,1
"3526",0,1,1858,4,1,2,"1fd534d",34,1
"3626",0,0,1902,5,5,2,"1fd534d",35,1
"3726",0,1,1982,6,1,2,"1fd534d",36,1
"3826",1,0,1934,3,1,2,"1fd534d",37,1
"3926",1,1,1898,6,6,2,"1fd534d",38,1
"4026",1,1,1983,1,1,2,"1fd534d",39,1
"4131",1,1,1704,4,4,2,"1fd534d",40,1
"4228",1,0,1840,2,1,2,"1fd534d",41,1
"4326",1,1,1818,3,3,2,"1fd534d",42,1
"4426",0,1,1542,5,1,2,"1fd534d",43,1
"4526",0,0,1703,2,2,2,"1fd534d",44,1
"4626",0,1,1556,3,1,2,"1fd534d",45,1
"4726",0,0,1773,6,6,2,"1fd534d",46,1
"4826",0,0,1902,2,2,2,"1fd534d",47,1
"4926",0,1,353,2,1,2,"1fd534d",48,1
"5026",1,0,1870,1,6,2,"1fd534d",49,1
"5131",1,1,1766,5,5,2,"1fd534d",50,1
"5228",1,1,1576,3,3,2,"1fd534d",51,1
"5326",1,1,1785,1,1,2,"1fd534d",52,1
"5426",1,0,1872,4,1,2,"1fd534d",53,1
"5526",1,1,1981,4,4,2,"1fd534d",54,1
"5626",-1,-1,0,1,5,2,"1fd534d",55,1
"5726",1,0,1377,4,1,2,"1fd534d",56,1
"5826",0,0,1532,1,1,2,"1fd534d",57,1
"5926",0,1,179,3,1,2,"1fd534d",58,1
"6026",0,1,1992,1,5,2,"1fd534d",59,1
"6131",0,0,1983,6,6,2,"1fd534d",60,1
"6228",0,0,1750,4,4,2,"1fd534d",61,1
"6326",0,1,1877,2,1,2,"1fd534d",62,1
"6426",1,1,254,5,5,2,"1fd534d",63,1
"6526",1,1,1158,2,2,2,"1fd534d",64,1
"6626",1,1,1957,3,3,2,"1fd534d",65,1
"6726",1,0,1842,6,1,2,"1fd534d",66,1
"6826",1,0,1809,1,3,2,"1fd534d",67,1
"6926",1,1,1860,6,6,2,"1fd534d",68,1
"7026",1,1,1768,2,2,2,"1fd534d",69,1
"7130",1,1,1959,1,1,2,"1fd534d",70,1
"7227",0,0,421,3,3,2,"1fd534d",71,1
"7326",1,0,1965,5,1,2,"1fd534d",72,1
"7426",1,1,1981,4,4,2,"1fd534d",73,1
"7526",1,0,1861,6,1,2,"1fd534d",74,1
"7626",1,1,1858,5,5,2,"1fd534d",75,1
"7726",1,0,1594,1,2,2,"1fd534d",76,1
"7826",1,0,1046,4,1,2,"1fd534d",77,1
"2132",1,1,614,2,2,2,"1ecf704",1,1
"3132",1,1,275,3,3,2,"1ecf704",2,1
"4132",1,1,547,5,5,2,"1ecf704",3,1
"5132",1,0,490,1,5,2,"1ecf704",4,1
"6132",0,1,1814,3,1,2,"1ecf704",5,1
"7102",1,1,1195,4,4,2,"1ecf704",6,1
"827",1,1,318,6,6,2,"1ecf704",7,1
"927",0,1,256,1,6,2,"1ecf704",8,1
"1027",1,1,1182,1,1,2,"1ecf704",9,1
"1127",0,1,1283,4,1,2,"1ecf704",10,1
"1227",0,1,170,2,1,2,"1ecf704",11,1
"1327",1,1,642,3,3,2,"1ecf704",12,1
"1427",0,1,28,1,6,2,"1ecf704",13,1
"1527",0,1,733,3,1,2,"1ecf704",14,1
"1627",1,1,231,4,4,2,"1ecf704",15,1
"1727",1,1,913,6,6,2,"1ecf704",16,1
"1827",1,1,1063,5,5,2,"1ecf704",17,1
"1927",1,1,559,2,2,2,"1ecf704",18,1
"2027",0,1,529,1,4,2,"1ecf704",19,1
"2133",1,1,238,1,1,2,"1ecf704",20,1
"2229",0,1,1023,1,2,2,"1ecf704",21,1
"2327",0,1,738,5,1,2,"1ecf704",22,1
"2427",1,1,250,2,2,2,"1ecf704",23,1
"2527",0,1,1356,1,3,2,"1ecf704",24,1
"2627",1,1,47,4,4,2,"1ecf704",25,1
"2727",0,1,63,4,1,2,"1ecf704",26,1
"2827",1,1,382,3,3,2,"1ecf704",27,1
"2927",1,0,565,2,1,2,"1ecf704",28,1
"3027",1,1,240,5,5,2,"1ecf704",29,1
"3133",1,1,1475,1,1,2,"1ecf704",30,1
"3229",1,0,754,1,5,2,"1ecf704",31,1
"3327",1,0,309,1,6,2,"1ecf704",32,1
"3427",1,1,87,6,6,2,"1ecf704",33,1
"3527",0,1,756,2,1,2,"1ecf704",34,1
"3627",1,1,491,3,3,2,"1ecf704",35,1
"3727",1,1,357,6,6,2,"1ecf704",36,1
"3827",0,1,1804,1,5,2,"1ecf704",37,1
"3927",1,0,446,4,1,2,"1ecf704",38,1
"4027",1,1,1481,5,5,2,"1ecf704",39,1
"4133",1,1,611,2,2,2,"1ecf704",40,1
"4229",1,1,1824,1,1,2,"1ecf704",41,1
"4327",1,0,611,1,3,2,"1ecf704",42,1
"4427",1,1,1419,4,4,2,"1ecf704",43,1
"4527",1,0,271,1,6,2,"1ecf704",44,1
"4627",0,0,227,5,5,2,"1ecf704",45,1
"4727",0,0,454,4,4,2,"1ecf704",46,1
"4827",1,0,384,1,4,2,"1ecf704",47,1
"4927",1,1,720,6,6,2,"1ecf704",48,1
"5027",1,0,1520,1,3,2,"1ecf704",49,1
"5133",1,1,537,3,3,2,"1ecf704",50,1
"5229",1,0,1788,6,1,2,"1ecf704",51,1
"5327",1,0,860,5,1,2,"1ecf704",52,1
"5427",0,1,398,1,2,2,"1ecf704",53,1
"5527",1,1,516,2,2,2,"1ecf704",54,1
"5627",1,1,1321,1,1,2,"1ecf704",55,1
"5727",1,0,227,1,6,2,"1ecf704",56,1
"5827",1,1,57,6,6,2,"1ecf704",57,1
"5927",0,1,1141,2,1,2,"1ecf704",58,1
"6027",1,0,398,1,4,2,"1ecf704",59,1
"6133",1,0,200,5,1,2,"1ecf704",60,1
"6229",1,0,262,3,1,2,"1ecf704",61,1
"6327",1,1,467,2,2,2,"1ecf704",62,1
"6427",1,1,377,4,4,2,"1ecf704",63,1
"6527",1,1,298,3,3,2,"1ecf704",64,1
"6627",1,1,199,5,5,2,"1ecf704",65,1
"6727",1,1,436,1,1,2,"1ecf704",66,1
"6827",0,1,1559,1,2,2,"1ecf704",67,1
"6927",1,1,604,1,1,2,"1ecf704",68,1
"7027",1,1,1843,6,6,2,"1ecf704",69,1
"7131",1,0,324,1,3,2,"1ecf704",70,1
"7228",1,1,516,3,3,2,"1ecf704",71,1
"7327",1,1,446,5,5,2,"1ecf704",72,1
"7427",1,0,301,1,5,2,"1ecf704",73,1
"7527",1,1,461,4,4,2,"1ecf704",74,1
"7627",1,0,1418,6,1,2,"1ecf704",75,1
"7727",1,1,1395,2,2,2,"1ecf704",76,1
"7827",1,0,386,4,1,2,"1ecf704",77,1
"2134",1,1,673,1,1,2,"159df8c",1,1
"3134",1,0,480,5,1,2,"159df8c",2,1
"4134",0,1,413,6,1,2,"159df8c",3,1
"5134",0,1,441,4,1,2,"159df8c",4,1
"6134",1,1,331,5,5,2,"159df8c",5,1
"7103",1,1,327,2,2,2,"159df8c",6,1
"828",1,1,453,3,3,2,"159df8c",7,1
"928",1,1,386,6,6,2,"159df8c",8,1
"1028",1,0,276,1,2,2,"159df8c",9,1
"1128",1,0,385,1,3,2,"159df8c",10,1
"1228",1,1,299,4,4,2,"159df8c",11,1
"1328",0,1,377,1,5,2,"159df8c",12,1
"1428",1,1,291,5,5,2,"159df8c",13,1
"1528",0,1,293,1,6,2,"159df8c",14,1
"1628",1,1,368,3,3,2,"159df8c",15,1
"1728",1,1,613,4,4,2,"159df8c",16,1
"1828",1,0,399,2,1,2,"159df8c",17,1
"1928",1,1,348,6,6,2,"159df8c",18,1
"2028",0,1,583,1,4,2,"159df8c",19,1
"2135",1,1,503,1,1,2,"159df8c",20,1
"2230",1,1,440,2,2,2,"159df8c",21,1
"2328",0,1,340,3,1,2,"159df8c",22,1
"2428",1,1,365,3,3,2,"159df8c",23,1
"2528",0,1,289,4,1,2,"159df8c",24,1
"2628",1,1,383,5,5,2,"159df8c",25,1
"2728",1,1,299,1,1,2,"159df8c",26,1
"2828",1,0,462,2,1,2,"159df8c",27,1
"2928",0,1,412,5,1,2,"159df8c",28,1
"3028",0,0,396,2,2,2,"159df8c",29,1
"3135",1,1,353,6,6,2,"159df8c",30,1
"3230",0,1,332,3,1,2,"159df8c",31,1
"3328",1,1,442,4,4,2,"159df8c",32,1
"3428",0,1,316,6,1,2,"159df8c",33,1
"3528",0,1,401,1,6,2,"159df8c",34,1
"3628",0,1,492,5,1,2,"159df8c",35,1
"3728",0,1,329,1,4,2,"159df8c",36,1
"3828",1,1,337,4,4,2,"159df8c",37,1
"3928",1,1,278,2,2,2,"159df8c",38,1
"4028",1,1,433,1,1,2,"159df8c",39,1
"4135",0,1,374,1,3,2,"159df8c",40,1
"4230",0,1,345,2,1,2,"159df8c",41,1
"4328",1,1,333,5,5,2,"159df8c",42,1
"4428",1,1,399,6,6,2,"159df8c",43,1
"4528",1,1,358,3,3,2,"159df8c",44,1
"4628",1,1,306,2,2,2,"159df8c",45,1
"4728",1,1,451,5,5,2,"159df8c",46,1
"4828",0,1,447,5,1,2,"159df8c",47,1
"4928",1,1,441,6,6,2,"159df8c",48,1
"5028",1,1,510,1,1,2,"159df8c",49,1
"5135",1,1,443,3,3,2,"159df8c",50,1
"5230",1,1,351,4,4,2,"159df8c",51,1
"5328",1,0,379,1,3,2,"159df8c",52,1
"5428",0,1,495,2,1,2,"159df8c",53,1
"5528",0,1,562,6,1,2,"159df8c",54,1
"5628",0,1,379,4,1,2,"159df8c",55,1
"5728",0,1,520,1,4,2,"159df8c",56,1
"5828",1,1,356,6,6,2,"159df8c",57,1
"5928",0,1,576,1,5,2,"159df8c",58,1
"6028",1,1,309,5,5,2,"159df8c",59,1
"6135",0,1,320,6,1,2,"159df8c",60,1
"6230",1,1,291,4,4,2,"159df8c",61,1
"6328",1,1,314,1,1,2,"159df8c",62,1
"6428",1,1,307,2,2,2,"159df8c",63,1
"6528",1,0,271,2,1,2,"159df8c",64,1
"6628",0,1,347,1,3,2,"159df8c",65,1
"6728",1,1,392,3,3,2,"159df8c",66,1
"6828",0,1,401,4,1,2,"159df8c",67,1
"6928",1,0,300,1,2,2,"159df8c",68,1
"7028",1,1,538,5,5,2,"159df8c",69,1
"7132",1,1,357,4,4,2,"159df8c",70,1
"7229",0,1,370,1,5,2,"159df8c",71,1
"7328",0,1,331,3,1,2,"159df8c",72,1
"7428",1,1,337,3,3,2,"159df8c",73,1
"7528",1,1,342,1,1,2,"159df8c",74,1
"7628",1,1,496,2,2,2,"159df8c",75,1
"7728",1,1,324,6,6,2,"159df8c",76,1
"7828",0,1,305,1,6,2,"159df8c",77,1
"2136",1,1,733,6,6,3,"1d9ee98",1,1
"3136",0,1,204,6,1,3,"1d9ee98",2,1
"4136",1,1,351,5,5,3,"1d9ee98",3,1
"5136",1,0,503,1,3,3,"1d9ee98",4,1
"6136",1,1,379,1,1,3,"1d9ee98",5,1
"7104",1,0,405,5,1,3,"1d9ee98",6,1
"829",0,0,508,3,3,3,"1d9ee98",7,1
"929",1,0,289,1,2,3,"1d9ee98",8,1
"1029",0,1,508,4,1,3,"1d9ee98",9,1
"1129",-1,-1,0,4,4,3,"1d9ee98",10,1
"1229",1,1,833,2,2,3,"1d9ee98",11,1
"1329",0,1,659,1,3,3,"1d9ee98",12,1
"1429",1,1,480,4,4,3,"1d9ee98",13,1
"1529",1,0,574,1,2,3,"1d9ee98",14,1
"1629",0,0,667,6,6,3,"1d9ee98",15,1
"1729",1,0,430,4,1,3,"1d9ee98",16,1
"1829",1,1,367,2,2,3,"1d9ee98",17,1
"1929",1,1,517,5,5,3,"1d9ee98",18,1
"2029",0,1,291,1,5,3,"1d9ee98",19,1
"2137",0,0,484,3,3,3,"1d9ee98",20,1
"2231",-1,-1,0,1,1,3,"1d9ee98",21,1
"2329",1,0,198,1,6,3,"1d9ee98",22,1
"2429",1,1,447,4,4,3,"1d9ee98",23,1
"2529",0,1,406,3,1,3,"1d9ee98",24,1
"2629",0,1,347,1,4,3,"1d9ee98",25,1
"2729",0,1,410,5,1,3,"1d9ee98",26,1
"2829",-1,-1,0,3,3,3,"1d9ee98",27,1
"2929",1,0,413,6,1,3,"1d9ee98",28,1
"3029",0,0,273,2,2,3,"1d9ee98",29,1
"3137",0,0,372,1,1,3,"1d9ee98",30,1
"3231",0,0,307,5,5,3,"1d9ee98",31,1
"3329",1,1,308,6,6,3,"1d9ee98",32,1
"3429",1,0,312,2,1,3,"1d9ee98",33,1
"3529",1,0,481,1,6,3,"1d9ee98",34,1
"3629",1,0,366,2,1,3,"1d9ee98",35,1
"3729",0,0,357,3,3,3,"1d9ee98",36,1
"3829",1,0,546,1,3,3,"1d9ee98",37,1
"3929",0,0,351,1,1,3,"1d9ee98",38,1
"4029",1,1,331,2,2,3,"1d9ee98",39,1
"4137",0,1,415,1,5,3,"1d9ee98",40,1
"4231",0,0,344,6,6,3,"1d9ee98",41,1
"4329",0,1,474,4,1,3,"1d9ee98",42,1
"4429",0,0,520,5,5,3,"1d9ee98",43,1
"4529",1,1,391,4,4,3,"1d9ee98",44,1
"4629",1,0,316,6,1,3,"1d9ee98",45,1
"4729",0,1,329,1,2,3,"1d9ee98",46,1
"4829",0,1,596,1,5,3,"1d9ee98",47,1
"4929",1,1,376,5,5,3,"1d9ee98",48,1
"5029",0,1,384,1,4,3,"1d9ee98",49,1
"5137",1,1,377,4,4,3,"1d9ee98",50,1
"5231",0,0,421,3,3,3,"1d9ee98",51,1
"5329",0,0,362,2,2,3,"1d9ee98",52,1
"5429",1,0,735,3,1,3,"1d9ee98",53,1
"5529",1,1,340,6,6,3,"1d9ee98",54,1
"5629",1,1,268,1,1,3,"1d9ee98",55,1
"5729",0,0,365,5,5,3,"1d9ee98",56,1
"5829",0,0,588,1,1,3,"1d9ee98",57,1
"5929",1,0,518,1,3,3,"1d9ee98",58,1
"6029",0,1,111,5,1,3,"1d9ee98",59,1
"6137",0,1,293,1,6,3,"1d9ee98",60,1
"6231",0,1,405,4,1,3,"1d9ee98",61,1
"6329",0,0,371,2,2,3,"1d9ee98",62,1
"6429",0,0,736,4,4,3,"1d9ee98",63,1
"6529",1,0,344,2,1,3,"1d9ee98",64,1
"6629",0,0,301,6,6,3,"1d9ee98",65,1
"6729",1,1,320,3,3,3,"1d9ee98",66,1
"6829",1,1,347,1,1,3,"1d9ee98",67,1
"6929",1,0,313,6,1,3,"1d9ee98",68,1
"7029",1,0,643,1,2,3,"1d9ee98",69,1
"7133",0,0,857,2,2,3,"1d9ee98",70,1
"7230",1,1,938,4,4,3,"1d9ee98",71,1
"7329",0,1,528,4,1,3,"1d9ee98",72,1
"7429",1,0,856,3,1,3,"1d9ee98",73,1
"7529",0,0,1323,6,6,3,"1d9ee98",74,1
"7629",1,1,1718,5,5,3,"1d9ee98",75,1
"7729",1,0,557,1,5,3,"1d9ee98",76,1
"7829",0,0,576,3,3,3,"1d9ee98",77,1
"2138",1,0,472,3,1,1,"11c37ec",1,1
"3138",0,1,442,1,6,1,"11c37ec",2,1
"4138",1,1,434,2,2,1,"11c37ec",3,1
"5138",0,1,447,1,5,1,"11c37ec",4,1
"6138",1,0,389,1,2,1,"11c37ec",5,1
"7105",1,1,433,4,4,1,"11c37ec",6,1
"830",1,1,431,5,5,1,"11c37ec",7,1
"930",0,0,394,1,1,1,"11c37ec",8,1
"1030",1,1,453,3,3,1,"11c37ec",9,1
"1130",1,0,474,4,1,1,"11c37ec",10,1
"1230",1,1,345,6,6,1,"11c37ec",11,1
"1330",0,1,438,4,1,1,"11c37ec",12,1
"1430",0,1,326,5,1,1,"11c37ec",13,1
"1530",1,1,355,3,3,1,"11c37ec",14,1
"1630",1,0,467,3,1,1,"11c37ec",15,1
"1730",0,1,369,2,1,1,"11c37ec",16,1
"1830",0,1,340,6,1,1,"11c37ec",17,1
"1930",1,1,704,2,2,1,"11c37ec",18,1
"2030",0,0,309,5,5,1,"11c37ec",19,1
"2139",0,0,563,4,4,1,"11c37ec",20,1
"2232",1,1,409,1,1,1,"11c37ec",21,1
"2330",1,1,520,6,6,1,"11c37ec",22,1
"2430",1,1,320,5,5,1,"11c37ec",23,1
"2530",1,1,406,6,6,1,"11c37ec",24,1
"2630",1,1,282,1,1,1,"11c37ec",25,1
"2730",1,1,327,3,3,1,"11c37ec",26,1
"2830",1,0,405,2,1,1,"11c37ec",27,1
"2930",1,1,412,2,2,1,"11c37ec",28,1
"3030",0,1,384,1,6,1,"11c37ec",29,1
"3139",0,1,366,4,1,1,"11c37ec",30,1
"3232",0,1,461,5,1,1,"11c37ec",31,1
"3330",1,1,356,4,4,1,"11c37ec",32,1
"3430",0,1,303,1,3,1,"11c37ec",33,1
"3530",1,1,263,6,6,1,"11c37ec",34,1
"3630",1,0,332,1,5,1,"11c37ec",35,1
"3730",1,1,456,1,1,1,"11c37ec",36,1
"3830",1,1,351,4,4,1,"11c37ec",37,1
"3930",1,1,304,2,2,1,"11c37ec",38,1
"4030",1,1,325,5,5,1,"11c37ec",39,1
"4139",0,1,495,4,1,1,"11c37ec",40,1
"4232",0,1,511,3,1,1,"11c37ec",41,1
"4330",0,1,371,2,1,1,"11c37ec",42,1
"4430",0,1,411,6,1,1,"11c37ec",43,1
"4530",0,0,319,3,3,1,"11c37ec",44,1
"4630",1,1,375,2,2,1,"11c37ec",45,1
"4730",0,1,456,1,3,1,"11c37ec",46,1
"4830",1,0,400,2,1,1,"11c37ec",47,1
"4930",0,1,294,1,5,1,"11c37ec",48,1
"5030",1,1,312,5,5,1,"11c37ec",49,1
"5139",0,1,286,6,1,1,"11c37ec",50,1
"5232",0,0,457,6,6,1,"11c37ec",51,1
"5330",0,0,386,3,3,1,"11c37ec",52,1
"5430",0,1,429,1,4,1,"11c37ec",53,1
"5530",1,1,373,1,1,1,"11c37ec",54,1
"5630",1,1,316,4,4,1,"11c37ec",55,1
"5730",0,1,335,2,1,1,"11c37ec",56,1
"5830",1,1,396,5,5,1,"11c37ec",57,1
"5930",1,1,384,1,1,1,"11c37ec",58,1
"6030",1,1,352,3,3,1,"11c37ec",59,1
"6139",0,1,294,1,5,1,"11c37ec",60,1
"6232",0,1,463,1,4,1,"11c37ec",61,1
"6330",1,1,386,6,6,1,"11c37ec",62,1
"6430",0,1,564,3,1,1,"11c37ec",63,1
"6530",1,1,429,2,2,1,"11c37ec",64,1
"6630",0,1,411,6,1,1,"11c37ec",65,1
"6730",1,1,391,4,4,1,"11c37ec",66,1
"6830",1,1,306,4,4,1,"11c37ec",67,1
"6930",0,0,400,5,5,1,"11c37ec",68,1
"7030",0,1,414,1,6,1,"11c37ec",69,1
"7134",1,1,421,1,1,1,"11c37ec",70,1
"7231",1,1,335,3,3,1,"11c37ec",71,1
"7330",1,1,319,6,6,1,"11c37ec",72,1
"7430",0,1,507,1,3,1,"11c37ec",73,1
"7530",0,1,390,4,1,1,"11c37ec",74,1
"7630",1,1,386,2,2,1,"11c37ec",75,1
"7730",1,0,311,1,2,1,"11c37ec",76,1
"7830",0,1,295,5,1,1,"11c37ec",77,1
"2140",0,1,540,3,1,1,"1e3708e",1,1
"3140",1,0,379,1,2,1,"1e3708e",2,1
"4140",0,1,288,1,4,1,"1e3708e",3,1
"5140",1,1,318,5,5,1,"1e3708e",4,1
"6140",0,0,325,4,4,1,"1e3708e",5,1
"7106",0,1,331,1,5,1,"1e3708e",6,1
"831",0,1,420,6,1,1,"1e3708e",7,1
"931",1,1,295,6,6,1,"1e3708e",8,1
"1031",1,1,332,2,2,1,"1e3708e",9,1
"1131",1,1,293,1,1,1,"1e3708e",10,1
"1231",1,1,330,3,3,1,"1e3708e",11,1
"1331",1,1,370,1,1,1,"1e3708e",12,1
"1431",0,1,378,3,1,1,"1e3708e",13,1
"1531",1,1,326,2,2,1,"1e3708e",14,1
"1631",0,1,302,5,1,1,"1e3708e",15,1
"1731",1,1,485,4,4,1,"1e3708e",16,1
"1831",1,1,374,6,6,1,"1e3708e",17,1
"1931",0,1,319,6,1,1,"1e3708e",18,1
"2031",0,1,280,1,4,1,"1e3708e",19,1
"2141",0,1,338,2,1,1,"1e3708e",20,1
"2233",1,1,337,3,3,1,"1e3708e",21,1
"2331",1,1,341,5,5,1,"1e3708e",22,1
"2431",1,1,359,6,6,1,"1e3708e",23,1
"2531",0,1,406,1,4,1,"1e3708e",24,1
"2631",0,1,398,1,5,1,"1e3708e",25,1
"2731",1,1,509,2,2,1,"1e3708e",26,1
"2831",1,1,354,1,1,1,"1e3708e",27,1
"2931",0,1,370,2,1,1,"1e3708e",28,1
"3031",0,1,352,6,1,1,"1e3708e",29,1
"3141",1,1,269,5,5,1,"1e3708e",30,1
"3233",1,1,307,4,4,1,"1e3708e",31,1
"3331",0,1,346,3,1,1,"1e3708e",32,1
"3431",1,1,328,3,3,1,"1e3708e",33,1
"3531",1,1,358,6,6,1,"1e3708e",34,1
"3631",0,1,324,1,5,1,"1e3708e",35,1
"3731",1,1,371,2,2,1,"1e3708e",36,1
"3831",1,1,308,5,5,1,"1e3708e",37,1
"3931",1,1,361,4,4,1,"1e3708e",38,1
"4031",0,1,393,2,1,1,"1e3708e",39,1
"4141",0,1,382,3,1,1,"1e3708e",40,1
"4233",1,1,382,3,3,1,"1e3708e",41,1
"4331",1,1,484,1,1,1,"1e3708e",42,1
"4431",0,1,385,1,4,1,"1e3708e",43,1
"4531",0,1,364,1,6,1,"1e3708e",44,1
"4631",1,1,321,5,5,1,"1e3708e",45,1
"4731",1,1,360,4,4,1,"1e3708e",46,1
"4831",0,1,383,1,2,1,"1e3708e",47,1
"4931",1,1,325,6,6,1,"1e3708e",48,1
"5031",1,1,332,2,2,1,"1e3708e",49,1
"5141",1,1,499,3,3,1,"1e3708e",50,1
"5233",1,1,321,1,1,1,"1e3708e",51,1
"5331",0,1,330,1,6,1,"1e3708e",52,1
"5431",0,1,303,1,3,1,"1e3708e",53,1
"5531",0,1,472,5,1,1,"1e3708e",54,1
"5631",0,1,517,4,1,1,"1e3708e",55,1
"5731",0,0,507,4,4,1,"1e3708e",56,1
"5831",0,1,352,6,1,1,"1e3708e",57,1
"5931",0,1,318,1,4,1,"1e3708e",58,1
"6031",0,1,551,1,3,1,"1e3708e",59,1
"6141",1,1,654,1,1,1,"1e3708e",60,1
"6233",0,1,380,5,1,1,"1e3708e",61,1
"6331",0,1,330,1,2,1,"1e3708e",62,1
"6431",1,1,373,3,3,1,"1e3708e",63,1
"6531",1,1,330,6,6,1,"1e3708e",64,1
"6631",1,1,323,2,2,1,"1e3708e",65,1
"6731",1,1,334,5,5,1,"1e3708e",66,1
"6831",0,1,320,1,3,1,"1e3708e",67,1
"6931",1,1,353,4,4,1,"1e3708e",68,1
"7031",0,1,344,1,6,1,"1e3708e",69,1
"7135",1,1,400,2,2,1,"1e3708e",70,1
"7232",0,1,294,2,1,1,"1e3708e",71,1
"7331",1,1,422,3,3,1,"1e3708e",72,1
"7431",1,1,403,6,6,1,"1e3708e",73,1
"7531",1,1,361,1,1,1,"1e3708e",74,1
"7631",0,1,442,4,1,1,"1e3708e",75,1
"7731",0,1,336,5,1,1,"1e3708e",76,1
"7831",1,1,400,5,5,1,"1e3708e",77,1
"2142",1,0,737,1,3,3,"14fb62f",1,1
"3142",1,1,511,2,2,3,"14fb62f",2,1
"4142",1,1,501,1,1,3,"14fb62f",3,1
"5142",1,0,750,5,1,3,"14fb62f",4,1
"6142",1,1,642,5,5,3,"14fb62f",5,1
"7107",1,1,282,6,6,3,"14fb62f",6,1
"832",0,1,687,1,4,3,"14fb62f",7,1
"932",-1,-1,0,3,3,3,"14fb62f",8,1
"1032",1,0,612,1,6,3,"14fb62f",9,1
"1132",0,0,1051,4,4,3,"14fb62f",10,1
"1232",1,0,602,2,1,3,"14fb62f",11,1
"1332",1,0,367,3,1,3,"14fb62f",12,1
"1432",1,1,414,2,2,3,"14fb62f",13,1
"1532",1,1,387,4,4,3,"14fb62f",14,1
"1632",1,0,424,4,1,3,"14fb62f",15,1
"1732",0,0,344,1,1,3,"14fb62f",16,1
"1832",1,0,684,5,1,3,"14fb62f",17,1
"1932",1,1,418,5,5,3,"14fb62f",18,1
"2032",1,1,1400,6,6,3,"14fb62f",19,1
"2143",0,1,929,2,1,3,"14fb62f",20,1
"2234",1,0,912,1,6,3,"14fb62f",21,1
"2332",1,1,646,3,3,3,"14fb62f",22,1
"2432",1,0,333,1,3,3,"14fb62f",23,1
"2532",0,0,539,5,5,3,"14fb62f",24,1
"2632",1,0,268,1,5,3,"14fb62f",25,1
"2732",0,0,1000,6,6,3,"14fb62f",26,1
"2832",1,1,584,1,1,3,"14fb62f",27,1
"2932",1,1,487,3,3,3,"14fb62f",28,1
"3032",1,1,1109,2,2,3,"14fb62f",29,1
"3143",0,0,341,4,4,3,"14fb62f",30,1
"3234",1,0,1295,2,1,3,"14fb62f",31,1
"3332",1,0,795,4,1,3,"14fb62f",32,1
"3432",1,0,859,1,6,3,"14fb62f",33,1
"3532",0,0,361,6,6,3,"14fb62f",34,1
"3632",1,1,328,1,1,3,"14fb62f",35,1
"3732",1,0,616,4,1,3,"14fb62f",36,1
"3832",1,1,1250,2,2,3,"14fb62f",37,1
"3932",-1,-1,0,5,5,3,"14fb62f",38,1
"4032",1,0,1065,6,1,3,"14fb62f",39,1
"4143",1,0,488,3,1,3,"14fb62f",40,1
"4234",1,1,372,3,3,3,"14fb62f",41,1
"4332",-1,-1,0,2,1,3,"14fb62f",42,1
"4432",1,0,638,1,5,3,"14fb62f",43,1
"4532",0,0,515,4,4,3,"14fb62f",44,1
"4632",1,1,634,2,2,3,"14fb62f",45,1
"4732",1,0,911,1,2,3,"14fb62f",46,1
"4832",0,0,640,1,1,3,"14fb62f",47,1
"4932",1,0,373,1,4,3,"14fb62f",48,1
"5032",0,0,260,3,3,3,"14fb62f",49,1
"5143",1,1,881,6,6,3,"14fb62f",50,1
"5234",1,0,348,6,1,3,"14fb62f",51,1
"5332",0,0,572,4,4,3,"14fb62f",52,1
"5432",1,1,731,5,5,3,"14fb62f",53,1
"5532",0,1,574,1,5,3,"14fb62f",54,1
"5632",1,0,835,1,3,3,"14fb62f",55,1
"5732",0,1,739,6,1,3,"14fb62f",56,1
"5832",1,1,592,5,5,3,"14fb62f",57,1
"5932",0,0,1217,2,2,3,"14fb62f",58,1
"6032",1,0,697,5,1,3,"14fb62f",59,1
"6143",1,0,496,1,3,3,"14fb62f",60,1
"6234",1,1,573,6,6,3,"14fb62f",61,1
"6332",0,0,388,1,1,3,"14fb62f",62,1
"6432",1,1,339,4,4,3,"14fb62f",63,1
"6532",1,1,751,3,3,3,"14fb62f",64,1
"6632",0,1,263,1,4,3,"14fb62f",65,1
"6732",0,1,323,2,1,3,"14fb62f",66,1
"6832",0,0,228,4,4,3,"14fb62f",67,1
"6932",1,0,379,4,1,3,"14fb62f",68,1
"7032",1,1,419,6,6,3,"14fb62f",69,1
"7136",1,0,225,3,1,3,"14fb62f",70,1
"7233",1,1,487,1,1,3,"14fb62f",71,1
"7332",1,0,1774,2,1,3,"14fb62f",72,1
"7432",0,1,757,5,1,3,"14fb62f",73,1
"7532",1,1,323,2,2,3,"14fb62f",74,1
"7632",1,1,497,5,5,3,"14fb62f",75,1
"7732",1,0,697,6,1,3,"14fb62f",76,1
"7832",0,0,436,3,3,3,"14fb62f",77,1
"2144",-1,-1,0,2,2,3,"1926fa0",1,1
"3144",-1,-1,0,1,2,3,"1926fa0",2,1
"4144",1,0,721,1,5,3,"1926fa0",3,1
"5144",1,0,520,1,3,3,"1926fa0",4,1
"6144",0,1,543,1,6,3,"1926fa0",5,1
"7108",0,0,430,3,3,3,"1926fa0",6,1
"833",1,1,358,5,5,3,"1926fa0",7,1
"933",0,1,533,1,4,3,"1926fa0",8,1
"1033",1,1,468,6,6,3,"1926fa0",9,1
"1133",0,0,781,1,1,3,"1926fa0",10,1
"1233",0,0,511,4,4,3,"1926fa0",11,1
"1333",1,1,112,3,3,3,"1926fa0",12,1
"1433",0,1,400,1,4,3,"1926fa0",13,1
"1533",1,0,326,5,1,3,"1926fa0",14,1
"1633",0,1,389,1,3,3,"1926fa0",15,1
"1733",0,1,952,1,2,3,"1926fa0",16,1
"1833",0,1,404,1,6,3,"1926fa0",17,1
"1933",0,0,463,2,2,3,"1926fa0",18,1
"2033",0,0,426,5,5,3,"1926fa0",19,1
"2145",1,1,338,4,4,3,"1926fa0",20,1
"2235",1,1,328,1,1,3,"1926fa0",21,1
"2333",0,0,347,6,6,3,"1926fa0",22,1
"2433",1,0,316,1,5,3,"1926fa0",23,1
"2533",0,0,421,1,1,3,"1926fa0",24,1
"2633",1,1,78,2,2,3,"1926fa0",25,1
"2733",1,1,311,3,3,3,"1926fa0",26,1
"2833",1,1,505,4,4,3,"1926fa0",27,1
"2933",1,1,434,6,6,3,"1926fa0",28,1
"3033",1,1,358,5,5,3,"1926fa0",29,1
"3145",1,0,372,3,1,3,"1926fa0",30,1
"3235",0,1,239,1,2,3,"1926fa0",31,1
"3333",1,0,377,4,1,3,"1926fa0",32,1
"3433",0,1,334,1,6,3,"1926fa0",33,1
"3533",0,1,424,1,2,3,"1926fa0",34,1
"3633",0,1,391,1,3,3,"1926fa0",35,1
"3733",0,0,330,1,1,3,"1926fa0",36,1
"3833",1,1,476,3,3,3,"1926fa0",37,1
"3933",1,1,365,6,6,3,"1926fa0",38,1
"4033",1,1,455,4,4,3,"1926fa0",39,1
"4145",1,1,374,5,5,3,"1926fa0",40,1
"4235",0,0,111,2,2,3,"1926fa0",41,1
"4333",1,0,804,1,4,3,"1926fa0",42,1
"4433",0,1,293,5,1,3,"1926fa0",43,1
"4533",0,1,335,6,1,3,"1926fa0",44,1
"4633",0,1,441,6,1,3,"1926fa0",45,1
"4733",0,0,393,1,1,3,"1926fa0",46,1
"4833",1,0,442,4,1,3,"1926fa0",47,1
"4933",0,0,397,2,2,3,"1926fa0",48,1
"5033",1,1,343,6,6,3,"1926fa0",49,1
"5145",1,0,415,2,1,3,"1926fa0",50,1
"5235",0,1,410,1,5,3,"1926fa0",51,1
"5333",0,1,242,3,1,3,"1926fa0",52,1
"5433",1,1,315,3,3,3,"1926fa0",53,1
"5533",0,0,524,4,4,3,"1926fa0",54,1
"5633",1,1,436,5,5,3,"1926fa0",55,1
"5733",1,1,527,5,5,3,"1926fa0",56,1
"5833",0,1,1189,6,1,3,"1926fa0",57,1
"5933",0,0,296,4,4,3,"1926fa0",58,1
"6033",0,1,751,5,1,3,"1926fa0",59,1
"6145",1,1,981,2,2,3,"1926fa0",60,1
"6235",1,1,636,6,6,3,"1926fa0",61,1
"6333",0,1,717,1,2,3,"1926fa0",62,1
"6433",0,1,937,4,1,3,"1926fa0",63,1
"6533",1,1,540,1,1,3,"1926fa0",64,1
"6633",0,1,585,1,3,3,"1926fa0",65,1
"6733",1,1,1707,3,3,3,"1926fa0",66,1
"6833",0,1,1051,1,6,3,"1926fa0",67,1
"6933",1,1,1051,4,4,3,"1926fa0",68,1
"7033",1,1,1084,2,2,3,"1926fa0",69,1
"7137",1,1,556,3,3,3,"1926fa0",70,1
"7234",1,1,432,1,1,3,"1926fa0",71,1
"7333",0,1,1609,2,1,3,"1926fa0",72,1
"7433",1,1,523,6,6,3,"1926fa0",73,1
"7533",1,1,869,5,5,3,"1926fa0",74,1
"7633",0,1,764,1,4,3,"1926fa0",75,1
"7733",0,1,589,1,5,3,"1926fa0",76,1
"7833",0,1,805,3,1,3,"1926fa0",77,1
"2146",1,0,890,6,1,2,"",1,1
"3146",1,1,591,6,6,2,"",2,1
"4146",1,1,501,4,4,2,"",3,1
"5146",1,1,351,1,1,2,"",4,1
"6146",1,1,434,2,2,2,"",5,1
"7109",1,1,316,5,5,2,"",6,1
"834",1,0,455,1,5,2,"",7,1
"934",1,1,285,3,3,2,"",8,1
"1034",1,0,322,1,3,2,"",9,1
"1134",1,0,604,1,2,2,"",10,1
"1234",0,1,464,1,4,2,"",11,1
"1334",0,1,297,1,4,2,"",12,1
"1434",1,1,266,2,2,2,"",13,1
"1534",0,1,586,6,1,2,"",14,1
"1634",1,1,697,3,3,2,"",15,1
"1734",1,0,349,1,5,2,"",16,1
"1834",1,0,344,2,1,2,"",17,1
"1934",1,1,318,1,1,2,"",18,1
"2034",0,0,345,5,5,2,"",19,1
"2147",0,1,590,3,1,2,"",20,1
"2236",0,0,417,6,6,2,"",21,1
"2334",1,1,518,4,4,2,"",22,1
"2434",0,1,339,6,1,2,"",23,1
"2534",0,1,356,1,5,2,"",24,1
"2634",1,1,495,4,4,2,"",25,1
"2734",0,1,451,2,1,2,"",26,1
"2834",1,1,487,3,3,2,"",27,1
"2934",0,0,334,5,5,2,"",28,1
"3034",1,1,500,2,2,2,"",29,1
"3147",0,0,425,6,6,2,"",30,1
"3236",1,1,356,1,1,2,"",31,1
"3334",1,0,556,1,3,2,"",32,1
"3434",1,0,451,4,1,2,"",33,1
"3534",0,1,343,5,1,2,"",34,1
"3634",0,1,498,1,6,2,"",35,1
"3734",1,0,348,2,1,2,"",36,1
"3834",1,1,35,1,1,2,"",37,1
"3934",1,1,298,6,6,2,"",38,1
"4034",0,1,472,1,3,2,"",39,1
"4147",1,1,392,2,2,2,"",40,1
"4236",1,1,946,3,3,2,"",41,1
"4334",0,1,624,4,1,2,"",42,1
"4434",1,1,467,5,5,2,"",43,1
"4534",1,1,436,4,4,2,"",44,1
"4634",-1,-1,0,2,1,2,"",45,1
"4734",0,1,523,1,5,2,"",46,1
"4834",0,0,328,6,6,2,"",47,1
"4934",1,1,347,2,2,2,"",48,1
"5034",0,1,361,1,6,2,"",49,1
"5147",0,0,498,5,5,2,"",50,1
"5236",1,1,74,1,1,2,"",51,1
"5334",0,0,509,4,4,2,"",52,1
"5434",0,0,445,3,3,2,"",53,1
"5534",0,1,447,1,4,2,"",54,1
"5634",1,0,709,3,1,2,"",55,1
"5734",0,1,411,2,1,2,"",56,1
"5834",1,1,302,4,4,2,"",57,1
"5934",0,0,548,5,5,2,"",58,1
"6034",0,1,264,1,4,2,"",59,1
"6147",1,1,510,2,2,2,"",60,1
"6236",0,0,689,3,3,2,"",61,1
"6334",1,0,296,1,5,2,"",62,1
"6434",0,0,430,1,1,2,"",63,1
"6534",0,1,415,1,6,2,"",64,1
"6634",0,1,435,1,3,2,"",65,1
"6734",1,1,307,6,6,2,"",66,1
"6834",1,1,452,2,2,2,"",67,1
"6934",0,1,1563,1,5,2,"",68,1
"7034",1,1,792,4,4,2,"",69,1
"7138",0,1,322,1,6,2,"",70,1
"7235",1,1,447,5,5,2,"",71,1
"7334",0,0,403,1,1,2,"",72,1
"7434",1,0,279,1,2,2,"",73,1
"7534",1,0,662,1,4,2,"",74,1
"7634",1,1,469,3,3,2,"",75,1
"7734",1,1,333,6,6,2,"",76,1
"7834",1,0,335,3,1,2,"",77,1
"2148",1,0,1039,4,1,2,"139cce8",1,1
"3148",1,1,670,6,6,2,"139cce8",2,1
"4148",1,1,382,4,4,2,"139cce8",3,1
"5148",0,1,979,1,2,2,"139cce8",4,1
"6148",1,1,326,2,2,2,"139cce8",5,1
"7139",1,1,280,1,1,2,"139cce8",6,1
"835",1,1,744,5,5,2,"139cce8",7,1
"935",1,1,324,3,3,2,"139cce8",8,1
"1035",0,1,896,1,6,2,"139cce8",9,1
"1135",0,1,1050,5,1,2,"139cce8",10,1
"1235",0,1,868,3,1,2,"139cce8",11,1
"1335",1,1,359,3,3,2,"139cce8",12,1
"1435",1,1,340,5,5,2,"139cce8",13,1
"1535",0,1,773,1,4,2,"139cce8",14,1
"1635",0,1,600,1,2,2,"139cce8",15,1
"1735",1,1,435,1,1,2,"139cce8",16,1
"1835",1,1,421,6,6,2,"139cce8",17,1
"1935",1,1,568,4,4,2,"139cce8",18,1
"2035",0,1,251,5,1,2,"139cce8",19,1
"2149",1,1,295,2,2,2,"139cce8",20,1
"2237",0,1,274,1,6,2,"139cce8",21,1
"2335",0,1,740,3,1,2,"139cce8",22,1
"2435",0,1,836,1,6,2,"139cce8",23,1
"2535",0,1,509,3,1,2,"139cce8",24,1
"2635",1,1,537,3,3,2,"139cce8",25,1
"2735",0,1,697,1,5,2,"139cce8",26,1
"2835",0,1,1016,2,1,2,"139cce8",27,1
"2935",1,1,512,4,4,2,"139cce8",28,1
"3035",0,1,285,1,4,2,"139cce8",29,1
"3149",1,1,653,2,2,2,"139cce8",30,1
"3237",1,1,625,6,6,2,"139cce8",31,1
"3335",1,1,525,1,1,2,"139cce8",32,1
"3435",1,1,413,5,5,2,"139cce8",33,1
"3535",1,1,1122,4,4,2,"139cce8",34,1
"3635",-1,-1,0,1,3,2,"139cce8",35,1
"3735",0,1,711,5,1,2,"139cce8",36,1
"3835",1,1,485,2,2,2,"139cce8",37,1
"3935",0,1,1042,1,2,2,"139cce8",38,1
"4035",1,1,450,6,6,2,"139cce8",39,1
"4149",1,1,610,1,1,2,"139cce8",40,1
"4237",0,1,1371,1,4,2,"139cce8",41,1
"4335",1,1,429,3,3,2,"139cce8",42,1
"4435",0,1,1106,6,1,2,"139cce8",43,1
"4535",1,1,384,5,5,2,"139cce8",44,1
"4635",1,1,1187,1,1,2,"139cce8",45,1
"4735",1,1,456,2,2,2,"139cce8",46,1
"4835",1,1,1199,5,5,2,"139cce8",47,1
"4935",1,1,239,3,3,2,"139cce8",48,1
"5035",1,1,308,4,4,2,"139cce8",49,1
"5149",0,1,669,1,5,2,"139cce8",50,1
"5237",0,1,223,2,1,2,"139cce8",51,1
"5335",1,1,291,6,6,2,"139cce8",52,1
"5435",-1,-1,0,3,1,2,"139cce8",53,1
"5535",0,1,757,1,4,2,"139cce8",54,1
"5635",0,1,906,1,6,2,"139cce8",55,1
"5735",0,1,1196,5,1,2,"139cce8",56,1
"5835",0,1,643,1,4,2,"139cce8",57,1
"5935",1,1,408,2,2,2,"139cce8",58,1
"6035",1,1,384,1,1,2,"139cce8",59,1
"6149",0,1,723,1,3,2,"139cce8",60,1
"6237",1,1,451,3,3,2,"139cce8",61,1
"6335",1,1,635,6,6,2,"139cce8",62,1
"6435",1,1,481,4,4,2,"139cce8",63,1
"6535",1,1,298,5,5,2,"139cce8",64,1
"6635",0,1,765,2,1,2,"139cce8",65,1
"6735",0,1,1463,6,1,2,"139cce8",66,1
"6835",0,1,941,1,2,2,"139cce8",67,1
"6935",-1,-1,0,5,5,2,"139cce8",68,1
"7035",1,1,447,4,4,2,"139cce8",69,1
"7140",1,1,376,3,3,2,"139cce8",70,1
"7236",0,1,290,3,1,2,"139cce8",71,1
"7335",1,1,456,2,2,2,"139cce8",72,1
"7435",0,1,1118,6,1,2,"139cce8",73,1
"7535",1,1,312,1,1,2,"139cce8",74,1
"7635",0,1,1076,5,1,2,"139cce8",75,1
"7735",1,1,489,6,6,2,"139cce8",76,1
"7835",1,0,1709,4,1,2,"139cce8",77,1
"2150",0,1,1448,1,6,2,"1273cfc",1,1
"3150",1,1,321,5,5,2,"1273cfc",2,1
"4150",1,1,304,1,1,2,"1273cfc",3,1
"5150",1,1,510,3,3,2,"1273cfc",4,1
"6150",1,0,386,5,1,2,"1273cfc",5,1
"7141",1,0,508,1,3,2,"1273cfc",6,1
"836",1,1,524,4,4,2,"1273cfc",7,1
"936",-1,-1,0,6,6,2,"1273cfc",8,1
"1036",-1,-1,0,2,1,2,"1273cfc",9,1
"1136",0,0,367,2,2,2,"1273cfc",10,1
"1236",1,0,427,1,4,2,"1273cfc",11,1
"1336",1,0,352,1,2,2,"1273cfc",12,1
"1436",1,1,336,2,2,2,"1273cfc",13,1
"1536",0,1,633,1,6,2,"1273cfc",14,1
"1636",1,1,307,3,3,2,"1273cfc",15,1
"1736",1,1,289,5,5,2,"1273cfc",16,1
"1836",1,1,414,6,6,2,"1273cfc",17,1
"1936",0,0,575,4,4,2,"1273cfc",18,1
"2036",0,1,658,5,1,2,"1273cfc",19,1
"2151",1,1,257,1,1,2,"1273cfc",20,1
"2238",1,0,754,1,3,2,"1273cfc",21,1
"2336",0,1,476,4,1,2,"1273cfc",22,1
"2436",1,1,351,3,3,2,"1273cfc",23,1
"2536",1,1,554,2,2,2,"1273cfc",24,1
"2636",1,1,322,4,4,2,"1273cfc",25,1
"2736",0,1,400,1,4,2,"1273cfc",26,1
"2836",1,0,178,1,2,2,"1273cfc",27,1
"2936",1,1,294,5,5,2,"1273cfc",28,1
"3036",1,1,336,6,6,2,"1273cfc",29,1
"3151",0,1,398,1,6,2,"1273cfc",30,1
"3238",0,1,493,3,1,2,"1273cfc",31,1
"3336",0,1,368,5,1,2,"1273cfc",32,1
"3436",1,1,492,1,1,2,"1273cfc",33,1
"3536",1,1,979,6,6,2,"1273cfc",34,1
"3636",1,0,1164,2,1,2,"1273cfc",35,1
"3736",1,1,1072,3,3,2,"1273cfc",36,1
"3836",0,1,1323,1,5,2,"1273cfc",37,1
"3936",1,1,314,5,5,2,"1273cfc",38,1
"4036",0,1,462,3,1,2,"1273cfc",39,1
"4151",1,1,543,2,2,2,"1273cfc",40,1
"4238",0,1,836,1,4,2,"1273cfc",41,1
"4336",1,1,729,4,4,2,"1273cfc",42,1
"4436",1,1,573,1,1,2,"1273cfc",43,1
"4536",0,1,444,6,1,2,"1273cfc",44,1
"4636",1,0,320,1,2,2,"1273cfc",45,1
"4736",0,1,790,4,1,2,"1273cfc",46,1
"4836",1,1,1429,4,4,2,"1273cfc",47,1
"4936",0,1,1072,6,1,2,"1273cfc",48,1
