"","keys","accuracy","rt","Fimg","Simg","feature_index","subID","trialNum","run"
"2",0,1,1891,1,4,3,"edd2cf1",1,1
"3",1,1,271,6,6,3,"edd2cf1",2,1
"4",1,1,447,4,4,3,"edd2cf1",3,1
"5",0,1,1607,2,1,3,"edd2cf1",4,1
"6",0,1,283,1,6,3,"edd2cf1",5,1
"7",1,1,382,1,1,3,"edd2cf1",6,1
"8",1,1,232,5,5,3,"edd2cf1",7,1
"9",0,1,378,5,1,3,"edd2cf1",8,1
"10",0,0,325,3,3,3,"edd2cf1",9,1
"11",1,1,217,2,2,3,"edd2cf1",10,1
"12",0,1,145,3,1,3,"edd2cf1",11,1
"13",1,1,84,1,1,3,"edd2cf1",12,1
"14",1,1,1080,2,2,3,"edd2cf1",13,1
"15",0,1,344,1,6,3,"edd2cf1",14,1
"16",1,1,245,4,4,3,"edd2cf1",15,1
"17",0,1,361,5,1,3,"edd2cf1",16,1
"18",1,0,1828,4,1,3,"edd2cf1",17,1
"19",1,1,303,6,6,3,"edd2cf1",18,1
"20",1,0,111,1,2,3,"edd2cf1",19,1
"21",0,1,1833,1,3,3,"edd2cf1",20,1
"22",1,1,107,3,3,3,"edd2cf1",21,1
"23",1,1,116,5,5,3,"edd2cf1",22,1
"24",1,1,1739,3,3,3,"edd2cf1",23,1
"25",1,1,246,2,2,3,"edd2cf1",24,1
"26",1,1,151,6,6,3,"edd2cf1",25,1
"27",1,1,186,1,1,3,"edd2cf1",26,1
"28",0,1,267,1,6,3,"edd2cf1",27,1
"29",0,1,1549,3,1,3,"edd2cf1",28,1
"30",1,1,53,5,5,3,"edd2cf1",29,1
"31",0,1,204,4,1,3,"edd2cf1",30,1
"32",0,1,259,1,5,3,"edd2cf1",31,1
"33",1,0,1531,2,1,3,"edd2cf1",32,1
"34",0,0,141,4,4,3,"edd2cf1",33,1
"35",0,1,1527,1,2,3,"edd2cf1",34,1
"36",0,1,1992,3,1,3,"edd2cf1",35,1
"37",1,1,26,2,2,3,"edd2cf1",36,1
"38",0,1,244,5,1,3,"edd2cf1",37,1
"39",1,1,308,1,1,3,"edd2cf1",38,1
"40",1,1,247,5,5,3,"edd2cf1",39,1
"41",0,1,95,6,1,3,"edd2cf1",40,1
"42",1,0,402,1,4,3,"edd2cf1",41,1
"43",1,1,1932,3,3,3,"edd2cf1",42,1
"44",1,1,1894,4,4,3,"edd2cf1",43,1
"45",1,1,63,6,6,3,"edd2cf1",44,1
"46",0,1,168,6,1,3,"edd2cf1",45,1
"47",1,0,91,1,3,3,"edd2cf1",46,1
"48",0,0,1399,2,2,3,"edd2cf1",47,1
"49",1,1,1754,3,3,3,"edd2cf1",48,1
"50",1,1,227,1,1,3,"edd2cf1",49,1
"51",0,1,268,1,2,3,"edd2cf1",50,1
"52",1,1,196,6,6,3,"edd2cf1",51,1
"53",0,1,1413,1,4,3,"edd2cf1",52,1
"54",1,1,433,4,4,3,"edd2cf1",53,1
"55",1,1,1874,5,5,3,"edd2cf1",54,1
"56",0,1,261,1,5,3,"edd2cf1",55,1
"57",0,1,1495,1,3,3,"edd2cf1",56,1
"58",1,1,176,6,6,3,"edd2cf1",57,1
"59",1,1,60,2,2,3,"edd2cf1",58,1
"60",1,0,197,2,1,3,"edd2cf1",59,1
"61",1,1,14,5,5,3,"edd2cf1",60,1
"62",0,0,574,4,4,3,"edd2cf1",61,1
"63",0,1,251,4,1,3,"edd2cf1",62,1
"64",1,1,143,3,3,3,"edd2cf1",63,1
"65",0,1,440,6,1,3,"edd2cf1",64,1
"66",1,1,584,1,1,3,"edd2cf1",65,1
"67",0,1,482,5,1,3,"edd2cf1",66,1
"68",1,1,71,6,6,3,"edd2cf1",67,1
"69",0,0,409,2,2,3,"edd2cf1",68,1
"70",0,1,212,6,1,3,"edd2cf1",69,1
"71",0,1,463,1,4,3,"edd2cf1",70,1
"72",1,1,353,1,1,3,"edd2cf1",71,1
"73",1,0,241,3,1,3,"edd2cf1",72,1
"74",0,1,260,1,5,3,"edd2cf1",73,1
"75",1,1,96,4,4,3,"edd2cf1",74,1
"76",1,0,31,1,2,3,"edd2cf1",75,1
"77",1,1,464,3,3,3,"edd2cf1",76,1
"78",1,1,1473,5,5,3,"edd2cf1",77,1
"210",0,1,486,1,2,1,"14fa68e",1,1
"310",0,1,794,1,4,1,"14fa68e",2,1
"410",1,1,1997,4,4,1,"14fa68e",3,1
"510",0,1,1609,1,5,1,"14fa68e",4,1
"610",1,1,1274,1,1,1,"14fa68e",5,1
"79",1,1,1030,5,5,1,"14fa68e",6,1
"81",1,1,921,3,3,1,"14fa68e",7,1
"91",0,1,1002,6,1,1,"14fa68e",8,1
"101",1,1,1993,6,6,1,"14fa68e",9,1
"111",0,1,1981,1,3,1,"14fa68e",10,1
"121",1,1,1091,2,2,1,"14fa68e",11,1
"131",1,0,854,2,1,1,"14fa68e",12,1
"141",0,1,620,3,1,1,"14fa68e",13,1
"151",1,1,675,2,2,1,"14fa68e",14,1
"161",0,1,1658,1,5,1,"14fa68e",15,1
"171",0,1,1773,6,1,1,"14fa68e",16,1
"181",1,1,923,5,5,1,"14fa68e",17,1
"191",1,1,994,1,1,1,"14fa68e",18,1
"201",0,1,553,4,1,1,"14fa68e",19,1
"211",1,1,454,4,4,1,"14fa68e",20,1
"221",1,1,900,6,6,1,"14fa68e",21,1
"231",1,1,936,3,3,1,"14fa68e",22,1
"241",1,1,993,6,6,1,"14fa68e",23,1
"251",0,1,699,1,3,1,"14fa68e",24,1
"261",1,1,2002,4,4,1,"14fa68e",25,1
"271",1,1,1998,1,1,1,"14fa68e",26,1
"281",0,1,1530,1,5,1,"14fa68e",27,1
"291",0,1,2000,4,1,1,"14fa68e",28,1
"301",1,1,1307,5,5,1,"14fa68e",29,1
"311",0,1,590,2,1,1,"14fa68e",30,1
"321",0,0,597,2,2,1,"14fa68e",31,1
"331",0,1,1940,6,1,1,"14fa68e",32,1
"341",1,1,1078,3,3,1,"14fa68e",33,1
"351",0,1,1984,1,6,1,"14fa68e",34,1
"361",1,1,436,2,2,1,"14fa68e",35,1
"371",1,0,594,2,1,1,"14fa68e",36,1
"381",0,1,1519,5,1,1,"14fa68e",37,1
"391",0,1,1153,1,4,1,"14fa68e",38,1
"401",1,1,521,1,1,1,"14fa68e",39,1
"411",0,1,1975,1,3,1,"14fa68e",40,1
"421",1,1,1571,6,6,1,"14fa68e",41,1
"431",0,0,784,3,3,1,"14fa68e",42,1
"441",-1,0,699,5,5,1,"14fa68e",43,1
"451",1,1,361,4,4,1,"14fa68e",44,1
"461",0,1,1592,1,6,1,"14fa68e",45,1
"471",0,0,505,3,3,1,"14fa68e",46,1
"481",1,1,555,6,6,1,"14fa68e",47,1
"491",1,1,755,2,2,1,"14fa68e",48,1
"501",0,1,1268,1,4,1,"14fa68e",49,1
"511",1,1,1089,1,1,1,"14fa68e",50,1
"521",1,0,1080,2,1,1,"14fa68e",51,1
"531",1,1,453,4,4,1,"14fa68e",52,1
"541",0,1,1102,5,1,1,"14fa68e",53,1
"551",1,1,1384,5,5,1,"14fa68e",54,1
"561",0,1,756,3,1,1,"14fa68e",55,1
"571",0,1,1033,5,1,1,"14fa68e",56,1
"581",1,1,457,3,3,1,"14fa68e",57,1
"591",1,1,1981,6,6,1,"14fa68e",58,1
"601",0,1,857,1,6,1,"14fa68e",59,1
"611",0,1,1997,4,1,1,"14fa68e",60,1
"621",0,1,1242,1,2,1,"14fa68e",61,1
"631",0,1,1321,1,3,1,"14fa68e",62,1
"641",1,1,1999,4,4,1,"14fa68e",63,1
"651",1,1,769,1,1,1,"14fa68e",64,1
"661",1,1,929,5,5,1,"14fa68e",65,1
"671",1,1,542,2,2,1,"14fa68e",66,1
"681",0,1,1934,1,3,1,"14fa68e",67,1
"691",0,1,1776,1,4,1,"14fa68e",68,1
"701",1,1,512,5,5,1,"14fa68e",69,1
"711",0,1,1974,5,1,1,"14fa68e",70,1
"721",1,1,1162,1,1,1,"14fa68e",71,1
"731",1,1,870,3,3,1,"14fa68e",72,1
"741",1,0,431,1,2,1,"14fa68e",73,1
"751",1,1,552,4,4,1,"14fa68e",74,1
"761",1,1,592,2,2,1,"14fa68e",75,1
"771",0,1,463,1,6,1,"14fa68e",76,1
"781",1,1,1216,6,6,1,"14fa68e",77,1
"212",0,1,244,1,2,2,"1d6393b",1,1
"312",1,1,271,1,1,2,"1d6393b",2,1
"412",1,1,263,4,4,2,"1d6393b",3,1
"512",1,1,245,2,2,2,"1d6393b",4,1
"612",0,1,302,4,1,2,"1d6393b",5,1
"710",1,1,336,6,6,2,"1d6393b",6,1
"82",0,1,295,6,1,2,"1d6393b",7,1
"92",0,1,450,3,1,2,"1d6393b",8,1
"102",0,1,314,1,5,2,"1d6393b",9,1
"112",1,1,262,5,5,2,"1d6393b",10,1
"122",1,1,341,3,3,2,"1d6393b",11,1
"132",1,1,273,4,4,2,"1d6393b",12,1
"142",0,1,259,1,3,2,"1d6393b",13,1
"152",1,1,272,5,5,2,"1d6393b",14,1
"162",0,1,377,1,6,2,"1d6393b",15,1
"172",1,1,305,3,3,2,"1d6393b",16,1
"182",1,1,324,6,6,2,"1d6393b",17,1
"192",0,1,294,5,1,2,"1d6393b",18,1
"202",1,1,383,2,2,2,"1d6393b",19,1
"213",1,0,373,2,1,2,"1d6393b",20,1
"222",1,1,257,1,1,2,"1d6393b",21,1
"232",0,1,320,1,4,2,"1d6393b",22,1
"242",0,1,352,1,3,2,"1d6393b",23,1
"252",1,1,327,1,1,2,"1d6393b",24,1
"262",0,1,344,5,1,2,"1d6393b",25,1
"272",0,1,399,6,1,2,"1d6393b",26,1
"282",0,1,304,1,4,2,"1d6393b",27,1
"292",1,1,296,5,5,2,"1d6393b",28,1
"302",1,1,265,4,4,2,"1d6393b",29,1
"313",0,1,328,2,1,2,"1d6393b",30,1
"322",1,1,301,6,6,2,"1d6393b",31,1
"332",1,1,269,3,3,2,"1d6393b",32,1
"342",1,1,326,2,2,2,"1d6393b",33,1
"352",1,1,349,5,5,2,"1d6393b",34,1
"362",0,1,321,2,1,2,"1d6393b",35,1
"372",1,1,374,1,1,2,"1d6393b",36,1
"382",0,1,343,4,1,2,"1d6393b",37,1
"392",0,1,325,1,5,2,"1d6393b",38,1
"402",0,1,324,1,3,2,"1d6393b",39,1
"413",1,1,301,4,4,2,"1d6393b",40,1
"422",0,1,323,1,6,2,"1d6393b",41,1
"432",1,1,321,6,6,2,"1d6393b",42,1
"442",1,1,283,3,3,2,"1d6393b",43,1
"452",1,1,304,2,2,2,"1d6393b",44,1
"462",1,1,400,3,3,2,"1d6393b",45,1
"472",1,1,341,6,6,2,"1d6393b",46,1
"482",0,1,518,4,1,2,"1d6393b",47,1
"492",1,1,693,4,4,2,"1d6393b",48,1
"502",1,1,302,5,5,2,"1d6393b",49,1
"513",0,1,226,2,1,2,"1d6393b",50,1
"522",0,1,681,1,6,2,"1d6393b",51,1
"532",1,1,313,2,2,2,"1d6393b",52,1
"542",1,1,314,1,1,2,"1d6393b",53,1
"552",0,1,290,1,3,2,"1d6393b",54,1
"562",0,1,283,1,5,2,"1d6393b",55,1
"572",1,1,312,6,6,2,"1d6393b",56,1
"582",1,1,256,4,4,2,"1d6393b",57,1
"592",0,1,372,1,5,2,"1d6393b",58,1
"602",1,1,319,3,3,2,"1d6393b",59,1
"613",0,1,275,1,6,2,"1d6393b",60,1
"622",1,1,330,5,5,2,"1d6393b",61,1
"632",1,1,256,1,1,2,"1d6393b",62,1
"642",1,1,289,2,2,2,"1d6393b",63,1
"652",0,1,311,3,1,2,"1d6393b",64,1
"662",0,1,369,2,1,2,"1d6393b",65,1
"672",0,1,294,1,4,2,"1d6393b",66,1
"682",0,1,325,4,1,2,"1d6393b",67,1
"692",1,1,388,1,1,2,"1d6393b",68,1
"702",1,1,324,2,2,2,"1d6393b",69,1
"712",1,1,280,5,5,2,"1d6393b",70,1
"722",1,1,335,3,3,2,"1d6393b",71,1
"732",1,1,275,6,6,2,"1d6393b",72,1
"742",0,1,394,2,1,2,"1d6393b",73,1
"752",0,1,296,1,5,2,"1d6393b",74,1
"762",0,1,367,1,6,2,"1d6393b",75,1
"772",1,1,429,4,4,2,"1d6393b",76,1
"782",0,1,342,3,1,2,"1d6393b",77,1
"214",1,1,369,2,2,3,"1f75812",1,1
"314",0,1,365,1,6,3,"1f75812",2,1
"414",1,1,251,1,1,3,"1f75812",3,1
"514",0,1,232,4,1,3,"1f75812",4,1
"614",1,1,256,4,4,3,"1f75812",5,1
"713",1,1,163,5,5,3,"1f75812",6,1
"83",0,1,344,1,2,3,"1f75812",7,1
"93",0,1,233,1,3,3,"1f75812",8,1
"103",0,1,250,1,5,3,"1f75812",9,1
"113",1,1,494,6,6,3,"1f75812",10,1
"123",1,1,261,3,3,3,"1f75812",11,1
"133",0,1,234,1,5,3,"1f75812",12,1
"143",1,1,253,2,2,3,"1f75812",13,1
"153",0,1,233,6,1,3,"1f75812",14,1
"163",0,1,244,2,1,3,"1f75812",15,1
"173",1,1,350,3,3,3,"1f75812",16,1
"183",1,1,220,6,6,3,"1f75812",17,1
"193",0,1,202,3,1,3,"1f75812",18,1
"203",1,1,232,5,5,3,"1f75812",19,1
"215",1,1,232,1,1,3,"1f75812",20,1
"223",1,1,385,4,4,3,"1f75812",21,1
"233",0,1,217,4,1,3,"1f75812",22,1
"243",0,1,252,1,6,3,"1f75812",23,1
"253",0,1,264,1,2,3,"1f75812",24,1
"263",0,1,225,1,3,3,"1f75812",25,1
"273",0,1,482,5,1,3,"1f75812",26,1
"283",1,1,244,1,1,3,"1f75812",27,1
"293",0,1,251,4,1,3,"1f75812",28,1
"303",1,1,159,4,4,3,"1f75812",29,1
"315",1,1,192,6,6,3,"1f75812",30,1
"323",1,1,202,2,2,3,"1f75812",31,1
"333",1,1,291,3,3,3,"1f75812",32,1
"343",1,1,260,5,5,3,"1f75812",33,1
"353",0,1,209,3,1,3,"1f75812",34,1
"363",0,1,221,4,1,3,"1f75812",35,1
"373",1,1,235,3,3,3,"1f75812",36,1
"383",1,1,356,2,2,3,"1f75812",37,1
"393",0,1,228,1,6,3,"1f75812",38,1
"403",0,1,157,5,1,3,"1f75812",39,1
"415",1,1,177,6,6,3,"1f75812",40,1
"423",1,1,237,1,1,3,"1f75812",41,1
"433",1,1,291,5,5,3,"1f75812",42,1
"443",1,1,218,4,4,3,"1f75812",43,1
"453",1,0,935,1,2,3,"1f75812",44,1
"463",1,1,277,6,6,3,"1f75812",45,1
"473",1,1,222,4,4,3,"1f75812",46,1
"483",0,1,196,3,1,3,"1f75812",47,1
"493",1,1,261,3,3,3,"1f75812",48,1
"503",0,1,250,1,2,3,"1f75812",49,1
"515",1,1,222,2,2,3,"1f75812",50,1
"523",0,1,177,1,5,3,"1f75812",51,1
"533",1,1,227,5,5,3,"1f75812",52,1
"543",1,1,271,1,1,3,"1f75812",53,1
"553",0,1,232,1,6,3,"1f75812",54,1
"563",0,1,238,4,1,3,"1f75812",55,1
"573",0,1,240,5,1,3,"1f75812",56,1
"583",0,1,273,1,2,3,"1f75812",57,1
"593",1,1,228,2,2,3,"1f75812",58,1
"603",0,1,259,1,6,3,"1f75812",59,1
"615",1,1,379,5,5,3,"1f75812",60,1
"623",1,1,713,3,3,3,"1f75812",61,1
"633",0,1,249,1,3,3,"1f75812",62,1
"643",1,1,263,4,4,3,"1f75812",63,1
"653",1,1,254,6,6,3,"1f75812",64,1
"663",1,1,346,1,1,3,"1f75812",65,1
"673",0,1,354,1,4,3,"1f75812",66,1
"683",1,1,313,4,4,3,"1f75812",67,1
"693",1,1,207,6,6,3,"1f75812",68,1
"703",0,1,264,6,1,3,"1f75812",69,1
"714",1,1,219,5,5,3,"1f75812",70,1
"723",0,1,251,1,3,3,"1f75812",71,1
"733",0,1,286,1,2,3,"1f75812",72,1
"743",0,1,252,1,4,3,"1f75812",73,1
"753",1,1,192,1,1,3,"1f75812",74,1
"763",1,1,100,2,2,3,"1f75812",75,1
"773",1,1,268,3,3,3,"1f75812",76,1
"783",0,1,255,5,1,3,"1f75812",77,1
"216",1,1,608,6,6,1,"1c06873",1,1
"316",1,1,554,5,5,1,"1c06873",2,1
"416",0,1,414,5,1,1,"1c06873",3,1
"516",1,1,669,4,4,1,"1c06873",4,1
"616",1,1,387,1,1,1,"1c06873",5,1
"715",0,1,720,2,1,1,"1c06873",6,1
"84",0,1,937,1,3,1,"1c06873",7,1
"94",1,1,442,3,3,1,"1c06873",8,1
"104",1,1,707,2,2,1,"1c06873",9,1
"114",0,1,31,1,6,1,"1c06873",10,1
"124",0,1,499,1,4,1,"1c06873",11,1
"134",1,1,725,3,3,1,"1c06873",12,1
"144",0,1,426,1,3,1,"1c06873",13,1
"154",1,1,20,4,4,1,"1c06873",14,1
"164",0,1,399,4,1,1,"1c06873",15,1
"174",0,1,592,1,2,1,"1c06873",16,1
"184",1,1,477,5,5,1,"1c06873",17,1
"194",0,1,715,5,1,1,"1c06873",18,1
"204",1,1,891,2,2,1,"1c06873",19,1
"217",1,1,387,6,6,1,"1c06873",20,1
"224",0,1,542,6,1,1,"1c06873",21,1
"234",1,1,430,1,1,1,"1c06873",22,1
"244",1,1,718,3,3,1,"1c06873",23,1
"254",0,1,437,6,1,1,"1c06873",24,1
"264",1,1,198,4,4,1,"1c06873",25,1
"274",1,1,350,2,2,1,"1c06873",26,1
"284",1,1,483,1,1,1,"1c06873",27,1
"294",0,1,443,1,5,1,"1c06873",28,1
"304",1,1,633,6,6,1,"1c06873",29,1
"317",0,1,402,2,1,1,"1c06873",30,1
"324",0,1,673,3,1,1,"1c06873",31,1
"334",1,1,240,5,5,1,"1c06873",32,1
"344",0,1,875,4,1,1,"1c06873",33,1
"354",0,1,1739,1,5,1,"1c06873",34,1
"364",1,1,448,1,1,1,"1c06873",35,1
"374",0,1,409,4,1,1,"1c06873",36,1
"384",1,1,546,3,3,1,"1c06873",37,1
"394",1,1,754,6,6,1,"1c06873",38,1
"404",1,1,1494,5,5,1,"1c06873",39,1
"417",0,1,139,1,6,1,"1c06873",40,1
"424",0,1,612,1,3,1,"1c06873",41,1
"434",1,1,394,4,4,1,"1c06873",42,1
"444",0,1,505,1,2,1,"1c06873",43,1
"454",1,1,695,2,2,1,"1c06873",44,1
"464",1,1,424,5,5,1,"1c06873",45,1
"474",1,1,1252,1,1,1,"1c06873",46,1
"484",1,1,439,3,3,1,"1c06873",47,1
"494",0,1,530,3,1,1,"1c06873",48,1
"504",0,1,187,1,4,1,"1c06873",49,1
"517",1,1,377,4,4,1,"1c06873",50,1
"524",0,1,373,6,1,1,"1c06873",51,1
"534",1,1,672,2,2,1,"1c06873",52,1
"544",0,1,364,2,1,1,"1c06873",53,1
"554",1,1,519,6,6,1,"1c06873",54,1
"564",0,1,370,1,5,1,"1c06873",55,1
"574",0,1,427,1,3,1,"1c06873",56,1
"584",0,1,595,1,5,1,"1c06873",57,1
"594",1,1,379,3,3,1,"1c06873",58,1
"604",1,1,497,1,1,1,"1c06873",59,1
"617",1,1,415,6,6,1,"1c06873",60,1
"624",0,1,376,1,2,1,"1c06873",61,1
"634",0,1,404,1,6,1,"1c06873",62,1
"644",0,1,385,1,4,1,"1c06873",63,1
"654",1,1,387,4,4,1,"1c06873",64,1
"664",1,1,525,2,2,1,"1c06873",65,1
"674",1,1,730,5,5,1,"1c06873",66,1
"684",1,1,352,1,1,1,"1c06873",67,1
"694",1,1,711,3,3,1,"1c06873",68,1
"704",1,1,310,2,2,1,"1c06873",69,1
"716",0,1,414,5,1,1,"1c06873",70,1
"724",0,1,522,1,3,1,"1c06873",71,1
"734",1,1,404,4,4,1,"1c06873",72,1
"744",1,1,478,6,6,1,"1c06873",73,1
"754",1,1,464,5,5,1,"1c06873",74,1
"764",0,1,393,4,1,1,"1c06873",75,1
"774",0,1,365,6,1,1,"1c06873",76,1
"784",0,1,481,1,2,1,"1c06873",77,1
"218",1,1,222,1,1,0,"11033a7",1,1
"318",0,1,194,1,6,0,"11033a7",2,1
"418",0,1,248,4,1,0,"11033a7",3,1
"518",1,1,106,3,3,0,"11033a7",4,1
"618",0,1,42,2,1,0,"11033a7",5,1
"717",1,1,162,6,6,0,"11033a7",6,1
"85",1,1,229,2,2,0,"11033a7",7,1
"95",0,1,591,1,5,0,"11033a7",8,1
"105",1,1,217,5,5,0,"11033a7",9,1
"115",1,1,163,4,4,0,"11033a7",10,1
"125",0,1,111,3,1,0,"11033a7",11,1
"135",0,1,283,4,1,0,"11033a7",12,1
"145",1,1,225,5,5,0,"11033a7",13,1
"155",1,1,132,2,2,0,"11033a7",14,1
"165",0,1,257,1,3,0,"11033a7",15,1
"175",1,1,185,1,1,0,"11033a7",16,1
"185",0,1,298,5,1,0,"11033a7",17,1
"195",0,1,202,2,1,0,"11033a7",18,1
"205",0,1,241,1,6,0,"11033a7",19,1
"219",1,1,463,4,4,0,"11033a7",20,1
"225",1,1,197,6,6,0,"11033a7",21,1
"235",1,1,247,3,3,0,"11033a7",22,1
"245",1,1,225,5,5,0,"11033a7",23,1
"255",1,1,264,6,6,0,"11033a7",24,1
"265",1,1,374,3,3,0,"11033a7",25,1
"275",1,1,131,2,2,0,"11033a7",26,1
"285",1,1,14,1,1,0,"11033a7",27,1
"295",0,1,330,6,1,0,"11033a7",28,1
"305",0,1,119,1,5,0,"11033a7",29,1
"319",0,1,432,3,1,0,"11033a7",30,1
"325",1,1,226,4,4,0,"11033a7",31,1
"335",0,1,142,4,1,0,"11033a7",32,1
"345",0,1,105,1,2,0,"11033a7",33,1
"355",1,0,119,2,1,0,"11033a7",34,1
"365",0,1,228,4,1,0,"11033a7",35,1
"375",1,1,331,4,4,0,"11033a7",36,1
"385",1,1,167,3,3,0,"11033a7",37,1
"395",0,1,192,1,3,0,"11033a7",38,1
"405",1,1,81,2,2,0,"11033a7",39,1
"419",0,1,271,6,1,0,"11033a7",40,1
"425",1,1,256,1,1,0,"11033a7",41,1
"435",0,0,66,6,6,0,"11033a7",42,1
"445",1,1,197,5,5,0,"11033a7",43,1
"455",0,1,165,1,5,0,"11033a7",44,1
"465",1,1,200,3,3,0,"11033a7",45,1
"475",1,1,27,1,1,0,"11033a7",46,1
"485",1,1,238,6,6,0,"11033a7",47,1
"495",0,1,89,6,1,0,"11033a7",48,1
"505",0,1,168,2,1,0,"11033a7",49,1
"519",1,1,324,2,2,0,"11033a7",50,1
"525",0,1,173,4,1,0,"11033a7",51,1
"535",1,1,105,4,4,0,"11033a7",52,1
"545",0,1,454,5,1,0,"11033a7",53,1
"555",0,1,167,1,3,0,"11033a7",54,1
"565",1,1,201,5,5,0,"11033a7",55,1
"575",0,1,240,1,6,0,"11033a7",56,1
"585",1,1,201,1,1,0,"11033a7",57,1
"595",1,1,506,3,3,0,"11033a7",58,1
"605",0,1,485,3,1,0,"11033a7",59,1
"619",1,1,206,6,6,0,"11033a7",60,1
"625",1,0,219,1,2,0,"11033a7",61,1
"635",1,1,284,5,5,0,"11033a7",62,1
"645",1,1,217,2,2,0,"11033a7",63,1
"655",0,1,365,1,4,0,"11033a7",64,1
"665",1,1,348,4,4,0,"11033a7",65,1
"675",0,1,168,1,5,0,"11033a7",66,1
"685",1,1,173,3,3,0,"11033a7",67,1
"695",0,1,183,3,1,0,"11033a7",68,1
"705",1,1,610,2,2,0,"11033a7",69,1
"718",1,1,151,1,1,0,"11033a7",70,1
"725",1,1,205,4,4,0,"11033a7",71,1
"735",0,1,148,1,2,0,"11033a7",72,1
"745",1,1,70,6,6,0,"11033a7",73,1
"755",1,1,498,5,5,0,"11033a7",74,1
"765",0,1,301,4,1,0,"11033a7",75,1
"775",0,1,227,6,1,0,"11033a7",76,1
"785",0,1,241,5,1,0,"11033a7",77,1
"220",0,0,452,3,3,3,"1408e1b",1,1
"320",1,1,396,6,6,3,"1408e1b",2,1
"420",1,0,960,2,1,3,"1408e1b",3,1
"520",0,0,350,2,2,3,"1408e1b",4,1
"620",1,1,348,1,1,3,"1408e1b",5,1
"719",1,1,326,5,5,3,"1408e1b",6,1
"86",0,1,1232,1,5,3,"1408e1b",7,1
"96",1,1,482,4,4,3,"1408e1b",8,1
"106",0,1,334,3,1,3,"1408e1b",9,1
"116",0,1,334,1,4,3,"1408e1b",10,1
"126",0,1,327,1,6,3,"1408e1b",11,1
"136",1,1,322,4,4,3,"1408e1b",12,1
"146",0,1,357,1,3,3,"1408e1b",13,1
"156",1,1,367,1,1,3,"1408e1b",14,1
"166",1,1,389,2,2,3,"1408e1b",15,1
"176",0,1,339,1,5,3,"1408e1b",16,1
"186",0,1,408,1,4,3,"1408e1b",17,1
"196",1,1,430,5,5,3,"1408e1b",18,1
"206",1,1,359,3,3,3,"1408e1b",19,1
"2110",0,1,300,1,2,3,"1408e1b",20,1
"226",1,1,370,6,6,3,"1408e1b",21,1
"236",0,1,319,6,1,3,"1408e1b",22,1
"246",0,1,332,1,6,3,"1408e1b",23,1
"256",1,1,375,1,1,3,"1408e1b",24,1
"266",1,1,314,2,2,3,"1408e1b",25,1
"276",1,1,396,6,6,3,"1408e1b",26,1
"286",0,1,273,2,1,3,"1408e1b",27,1
"296",0,1,424,3,1,3,"1408e1b",28,1
"306",1,1,453,5,5,3,"1408e1b",29,1
"3110",1,1,362,4,4,3,"1408e1b",30,1
"326",0,1,369,1,5,3,"1408e1b",31,1
"336",1,1,948,3,3,3,"1408e1b",32,1
"346",0,1,560,4,1,3,"1408e1b",33,1
"356",1,0,325,2,1,3,"1408e1b",34,1
"366",1,1,329,2,2,3,"1408e1b",35,1
"376",1,1,403,1,1,3,"1408e1b",36,1
"386",1,1,573,5,5,3,"1408e1b",37,1
"396",1,0,316,1,4,3,"1408e1b",38,1
"406",0,1,327,1,3,3,"1408e1b",39,1
"4110",0,1,320,5,1,3,"1408e1b",40,1
"426",1,1,360,3,3,3,"1408e1b",41,1
"436",0,1,362,1,6,3,"1408e1b",42,1
"446",1,1,2142,4,4,3,"1408e1b",43,1
"456",1,1,649,6,6,3,"1408e1b",44,1
"466",0,1,566,1,3,3,"1408e1b",45,1
"476",1,1,322,2,2,3,"1408e1b",46,1
"486",0,1,367,5,1,3,"1408e1b",47,1
"496",0,1,308,1,4,3,"1408e1b",48,1
"506",1,1,336,5,5,3,"1408e1b",49,1
"5110",1,1,297,4,4,3,"1408e1b",50,1
"526",1,1,315,6,6,3,"1408e1b",51,1
"536",0,1,350,6,1,3,"1408e1b",52,1
"546",1,1,514,3,3,3,"1408e1b",53,1
"556",1,0,504,1,2,3,"1408e1b",54,1
"566",1,1,267,1,1,3,"1408e1b",55,1
"576",0,1,319,3,1,3,"1408e1b",56,1
"586",1,1,308,5,5,3,"1408e1b",57,1
"596",0,1,277,5,1,3,"1408e1b",58,1
"606",0,1,306,1,2,3,"1408e1b",59,1
"6110",1,1,345,6,6,3,"1408e1b",60,1
"626",1,1,330,2,2,3,"1408e1b",61,1
"636",1,1,412,3,3,3,"1408e1b",62,1
"646",0,1,361,4,1,3,"1408e1b",63,1
"656",1,1,339,4,4,3,"1408e1b",64,1
"666",0,1,336,1,6,3,"1408e1b",65,1
"676",1,1,391,1,1,3,"1408e1b",66,1
"686",1,1,640,2,2,3,"1408e1b",67,1
"696",1,1,327,1,1,3,"1408e1b",68,1
"706",0,1,324,2,1,3,"1408e1b",69,1
"7110",1,1,802,5,5,3,"1408e1b",70,1
"726",0,1,345,1,5,3,"1408e1b",71,1
"736",1,1,348,6,6,3,"1408e1b",72,1
"746",1,1,335,4,4,3,"1408e1b",73,1
"756",0,1,362,6,1,3,"1408e1b",74,1
"766",0,1,308,1,4,3,"1408e1b",75,1
"776",0,1,316,1,3,3,"1408e1b",76,1
"786",1,1,315,3,3,3,"1408e1b",77,1
"227",1,1,579,4,4,2,"1c744db",1,1
"327",0,1,788,1,3,2,"1c744db",2,1
"427",0,1,409,1,6,2,"1c744db",3,1
"527",1,1,354,2,2,2,"1c744db",4,1
"627",1,1,504,1,1,2,"1c744db",5,1
"720",1,0,410,2,1,2,"1c744db",6,1
"87",1,1,339,3,3,2,"1c744db",7,1
"97",1,1,371,6,6,2,"1c744db",8,1
"107",0,1,492,5,1,2,"1c744db",9,1
"117",0,1,360,4,1,2,"1c744db",10,1
"127",1,1,431,5,5,2,"1c744db",11,1
"137",1,1,291,6,6,2,"1c744db",12,1
"147",1,1,392,5,5,2,"1c744db",13,1
"157",0,1,316,1,2,2,"1c744db",14,1
"167",0,1,775,4,1,2,"1c744db",15,1
"177",0,1,508,1,5,2,"1c744db",16,1
"187",1,1,339,2,2,2,"1c744db",17,1
"197",0,1,372,6,1,2,"1c744db",18,1
"207",0,1,1014,3,1,2,"1c744db",19,1
"2111",1,1,410,4,4,2,"1c744db",20,1
"228",1,1,365,3,3,2,"1c744db",21,1
"237",1,1,760,1,1,2,"1c744db",22,1
"247",1,1,993,6,6,2,"1c744db",23,1
"257",0,1,1101,1,2,2,"1c744db",24,1
"267",0,1,395,4,1,2,"1c744db",25,1
"277",0,0,480,3,3,2,"1c744db",26,1
"287",0,1,246,1,3,2,"1c744db",27,1
"297",0,0,349,1,1,2,"1c744db",28,1
"307",1,1,316,2,2,2,"1c744db",29,1
"3111",1,1,729,4,4,2,"1c744db",30,1
"328",1,1,614,5,5,2,"1c744db",31,1
"337",0,1,357,6,1,2,"1c744db",32,1
"347",0,1,390,1,5,2,"1c744db",33,1
"357",-1,0,792,2,2,2,"1c744db",34,1
"367",1,1,740,3,3,2,"1c744db",35,1
"377",0,1,333,1,4,2,"1c744db",36,1
"387",1,0,291,1,3,2,"1c744db",37,1
"397",1,1,448,1,1,2,"1c744db",38,1
"407",1,1,1243,4,4,2,"1c744db",39,1
"4111",0,1,277,1,5,2,"1c744db",40,1
"428",0,1,315,2,1,2,"1c744db",41,1
"437",1,1,334,5,5,2,"1c744db",42,1
"447",0,1,375,1,6,2,"1c744db",43,1
"457",1,1,263,6,6,2,"1c744db",44,1
"467",1,0,473,1,2,2,"1c744db",45,1
"477",1,1,243,6,6,2,"1c744db",46,1
"487",-1,-1,0,2,2,2,"1c744db",47,1
"497",1,1,535,5,5,2,"1c744db",48,1
"507",0,1,1155,5,1,2,"1c744db",49,1
"5111",0,1,293,1,4,2,"1c744db",50,1
"528",0,0,793,3,3,2,"1c744db",51,1
"537",0,1,1558,6,1,2,"1c744db",52,1
"547",0,1,393,3,1,2,"1c744db",53,1
"557",0,0,336,4,4,2,"1c744db",54,1
"567",0,0,1744,1,1,2,"1c744db",55,1
"577",0,0,340,6,6,2,"1c744db",56,1
"587",0,1,380,3,1,2,"1c744db",57,1
"597",0,0,357,5,5,2,"1c744db",58,1
"607",1,1,364,4,4,2,"1c744db",59,1
"6111",0,1,512,5,1,2,"1c744db",60,1
"628",1,1,268,2,2,2,"1c744db",61,1
"637",1,0,285,2,1,2,"1c744db",62,1
"647",0,1,359,1,4,2,"1c744db",63,1
"657",0,1,493,1,6,2,"1c744db",64,1
"667",0,0,944,3,3,2,"1c744db",65,1
"677",1,1,426,1,1,2,"1c744db",66,1
"687",1,1,341,6,6,2,"1c744db",67,1
"697",1,1,806,4,4,2,"1c744db",68,1
"707",0,1,643,3,1,2,"1c744db",69,1
"7111",0,1,329,1,5,2,"1c744db",70,1
"727",1,1,738,2,2,2,"1c744db",71,1
"737",0,1,736,4,1,2,"1c744db",72,1
"747",0,0,859,5,5,2,"1c744db",73,1
"757",0,0,1625,3,3,2,"1c744db",74,1
"767",0,1,501,6,1,2,"1c744db",75,1
"777",1,0,281,2,1,2,"1c744db",76,1
"787",0,0,1433,1,1,2,"1c744db",77,1
"229",1,1,502,1,1,2,"19982b6",1,1
"329",1,1,161,5,5,2,"19982b6",2,1
"429",0,1,243,1,6,2,"19982b6",3,1
"529",1,1,165,4,4,2,"19982b6",4,1
"629",0,1,88,2,1,2,"19982b6",5,1
"728",0,1,97,1,3,2,"19982b6",6,1
"88",0,1,58,1,5,2,"19982b6",7,1
"98",0,1,223,4,1,2,"19982b6",8,1
"108",1,1,68,2,2,2,"19982b6",9,1
"118",1,1,34,3,3,2,"19982b6",10,1
"128",1,1,130,6,6,2,"19982b6",11,1
"138",1,1,148,6,6,2,"19982b6",12,1
"148",0,1,149,1,6,2,"19982b6",13,1
"158",1,1,457,3,3,2,"19982b6",14,1
"168",0,1,37,2,1,2,"19982b6",15,1
"178",0,1,109,5,1,2,"19982b6",16,1
"188",1,1,115,2,2,2,"19982b6",17,1
"198",1,1,317,4,4,2,"19982b6",18,1
"208",0,1,172,1,4,2,"19982b6",19,1
"2112",1,1,67,5,5,2,"19982b6",20,1
"2210",1,1,401,1,1,2,"19982b6",21,1
"238",0,1,425,1,3,2,"19982b6",22,1
"248",1,1,243,2,2,2,"19982b6",23,1
"258",1,1,116,6,6,2,"19982b6",24,1
"268",0,1,31,3,1,2,"19982b6",25,1
"278",0,1,213,6,1,2,"19982b6",26,1
"288",0,1,9,1,5,2,"19982b6",27,1
"298",1,1,31,1,1,2,"19982b6",28,1
"308",0,1,446,4,1,2,"19982b6",29,1
"3112",1,1,78,3,3,2,"19982b6",30,1
"3210",0,0,382,5,5,2,"19982b6",31,1
"338",1,0,171,2,1,2,"19982b6",32,1
"348",1,1,3,4,4,2,"19982b6",33,1
"358",1,1,131,6,6,2,"19982b6",34,1
"368",0,1,123,1,5,2,"19982b6",35,1
"378",1,1,305,5,5,2,"19982b6",36,1
"388",1,1,68,4,4,2,"19982b6",37,1
"398",1,1,269,2,2,2,"19982b6",38,1
"408",0,1,225,6,1,2,"19982b6",39,1
"4112",1,1,55,1,1,2,"19982b6",40,1
"4210",0,1,112,1,2,2,"19982b6",41,1
"438",0,1,139,4,1,2,"19982b6",42,1
"448",0,1,121,3,1,2,"19982b6",43,1
"458",1,1,88,3,3,2,"19982b6",44,1
"468",0,1,114,1,6,2,"19982b6",45,1
"478",0,1,77,4,1,2,"19982b6",46,1
"488",1,1,107,1,1,2,"19982b6",47,1
"498",1,1,177,3,3,2,"19982b6",48,1
"508",1,1,481,4,4,2,"19982b6",49,1
"5112",0,1,179,3,1,2,"19982b6",50,1
"5210",1,1,308,2,2,2,"19982b6",51,1
"538",1,1,238,5,5,2,"19982b6",52,1
"548",0,1,99,1,2,2,"19982b6",53,1
"558",1,1,117,6,6,2,"19982b6",54,1
"568",0,1,88,5,1,2,"19982b6",55,1
"578",0,1,57,6,1,2,"19982b6",56,1
"588",1,1,333,4,4,2,"19982b6",57,1
"598",1,1,286,6,6,2,"19982b6",58,1
"608",1,1,131,3,3,2,"19982b6",59,1
"6112",1,1,445,1,1,2,"19982b6",60,1
"6210",1,0,58,1,2,2,"19982b6",61,1
"638",1,1,115,2,2,2,"19982b6",62,1
"648",0,1,244,1,4,2,"19982b6",63,1
"658",0,1,95,5,1,2,"19982b6",64,1
"668",1,1,97,5,5,2,"19982b6",65,1
"678",0,1,74,3,1,2,"19982b6",66,1
"688",1,1,430,3,3,2,"19982b6",67,1
"698",1,1,74,4,4,2,"19982b6",68,1
"708",1,1,84,2,2,2,"19982b6",69,1
"7112",0,1,53,6,1,2,"19982b6",70,1
"729",1,1,54,5,5,2,"19982b6",71,1
"738",0,1,49,1,4,2,"19982b6",72,1
"748",0,1,41,1,2,2,"19982b6",73,1
"758",1,1,480,6,6,2,"19982b6",74,1
"768",0,1,396,1,5,2,"19982b6",75,1
"778",0,1,106,1,3,2,"19982b6",76,1
"788",1,1,201,1,1,2,"19982b6",77,1
"230",1,1,314,3,3,1,"15ae44c",1,1
"330",1,1,341,2,2,1,"15ae44c",2,1
"430",0,1,281,4,1,1,"15ae44c",3,1
"530",0,1,268,5,1,1,"15ae44c",4,1
"630",0,1,352,1,2,1,"15ae44c",5,1
"730",1,1,226,1,1,1,"15ae44c",6,1
"89",1,1,279,4,4,1,"15ae44c",7,1
"99",1,1,258,5,5,1,"15ae44c",8,1
"109",0,1,235,3,1,1,"15ae44c",9,1
"119",0,1,260,6,1,1,"15ae44c",10,1
"129",1,1,378,6,6,1,"15ae44c",11,1
"139",0,1,265,4,1,1,"15ae44c",12,1
"149",1,1,210,4,4,1,"15ae44c",13,1
"159",1,1,860,3,3,1,"15ae44c",14,1
"169",0,1,287,1,3,1,"15ae44c",15,1
"179",1,1,217,5,5,1,"15ae44c",16,1
"189",1,1,92,1,1,1,"15ae44c",17,1
"199",1,0,243,2,1,1,"15ae44c",18,1
"209",1,1,504,2,2,1,"15ae44c",19,1
"2113",1,1,5,6,6,1,"15ae44c",20,1
"2211",0,1,267,1,5,1,"15ae44c",21,1
"239",0,1,224,1,6,1,"15ae44c",22,1
"249",0,1,350,5,1,1,"15ae44c",23,1
"259",1,1,346,5,5,1,"15ae44c",24,1
"269",1,1,198,3,3,1,"15ae44c",25,1
"279",0,1,246,1,2,1,"15ae44c",26,1
"289",0,1,209,3,1,1,"15ae44c",27,1
"299",1,1,275,1,1,1,"15ae44c",28,1
"309",1,1,207,4,4,1,"15ae44c",29,1
"3113",1,1,240,2,2,1,"15ae44c",30,1
"3211",0,1,231,1,6,1,"15ae44c",31,1
"339",0,1,278,4,1,1,"15ae44c",32,1
"349",1,1,227,6,6,1,"15ae44c",33,1
"359",1,1,261,5,5,1,"15ae44c",34,1
"369",1,1,325,6,6,1,"15ae44c",35,1
"379",1,1,232,2,2,1,"15ae44c",36,1
"389",0,1,209,3,1,1,"15ae44c",37,1
"399",1,1,322,3,3,1,"15ae44c",38,1
"409",0,1,333,1,2,1,"15ae44c",39,1
"4113",0,1,125,4,1,1,"15ae44c",40,1
"4211",0,1,404,1,5,1,"15ae44c",41,1
"439",1,1,215,4,4,1,"15ae44c",42,1
"449",0,1,221,1,6,1,"15ae44c",43,1
"459",1,1,432,1,1,1,"15ae44c",44,1
"469",1,1,168,1,1,1,"15ae44c",45,1
"479",0,1,175,1,6,1,"15ae44c",46,1
"489",1,0,224,2,1,1,"15ae44c",47,1
"499",0,1,203,1,3,1,"15ae44c",48,1
"509",0,1,67,1,4,1,"15ae44c",49,1
"5113",1,1,255,2,2,1,"15ae44c",50,1
"5211",0,1,146,5,1,1,"15ae44c",51,1
"539",1,1,278,5,5,1,"15ae44c",52,1
"549",1,1,216,6,6,1,"15ae44c",53,1
"559",1,1,105,3,3,1,"15ae44c",54,1
"569",1,1,214,4,4,1,"15ae44c",55,1
"579",0,1,254,1,6,1,"15ae44c",56,1
"589",1,1,262,3,3,1,"15ae44c",57,1
"599",0,1,94,1,5,1,"15ae44c",58,1
"609",1,1,350,6,6,1,"15ae44c",59,1
"6113",0,1,206,1,3,1,"15ae44c",60,1
"6211",1,1,256,5,5,1,"15ae44c",61,1
"639",0,1,346,1,4,1,"15ae44c",62,1
"649",1,1,242,2,2,1,"15ae44c",63,1
"659",1,1,225,1,1,1,"15ae44c",64,1
"669",1,1,348,4,4,1,"15ae44c",65,1
"679",0,1,492,1,2,1,"15ae44c",66,1
"689",0,1,248,4,1,1,"15ae44c",67,1
"699",1,1,248,3,3,1,"15ae44c",68,1
"709",0,1,248,2,1,1,"15ae44c",69,1
"7113",1,1,69,6,6,1,"15ae44c",70,1
"7210",0,1,257,1,6,1,"15ae44c",71,1
"739",1,1,290,2,2,1,"15ae44c",72,1
"749",1,1,255,5,5,1,"15ae44c",73,1
"759",0,1,228,1,5,1,"15ae44c",74,1
"769",0,1,415,1,3,1,"15ae44c",75,1
"779",1,1,326,1,1,1,"15ae44c",76,1
"789",1,1,265,4,4,1,"15ae44c",77,1
"240",1,1,373,6,6,0,"1624e57",1,1
"340",1,1,338,2,2,0,"1624e57",2,1
"440",0,1,292,6,1,0,"1624e57",3,1
"540",0,1,107,5,1,0,"1624e57",4,1
"640",1,1,294,3,3,0,"1624e57",5,1
"740",0,1,275,1,3,0,"1624e57",6,1
"810",1,1,163,1,1,0,"1624e57",7,1
"910",1,1,75,4,4,0,"1624e57",8,1
"1010",1,1,273,5,5,0,"1624e57",9,1
"1110",1,0,359,2,1,0,"1624e57",10,1
"1210",0,1,246,1,4,0,"1624e57",11,1
"1310",1,1,240,1,1,0,"1624e57",12,1
"1410",0,1,414,1,4,0,"1624e57",13,1
"1510",0,1,231,1,3,0,"1624e57",14,1
"1610",1,1,71,2,2,0,"1624e57",15,1
"1710",1,1,366,3,3,0,"1624e57",16,1
"1810",1,1,317,5,5,0,"1624e57",17,1
"1910",1,0,316,2,1,0,"1624e57",18,1
"2010",1,1,260,4,4,0,"1624e57",19,1
"2114",0,1,307,5,1,0,"1624e57",20,1
"2212",1,1,256,6,6,0,"1624e57",21,1
"2310",0,1,257,6,1,0,"1624e57",22,1
"2410",0,1,290,1,5,0,"1624e57",23,1
"2510",1,0,134,1,3,0,"1624e57",24,1
"2610",0,1,85,6,1,0,"1624e57",25,1
"2710",-1,-1,0,2,2,0,"1624e57",26,1
"2810",1,1,206,5,5,0,"1624e57",27,1
"2910",1,1,277,6,6,0,"1624e57",28,1
"3010",0,1,122,4,1,0,"1624e57",29,1
"3114",1,1,100,4,4,0,"1624e57",30,1
"3212",1,1,115,3,3,0,"1624e57",31,1
"3310",1,1,219,1,1,0,"1624e57",32,1
"3410",1,0,204,2,1,0,"1624e57",33,1
"3510",1,1,269,5,5,0,"1624e57",34,1
"3610",1,1,337,1,1,0,"1624e57",35,1
"3710",0,1,174,3,1,0,"1624e57",36,1
"3810",1,1,373,6,6,0,"1624e57",37,1
"3910",1,1,522,4,4,0,"1624e57",38,1
"4010",1,1,514,2,2,0,"1624e57",39,1
"4114",0,1,330,4,1,0,"1624e57",40,1
"4212",0,1,345,1,5,0,"1624e57",41,1
"4310",0,1,357,6,1,0,"1624e57",42,1
"4410",1,0,241,2,1,0,"1624e57",43,1
"4510",1,1,72,3,3,0,"1624e57",44,1
"4610",1,1,263,4,4,0,"1624e57",45,1
"4710",0,1,270,1,5,0,"1624e57",46,1
"4810",0,1,223,1,4,0,"1624e57",47,1
"4910",1,0,148,1,2,0,"1624e57",48,1
"5010",1,1,353,2,2,0,"1624e57",49,1
"5114",1,1,369,6,6,0,"1624e57",50,1
"5212",1,1,159,5,5,0,"1624e57",51,1
"5310",0,1,336,1,3,0,"1624e57",52,1
"5410",1,1,38,3,3,0,"1624e57",53,1
"5510",0,1,182,1,6,0,"1624e57",54,1
"5610",1,1,248,1,1,0,"1624e57",55,1
"5710",1,1,337,4,4,0,"1624e57",56,1
"5810",1,1,211,5,5,0,"1624e57",57,1
"5910",1,1,88,1,1,0,"1624e57",58,1
"6010",0,1,352,5,1,0,"1624e57",59,1
"6114",0,1,121,1,2,0,"1624e57",60,1
"6212",1,1,245,3,3,0,"1624e57",61,1
"6310",1,1,239,2,2,0,"1624e57",62,1
"6410",0,1,377,1,3,0,"1624e57",63,1
"6510",0,1,285,4,1,0,"1624e57",64,1
"6610",0,1,293,6,1,0,"1624e57",65,1
"6710",1,1,279,6,6,0,"1624e57",66,1
"6810",1,1,328,4,4,0,"1624e57",67,1
"6910",0,1,276,5,1,0,"1624e57",68,1
"7010",1,1,406,5,5,0,"1624e57",69,1
"7114",1,1,53,2,2,0,"1624e57",70,1
"7211",1,1,1980,1,1,0,"1624e57",71,1
"7310",0,1,134,2,1,0,"1624e57",72,1
"7410",0,1,319,1,6,0,"1624e57",73,1
"7510",1,1,339,3,3,0,"1624e57",74,1
"7610",0,1,251,1,4,0,"1624e57",75,1
"7710",0,1,20,3,1,0,"1624e57",76,1
"7810",1,1,279,6,6,0,"1624e57",77,1
"250",0,1,575,4,1,2,"1094125",1,1
"350",0,1,496,1,3,2,"1094125",2,1
"450",1,1,397,2,2,2,"1094125",3,1
"550",1,1,803,6,6,2,"1094125",4,1
"650",0,1,351,2,1,2,"1094125",5,1
"750",1,1,365,1,1,2,"1094125",6,1
"811",1,1,302,5,5,2,"1094125",7,1
"911",1,1,433,3,3,2,"1094125",8,1
"1011",0,1,655,1,6,2,"1094125",9,1
"1111",0,1,396,1,5,2,"1094125",10,1
"1211",1,1,432,4,4,2,"1094125",11,1
"1311",1,1,507,5,5,2,"1094125",12,1
"1411",1,1,371,2,2,2,"1094125",13,1
"1511",1,1,840,1,1,2,"1094125",14,1
"1611",1,1,495,3,3,2,"1094125",15,1
"1711",1,1,541,4,4,2,"1094125",16,1
"1811",1,1,737,6,6,2,"1094125",17,1
"1911",0,1,419,1,2,2,"1094125",18,1
"2011",0,1,420,1,4,2,"1094125",19,1
"2115",0,1,701,1,3,2,"1094125",20,1
"2213",0,1,420,5,1,2,"1094125",21,1
"2311",0,1,338,6,1,2,"1094125",22,1
"2411",1,1,595,6,6,2,"1094125",23,1
"2511",1,1,888,1,1,2,"1094125",24,1
"2611",1,1,398,2,2,2,"1094125",25,1
"2711",0,1,466,1,2,2,"1094125",26,1
"2811",0,1,397,1,3,2,"1094125",27,1
"2911",0,1,427,4,1,2,"1094125",28,1
"3011",0,1,609,1,5,2,"1094125",29,1
"3115",1,1,424,5,5,2,"1094125",30,1
"3213",1,1,658,3,3,2,"1094125",31,1
"3311",0,1,1158,6,1,2,"1094125",32,1
"3411",1,1,408,4,4,2,"1094125",33,1
"3511",0,1,477,2,1,2,"1094125",34,1
"3611",1,1,598,2,2,2,"1094125",35,1
"3711",1,1,484,6,6,2,"1094125",36,1
"3811",0,1,488,1,4,2,"1094125",37,1
"3911",1,1,464,3,3,2,"1094125",38,1
"4011",1,1,569,5,5,2,"1094125",39,1
"4115",0,1,448,1,3,2,"1094125",40,1
"4213",1,1,443,4,4,2,"1094125",41,1
"4311",0,1,603,6,1,2,"1094125",42,1
"4411",1,1,472,1,1,2,"1094125",43,1
"4511",0,1,463,1,5,2,"1094125",44,1
"4611",0,1,237,3,1,2,"1094125",45,1
"4711",1,1,350,6,6,2,"1094125",46,1
"4811",1,1,397,4,4,2,"1094125",47,1
"4911",0,1,654,1,4,2,"1094125",48,1
"5011",1,1,461,3,3,2,"1094125",49,1
"5115",0,1,521,6,1,2,"1094125",50,1
"5213",1,1,398,5,5,2,"1094125",51,1
"5311",1,1,353,2,2,2,"1094125",52,1
"5411",1,1,472,1,1,2,"1094125",53,1
"5511",0,1,496,5,1,2,"1094125",54,1
"5611",0,1,387,1,2,2,"1094125",55,1
"5711",0,1,416,4,1,2,"1094125",56,1
"5811",0,1,666,1,6,2,"1094125",57,1
"5911",0,1,331,3,1,2,"1094125",58,1
"6011",1,1,292,6,6,2,"1094125",59,1
"6115",1,1,458,4,4,2,"1094125",60,1
"6213",1,1,376,2,2,2,"1094125",61,1
"6311",1,1,391,3,3,2,"1094125",62,1
"6411",1,1,574,5,5,2,"1094125",63,1
"6511",1,1,413,1,1,2,"1094125",64,1
"6611",0,1,329,1,5,2,"1094125",65,1
"6711",0,1,358,2,1,2,"1094125",66,1
"6811",1,1,316,6,6,2,"1094125",67,1
"6911",1,1,363,4,4,2,"1094125",68,1
"7011",0,1,379,1,6,2,"1094125",69,1
"7115",1,1,378,3,3,2,"1094125",70,1
"7212",1,1,455,2,2,2,"1094125",71,1
"7311",0,1,468,2,1,2,"1094125",72,1
"7411",0,1,475,1,3,2,"1094125",73,1
"7511",1,1,309,5,5,2,"1094125",74,1
"7611",1,1,465,1,1,2,"1094125",75,1
"7711",0,1,294,4,1,2,"1094125",76,1
"7811",0,1,363,5,1,2,"1094125",77,1
"260",0,1,216,1,6,2,"13e0298",1,1
"360",0,1,223,2,1,2,"13e0298",2,1
"460",1,1,234,3,3,2,"13e0298",3,1
"560",0,1,146,5,1,2,"13e0298",4,1
"660",1,1,420,6,6,2,"13e0298",5,1
"760",0,1,160,1,4,2,"13e0298",6,1
"812",1,1,147,1,1,2,"13e0298",7,1
"912",1,1,149,2,2,2,"13e0298",8,1
"1012",1,1,119,5,5,2,"13e0298",9,1
"1112",0,1,207,3,1,2,"13e0298",10,1
"1212",1,1,143,4,4,2,"13e0298",11,1
"1312",0,1,220,2,1,2,"13e0298",12,1
"1412",1,1,182,2,2,2,"13e0298",13,1
"1512",1,1,233,6,6,2,"13e0298",14,1
"1612",0,1,199,1,6,2,"13e0298",15,1
"1712",1,1,113,5,5,2,"13e0298",16,1
"1812",0,1,193,1,4,2,"13e0298",17,1
"1912",0,1,139,3,1,2,"13e0298",18,1
"2012",1,1,220,4,4,2,"13e0298",19,1
"2116",0,1,232,1,5,2,"13e0298",20,1
"2214",1,1,256,3,3,2,"13e0298",21,1
"2312",1,1,221,1,1,2,"13e0298",22,1
"2412",0,1,167,1,6,2,"13e0298",23,1
"2512",1,1,217,6,6,2,"13e0298",24,1
"2612",0,1,322,1,5,2,"13e0298",25,1
"2712",0,1,223,3,1,2,"13e0298",26,1
"2812",0,1,221,1,4,2,"13e0298",27,1
"2912",1,1,236,5,5,2,"13e0298",28,1
"3012",1,1,193,2,2,2,"13e0298",29,1
"3116",1,1,176,4,4,2,"13e0298",30,1
"3214",0,1,115,1,2,2,"13e0298",31,1
"3312",1,1,207,3,3,2,"13e0298",32,1
"3412",1,1,48,1,1,2,"13e0298",33,1
"3512",0,1,159,1,5,2,"13e0298",34,1
"3612",1,1,119,5,5,2,"13e0298",35,1
"3712",0,1,214,6,1,2,"13e0298",36,1
"3812",0,1,118,4,1,2,"13e0298",37,1
"3912",0,1,236,1,2,2,"13e0298",38,1
"4012",1,1,131,3,3,2,"13e0298",39,1
"4116",1,1,230,6,6,2,"13e0298",40,1
"4214",1,1,46,2,2,2,"13e0298",41,1
"4312",1,1,175,4,4,2,"13e0298",42,1
"4412",1,1,235,1,1,2,"13e0298",43,1
"4512",0,1,59,1,3,2,"13e0298",44,1
"4612",0,1,116,5,1,2,"13e0298",45,1
"4712",1,1,50,2,2,2,"13e0298",46,1
"4812",0,1,83,2,1,2,"13e0298",47,1
"4912",0,1,195,1,4,2,"13e0298",48,1
"5012",0,1,173,6,1,2,"13e0298",49,1
"5116",1,1,147,6,6,2,"13e0298",50,1
"5214",1,1,158,3,3,2,"13e0298",51,1
"5312",1,1,121,1,1,2,"13e0298",52,1
"5412",1,1,68,4,4,2,"13e0298",53,1
"5512",1,1,203,5,5,2,"13e0298",54,1
"5612",0,1,160,1,3,2,"13e0298",55,1
"5712",1,1,121,6,6,2,"13e0298",56,1
"5812",0,1,124,4,1,2,"13e0298",57,1
"5912",1,1,44,2,2,2,"13e0298",58,1
"6012",1,1,170,1,1,2,"13e0298",59,1
"6116",0,1,189,1,2,2,"13e0298",60,1
"6214",1,1,332,3,3,2,"13e0298",61,1
"6312",1,1,27,5,5,2,"13e0298",62,1
"6412",1,1,76,4,4,2,"13e0298",63,1
"6512",0,1,46,6,1,2,"13e0298",64,1
"6612",0,1,111,1,5,2,"13e0298",65,1
"6712",0,1,190,1,3,2,"13e0298",66,1
"6812",0,1,182,1,6,2,"13e0298",67,1
"6912",1,1,31,5,5,2,"13e0298",68,1
"7012",1,1,83,1,1,2,"13e0298",69,1
"7116",0,1,67,1,2,2,"13e0298",70,1
"7213",0,1,173,5,1,2,"13e0298",71,1
"7312",1,1,103,6,6,2,"13e0298",72,1
"7412",1,1,119,2,2,2,"13e0298",73,1
"7512",0,1,197,1,3,2,"13e0298",74,1
"7612",1,1,65,4,4,2,"13e0298",75,1
"7712",1,1,4,3,3,2,"13e0298",76,1
"7812",0,1,74,4,1,2,"13e0298",77,1
"270",0,1,201,1,4,3,"1fa772d",1,1
"370",0,1,193,6,1,3,"1fa772d",2,1
"470",1,1,185,4,4,3,"1fa772d",3,1
"570",1,1,189,6,6,3,"1fa772d",4,1
"670",1,0,168,2,1,3,"1fa772d",5,1
"770",0,1,144,1,5,3,"1fa772d",6,1
"813",1,1,98,1,1,3,"1fa772d",7,1
"913",1,1,296,3,3,3,"1fa772d",8,1
"1013",1,1,2,2,2,3,"1fa772d",9,1
"1113",0,1,11,1,3,3,"1fa772d",10,1
"1213",1,1,150,5,5,3,"1fa772d",11,1
"1313",0,1,169,1,6,3,"1fa772d",12,1
"1413",1,1,172,4,4,3,"1fa772d",13,1
"1513",0,1,196,4,1,3,"1fa772d",14,1
"1613",0,1,195,1,3,3,"1fa772d",15,1
"1713",1,1,63,1,1,3,"1fa772d",16,1
"1813",1,1,113,3,3,3,"1fa772d",17,1
"1913",1,1,279,5,5,3,"1fa772d",18,1
"2013",1,0,21,2,1,3,"1fa772d",19,1
"2117",1,1,188,6,6,3,"1fa772d",20,1
"2215",0,1,149,1,5,3,"1fa772d",21,1
"2313",1,1,116,2,2,3,"1fa772d",22,1
"2413",0,1,166,3,1,3,"1fa772d",23,1
"2513",0,1,135,4,1,3,"1fa772d",24,1
"2613",0,1,236,5,1,3,"1fa772d",25,1
"2713",1,1,212,4,4,3,"1fa772d",26,1
"2813",0,1,16,6,1,3,"1fa772d",27,1
"2913",1,0,36,1,2,3,"1fa772d",28,1
"3013",1,1,141,6,6,3,"1fa772d",29,1
"3117",1,1,35,2,2,3,"1fa772d",30,1
"3215",1,1,143,1,1,3,"1fa772d",31,1
"3313",1,1,207,3,3,3,"1fa772d",32,1
"3413",1,1,197,5,5,3,"1fa772d",33,1
"3513",0,1,109,1,4,3,"1fa772d",34,1
"3613",1,1,73,6,6,3,"1fa772d",35,1
"3713",0,1,222,3,1,3,"1fa772d",36,1
"3813",1,1,98,5,5,3,"1fa772d",37,1
"3913",1,1,171,3,3,3,"1fa772d",38,1
"4013",0,1,213,1,5,3,"1fa772d",39,1
"4117",1,1,265,1,1,3,"1fa772d",40,1
"4215",1,0,195,1,2,3,"1fa772d",41,1
"4313",0,1,146,1,6,3,"1fa772d",42,1
"4413",1,1,106,4,4,3,"1fa772d",43,1
"4513",1,1,320,2,2,3,"1fa772d",44,1
"4613",1,1,130,4,4,3,"1fa772d",45,1
"4713",1,0,211,2,1,3,"1fa772d",46,1
"4813",1,1,350,6,6,3,"1fa772d",47,1
"4913",1,1,61,5,5,3,"1fa772d",48,1
"5013",1,1,205,2,2,3,"1fa772d",49,1
"5117",0,1,97,1,4,3,"1fa772d",50,1
"5215",0,1,149,1,5,3,"1fa772d",51,1
"5313",0,1,187,1,3,3,"1fa772d",52,1
"5413",1,1,186,3,3,3,"1fa772d",53,1
"5513",0,1,97,6,1,3,"1fa772d",54,1
"5613",1,1,285,1,1,3,"1fa772d",55,1
"5713",1,1,175,5,5,3,"1fa772d",56,1
"5813",1,1,142,6,6,3,"1fa772d",57,1
"5913",1,1,243,2,2,3,"1fa772d",58,1
"6013",1,1,44,3,3,3,"1fa772d",59,1
"6117",0,1,94,1,5,3,"1fa772d",60,1
"6215",0,1,59,2,1,3,"1fa772d",61,1
"6313",1,0,248,6,1,3,"1fa772d",62,1
"6413",0,1,79,4,1,3,"1fa772d",63,1
"6513",1,1,56,1,1,3,"1fa772d",64,1
"6613",1,0,471,3,1,3,"1fa772d",65,1
"6713",0,0,240,4,4,3,"1fa772d",66,1
"6813",1,1,87,4,4,3,"1fa772d",67,1
"6913",1,1,274,5,5,3,"1fa772d",68,1
"7013",1,1,249,1,1,3,"1fa772d",69,1
"7117",1,1,213,6,6,3,"1fa772d",70,1
"7214",1,1,147,2,2,3,"1fa772d",71,1
"7313",0,1,75,5,1,3,"1fa772d",72,1
"7413",0,1,191,4,1,3,"1fa772d",73,1
"7513",0,1,160,1,6,3,"1fa772d",74,1
"7613",1,0,207,1,2,3,"1fa772d",75,1
"7713",1,1,201,3,3,3,"1fa772d",76,1
"7813",0,1,194,3,1,3,"1fa772d",77,1
"280",1,1,516,6,6,3,"1d349a8",1,1
"380",1,1,539,5,5,3,"1d349a8",2,1
"480",0,1,373,1,3,3,"1d349a8",3,1
"580",1,1,753,1,1,3,"1d349a8",4,1
"680",0,1,374,1,2,3,"1d349a8",5,1
"780",0,1,393,4,1,3,"1d349a8",6,1
"814",1,1,478,2,2,3,"1d349a8",7,1
"914",1,1,608,4,4,3,"1d349a8",8,1
"1014",0,1,541,1,5,3,"1d349a8",9,1
"1114",1,1,461,3,3,3,"1d349a8",10,1
"1214",0,1,427,1,6,3,"1d349a8",11,1
"1314",1,1,358,1,1,3,"1d349a8",12,1
"1414",1,1,420,5,5,3,"1d349a8",13,1
"1514",1,1,351,4,4,3,"1d349a8",14,1
"1614",0,1,305,5,1,3,"1d349a8",15,1
"1714",0,1,415,4,1,3,"1d349a8",16,1
"1814",0,1,357,2,1,3,"1d349a8",17,1
"1914",1,1,479,3,3,3,"1d349a8",18,1
"2014",0,0,562,6,6,3,"1d349a8",19,1
"2118",0,1,405,6,1,3,"1d349a8",20,1
"2216",0,1,417,3,1,3,"1d349a8",21,1
"2314",1,1,427,2,2,3,"1d349a8",22,1
"2414",0,1,386,1,5,3,"1d349a8",23,1
"2514",0,1,538,1,3,3,"1d349a8",24,1
"2614",1,1,421,4,4,3,"1d349a8",25,1
"2714",1,1,370,5,5,3,"1d349a8",26,1
"2814",0,1,488,6,1,3,"1d349a8",27,1
"2914",1,1,545,2,2,3,"1d349a8",28,1
"3014",0,1,499,1,4,3,"1d349a8",29,1
"3118",0,1,357,1,2,3,"1d349a8",30,1
"3216",1,1,837,6,6,3,"1d349a8",31,1
"3314",1,1,498,1,1,3,"1d349a8",32,1
"3414",1,1,392,3,3,3,"1d349a8",33,1
"3514",0,0,427,5,5,3,"1d349a8",34,1
"3614",0,1,410,2,1,3,"1d349a8",35,1
"3714",0,1,583,1,6,3,"1d349a8",36,1
"3814",0,1,416,3,1,3,"1d349a8",37,1
"3914",1,1,445,1,1,3,"1d349a8",38,1
"4014",1,1,497,2,2,3,"1d349a8",39,1
"4118",1,1,379,4,4,3,"1d349a8",40,1
"4216",1,1,492,6,6,3,"1d349a8",41,1
"4314",0,1,444,1,4,3,"1d349a8",42,1
"4414",1,1,385,3,3,3,"1d349a8",43,1
"4514",0,1,419,5,1,3,"1d349a8",44,1
"4614",1,1,381,5,5,3,"1d349a8",45,1
"4714",1,1,540,1,1,3,"1d349a8",46,1
"4814",0,1,454,1,2,3,"1d349a8",47,1
"4914",1,1,427,3,3,3,"1d349a8",48,1
"5014",0,1,521,5,1,3,"1d349a8",49,1
"5118",1,1,451,6,6,3,"1d349a8",50,1
"5216",1,1,451,2,2,3,"1d349a8",51,1
"5314",0,1,420,6,1,3,"1d349a8",52,1
"5414",0,1,400,3,1,3,"1d349a8",53,1
"5514",1,1,492,4,4,3,"1d349a8",54,1
"5614",0,1,387,4,1,3,"1d349a8",55,1
"5714",0,1,948,1,4,3,"1d349a8",56,1
"5814",0,1,512,1,6,3,"1d349a8",57,1
"5914",1,1,413,6,6,3,"1d349a8",58,1
"6014",1,1,445,3,3,3,"1d349a8",59,1
"6118",0,1,395,2,1,3,"1d349a8",60,1
"6216",1,1,587,1,1,3,"1d349a8",61,1
"6314",1,1,502,2,2,3,"1d349a8",62,1
"6414",0,1,677,1,5,3,"1d349a8",63,1
"6514",1,1,498,4,4,3,"1d349a8",64,1
"6614",1,1,393,5,5,3,"1d349a8",65,1
"6714",0,1,554,3,1,3,"1d349a8",66,1
"6814",0,1,457,1,6,3,"1d349a8",67,1
"6914",0,1,429,3,1,3,"1d349a8",68,1
"7014",0,1,493,1,4,3,"1d349a8",69,1
"7118",0,1,383,2,1,3,"1d349a8",70,1
"7215",1,1,517,1,1,3,"1d349a8",71,1
"7314",1,1,398,4,4,3,"1d349a8",72,1
"7414",0,1,380,5,1,3,"1d349a8",73,1
"7514",1,1,373,5,5,3,"1d349a8",74,1
"7614",1,1,485,3,3,3,"1d349a8",75,1
"7714",1,1,436,2,2,3,"1d349a8",76,1
"7814",1,1,901,6,6,3,"1d349a8",77,1
"290",1,1,422,1,1,3,"1a389f3",1,1
"390",1,0,258,1,2,3,"1a389f3",2,1
"490",0,0,281,2,2,3,"1a389f3",3,1
"590",0,1,251,6,1,3,"1a389f3",4,1
"690",1,1,264,3,3,3,"1a389f3",5,1
"790",0,1,332,1,3,3,"1a389f3",6,1
"815",1,1,271,4,4,3,"1a389f3",7,1
"915",0,1,428,4,1,3,"1a389f3",8,1
"1015",1,1,263,5,5,3,"1a389f3",9,1
"1115",0,1,290,1,5,3,"1a389f3",10,1
"1215",1,1,372,6,6,3,"1a389f3",11,1
"1315",0,1,368,1,4,3,"1a389f3",12,1
"1415",0,1,356,5,1,3,"1a389f3",13,1
"1515",1,1,297,5,5,3,"1a389f3",14,1
"1615",0,1,580,3,1,3,"1a389f3",15,1
"1715",1,1,290,2,2,3,"1a389f3",16,1
"1815",1,1,320,4,4,3,"1a389f3",17,1
"1915",1,1,302,6,6,3,"1a389f3",18,1
"2015",1,1,423,3,3,3,"1a389f3",19,1
"2119",1,1,298,1,1,3,"1a389f3",20,1
"2217",0,1,352,6,1,3,"1a389f3",21,1
"2315",0,1,369,1,2,3,"1a389f3",22,1
"2415",1,1,410,3,3,3,"1a389f3",23,1
"2515",1,1,442,5,5,3,"1a389f3",24,1
"2615",0,1,341,5,1,3,"1a389f3",25,1
"2715",1,0,401,2,1,3,"1a389f3",26,1
"2815",1,1,250,1,1,3,"1a389f3",27,1
"2915",0,1,358,1,6,3,"1a389f3",28,1
"3015",0,1,341,4,1,3,"1a389f3",29,1
"3119",1,1,285,4,4,3,"1a389f3",30,1
"3217",1,1,401,2,2,3,"1a389f3",31,1
"3315",0,1,313,3,1,3,"1a389f3",32,1
"3415",1,1,386,6,6,3,"1a389f3",33,1
"3515",1,1,434,6,6,3,"1a389f3",34,1
"3615",1,1,639,1,1,3,"1a389f3",35,1
"3715",1,1,367,5,5,3,"1a389f3",36,1
"3815",0,1,317,6,1,3,"1a389f3",37,1
"3915",1,1,298,3,3,3,"1a389f3",38,1
"4015",1,1,289,4,4,3,"1a389f3",39,1
"4119",0,1,249,1,5,3,"1a389f3",40,1
"4217",0,1,280,3,1,3,"1a389f3",41,1
"4315",1,1,352,2,2,3,"1a389f3",42,1
"4415",1,0,278,2,1,3,"1a389f3",43,1
"4515",0,1,357,4,1,3,"1a389f3",44,1
"4615",1,1,900,5,5,3,"1a389f3",45,1
"4715",0,1,343,4,1,3,"1a389f3",46,1
"4815",1,1,270,3,3,3,"1a389f3",47,1
"4915",0,1,443,1,5,3,"1a389f3",48,1
"5015",1,1,407,4,4,3,"1a389f3",49,1
"5119",0,1,29,1,3,3,"1a389f3",50,1
"5217",1,0,118,2,1,3,"1a389f3",51,1
"5315",1,1,244,1,1,3,"1a389f3",52,1
"5415",1,1,302,6,6,3,"1a389f3",53,1
"5515",1,1,656,2,2,3,"1a389f3",54,1
"5615",0,1,309,1,6,3,"1a389f3",55,1
"5715",1,1,277,5,5,3,"1a389f3",56,1
"5815",0,1,131,3,1,3,"1a389f3",57,1
"5915",1,1,456,2,2,3,"1a389f3",58,1
"6015",0,1,335,1,2,3,"1a389f3",59,1
"6119",1,1,315,1,1,3,"1a389f3",60,1
"6217",0,1,501,6,1,3,"1a389f3",61,1
"6315",0,1,279,1,5,3,"1a389f3",62,1
"6415",1,1,282,6,6,3,"1a389f3",63,1
"6515",1,1,861,4,4,3,"1a389f3",64,1
"6615",1,1,465,3,3,3,"1a389f3",65,1
"6715",0,1,243,1,4,3,"1a389f3",66,1
"6815",1,1,237,3,3,3,"1a389f3",67,1
"6915",1,0,240,1,3,3,"1a389f3",68,1
"7015",1,0,473,2,1,3,"1a389f3",69,1
"7119",1,1,264,1,1,3,"1a389f3",70,1
"7216",1,1,233,4,4,3,"1a389f3",71,1
"7315",1,1,253,6,6,3,"1a389f3",72,1
"7415",0,1,258,1,5,3,"1a389f3",73,1
"7515",1,0,1782,1,4,3,"1a389f3",74,1
"7615",1,1,259,2,2,3,"1a389f3",75,1
"7715",1,1,340,5,5,3,"1a389f3",76,1
"7815",0,1,296,6,1,3,"1a389f3",77,1
"2100",0,1,366,1,6,0,"1de7a7b",1,1
"3100",1,1,433,5,5,0,"1de7a7b",2,1
"4100",0,1,358,1,4,0,"1de7a7b",3,1
"5100",1,1,375,6,6,0,"1de7a7b",4,1
"6100",1,0,384,2,1,0,"1de7a7b",5,1
"791",1,1,334,3,3,0,"1de7a7b",6,1
"816",0,1,360,1,3,0,"1de7a7b",7,1
"916",1,1,359,4,4,0,"1de7a7b",8,1
"1016",1,1,403,1,1,0,"1de7a7b",9,1
"1116",0,0,423,2,2,0,"1de7a7b",10,1
"1216",0,1,385,1,5,0,"1de7a7b",11,1
"1316",0,1,331,3,1,0,"1de7a7b",12,1
"1416",0,1,484,1,6,0,"1de7a7b",13,1
"1516",0,1,427,1,2,0,"1de7a7b",14,1
"1616",1,1,518,3,3,0,"1de7a7b",15,1
"1716",0,0,365,4,4,0,"1de7a7b",16,1
"1816",0,1,340,1,4,0,"1de7a7b",17,1
"1916",1,1,349,2,2,0,"1de7a7b",18,1
"2016",0,1,434,5,1,0,"1de7a7b",19,1
"2120",1,1,344,1,1,0,"1de7a7b",20,1
"2218",1,1,370,5,5,0,"1de7a7b",21,1
"2316",1,1,491,6,6,0,"1de7a7b",22,1
"2416",0,1,371,3,1,0,"1de7a7b",23,1
"2516",0,1,386,1,2,0,"1de7a7b",24,1
"2616",1,1,402,6,6,0,"1de7a7b",25,1
"2716",1,1,356,5,5,0,"1de7a7b",26,1
"2816",1,1,396,2,2,0,"1de7a7b",27,1
"2916",0,1,370,1,4,0,"1de7a7b",28,1
"3016",0,1,349,1,5,0,"1de7a7b",29,1
"3120",1,1,698,4,4,0,"1de7a7b",30,1
"3218",1,1,417,1,1,0,"1de7a7b",31,1
"3316",1,1,378,3,3,0,"1de7a7b",32,1
"3416",0,1,360,1,6,0,"1de7a7b",33,1
"3516",0,1,388,4,1,0,"1de7a7b",34,1
"3616",0,1,328,1,5,0,"1de7a7b",35,1
"3716",1,1,368,5,5,0,"1de7a7b",36,1
"3816",1,1,284,6,6,0,"1de7a7b",37,1
"3916",1,1,350,2,2,0,"1de7a7b",38,1
"4016",0,1,357,3,1,0,"1de7a7b",39,1
"4120",1,1,362,1,1,0,"1de7a7b",40,1
"4218",0,1,291,1,6,0,"1de7a7b",41,1
"4316",1,1,352,3,3,0,"1de7a7b",42,1
"4416",1,1,359,4,4,0,"1de7a7b",43,1
"4516",0,1,434,2,1,0,"1de7a7b",44,1
"4616",1,1,389,6,6,0,"1de7a7b",45,1
"4716",1,1,374,4,4,0,"1de7a7b",46,1
"4816",1,1,367,1,1,0,"1de7a7b",47,1
"4916",0,1,340,6,1,0,"1de7a7b",48,1
"5016",1,1,415,5,5,0,"1de7a7b",49,1
"5120",0,1,328,4,1,0,"1de7a7b",50,1
"5218",1,1,391,2,2,0,"1de7a7b",51,1
"5316",0,1,354,2,1,0,"1de7a7b",52,1
"5416",0,1,387,3,1,0,"1de7a7b",53,1
"5516",0,1,366,5,1,0,"1de7a7b",54,1
"5616",1,1,391,3,3,0,"1de7a7b",55,1
"5716",1,1,395,1,1,0,"1de7a7b",56,1
"5816",1,1,388,5,5,0,"1de7a7b",57,1
"5916",0,1,379,5,1,0,"1de7a7b",58,1
"6016",1,1,478,2,2,0,"1de7a7b",59,1
"6120",1,1,373,3,3,0,"1de7a7b",60,1
"6218",1,1,497,6,6,0,"1de7a7b",61,1
"6316",0,1,294,4,1,0,"1de7a7b",62,1
"6416",1,1,334,4,4,0,"1de7a7b",63,1
"6516",0,1,407,1,2,0,"1de7a7b",64,1
"6616",0,1,366,6,1,0,"1de7a7b",65,1
"6716",0,1,378,3,1,0,"1de7a7b",66,1
"6816",1,1,367,2,2,0,"1de7a7b",67,1
"6916",1,1,358,1,1,0,"1de7a7b",68,1
"7016",1,1,420,6,6,0,"1de7a7b",69,1
"7120",1,1,422,5,5,0,"1de7a7b",70,1
"7217",0,1,367,1,3,0,"1de7a7b",71,1
"7316",0,1,422,1,6,0,"1de7a7b",72,1
"7416",0,1,333,1,4,0,"1de7a7b",73,1
"7516",0,1,395,1,5,0,"1de7a7b",74,1
"7616",1,1,412,3,3,0,"1de7a7b",75,1
"7716",1,1,309,4,4,0,"1de7a7b",76,1
"7816",0,1,326,2,1,0,"1de7a7b",77,1
"2101",1,1,287,2,2,1,"22ce30a",1,1
"3101",0,1,176,1,5,1,"22ce30a",2,1
"4101",0,1,347,6,1,1,"22ce30a",3,1
"5101",1,1,442,5,5,1,"22ce30a",4,1
"6101",1,1,498,4,4,1,"22ce30a",5,1
"792",0,1,226,1,2,1,"22ce30a",6,1
"817",1,1,460,6,6,1,"22ce30a",7,1
"917",1,1,287,1,1,1,"22ce30a",8,1
"1017",1,0,205,3,1,1,"22ce30a",9,1
"1117",0,1,266,1,4,1,"22ce30a",10,1
"1217",1,1,336,3,3,1,"22ce30a",11,1
"1317",0,1,310,1,5,1,"22ce30a",12,1
"1417",1,1,335,2,2,1,"22ce30a",13,1
"1517",0,0,434,6,6,1,"22ce30a",14,1
"1617",1,1,389,4,4,1,"22ce30a",15,1
"1717",1,1,268,1,1,1,"22ce30a",16,1
"1817",0,1,244,1,2,1,"22ce30a",17,1
"1917",1,1,230,5,5,1,"22ce30a",18,1
"2017",0,1,243,1,6,1,"22ce30a",19,1
"2121",0,1,236,4,1,1,"22ce30a",20,1
"2219",0,1,372,3,1,1,"22ce30a",21,1
"2317",1,1,706,3,3,1,"22ce30a",22,1
"2417",0,1,325,1,4,1,"22ce30a",23,1
"2517",1,1,183,2,2,1,"22ce30a",24,1
"2617",0,1,446,5,1,1,"22ce30a",25,1
"2717",1,1,213,3,3,1,"22ce30a",26,1
"2817",0,1,468,1,6,1,"22ce30a",27,1
"2917",1,1,434,1,1,1,"22ce30a",28,1
"3017",1,1,265,5,5,1,"22ce30a",29,1
"3121",0,1,64,1,3,1,"22ce30a",30,1
"3219",0,1,259,2,1,1,"22ce30a",31,1
"3317",1,1,263,4,4,1,"22ce30a",32,1
"3417",1,1,379,6,6,1,"22ce30a",33,1
"3517",1,1,299,2,2,1,"22ce30a",34,1
"3617",1,1,591,6,6,1,"22ce30a",35,1
"3717",0,1,304,6,1,1,"22ce30a",36,1
"3817",0,1,265,1,3,1,"22ce30a",37,1
"3917",1,1,341,3,3,1,"22ce30a",38,1
"4017",1,1,437,4,4,1,"22ce30a",39,1
"4121",0,1,245,1,5,1,"22ce30a",40,1
"4219",1,0,331,2,1,1,"22ce30a",41,1
"4317",0,1,1841,1,4,1,"22ce30a",42,1
"4417",1,1,425,1,1,1,"22ce30a",43,1
"4517",1,1,1592,5,5,1,"22ce30a",44,1
"4617",1,1,928,5,5,1,"22ce30a",45,1
"4717",0,1,239,1,6,1,"22ce30a",46,1
"4817",1,1,238,4,4,1,"22ce30a",47,1
"4917",0,1,1328,1,2,1,"22ce30a",48,1
"5017",1,1,290,3,3,1,"22ce30a",49,1
"5121",1,1,577,6,6,1,"22ce30a",50,1
"5219",0,1,220,4,1,1,"22ce30a",51,1
"5317",0,1,284,1,3,1,"22ce30a",52,1
"5417",1,1,317,2,2,1,"22ce30a",53,1
"5517",0,1,292,5,1,1,"22ce30a",54,1
"5617",1,1,18,1,1,1,"22ce30a",55,1
"5717",1,1,319,4,4,1,"22ce30a",56,1
"5817",0,1,227,5,1,1,"22ce30a",57,1
"5917",0,1,396,1,6,1,"22ce30a",58,1
"6017",1,1,289,1,1,1,"22ce30a",59,1
"6121",1,1,260,5,5,1,"22ce30a",60,1
"6219",0,1,437,3,1,1,"22ce30a",61,1
"6317",0,1,1010,1,2,1,"22ce30a",62,1
"6417",0,1,80,1,4,1,"22ce30a",63,1
"6517",1,1,192,2,2,1,"22ce30a",64,1
"6617",1,1,228,6,6,1,"22ce30a",65,1
"6717",1,1,233,3,3,1,"22ce30a",66,1
"6817",1,1,404,5,5,1,"22ce30a",67,1
"6917",0,1,684,2,1,1,"22ce30a",68,1
"7017",0,1,546,1,4,1,"22ce30a",69,1
"7121",0,1,270,3,1,1,"22ce30a",70,1
"7218",1,1,156,3,3,1,"22ce30a",71,1
"7317",1,1,393,4,4,1,"22ce30a",72,1
"7417",1,1,513,1,1,1,"22ce30a",73,1
"7517",0,1,409,6,1,1,"22ce30a",74,1
"7617",1,1,246,6,6,1,"22ce30a",75,1
"7717",0,1,301,5,1,1,"22ce30a",76,1
"7817",1,1,368,2,2,1,"22ce30a",77,1
"2102",0,1,487,5,1,2,"10593eb",1,1
"3102",0,1,534,1,6,2,"10593eb",2,1
"4102",1,0,376,4,1,2,"10593eb",3,1
"5102",1,1,435,5,5,2,"10593eb",4,1
"6102",0,0,339,3,3,2,"10593eb",5,1
"793",1,0,431,1,2,2,"10593eb",6,1
"818",1,1,405,6,6,2,"10593eb",7,1
"918",1,1,501,2,2,2,"10593eb",8,1
"1018",1,1,343,4,4,2,"10593eb",9,1
"1118",0,1,339,3,1,2,"10593eb",10,1
"1218",0,0,502,1,1,2,"10593eb",11,1
"1318",0,1,564,3,1,2,"10593eb",12,1
"1418",1,1,458,4,4,2,"10593eb",13,1
"1518",1,1,576,5,5,2,"10593eb",14,1
"1618",1,1,377,2,2,2,"10593eb",15,1
"1718",0,1,489,5,1,2,"10593eb",16,1
"1818",0,1,442,6,1,2,"10593eb",17,1
"1918",1,1,400,6,6,2,"10593eb",18,1
"2018",1,1,384,3,3,2,"10593eb",19,1
"2122",0,0,432,1,1,2,"10593eb",20,1
"2220",0,1,353,4,1,2,"10593eb",21,1
"2318",0,1,568,1,2,2,"10593eb",22,1
"2418",0,1,461,1,3,2,"10593eb",23,1
"2518",1,1,337,4,4,2,"10593eb",24,1
"2618",0,1,344,1,4,2,"10593eb",25,1
"2718",1,1,385,2,2,2,"10593eb",26,1
"2818",1,1,358,6,6,2,"10593eb",27,1
"2918",0,1,361,1,2,2,"10593eb",28,1
"3018",1,1,355,5,5,2,"10593eb",29,1
"3122",1,1,707,3,3,2,"10593eb",30,1
"3220",0,1,365,1,6,2,"10593eb",31,1
"3318",0,1,384,5,1,2,"10593eb",32,1
"3418",1,1,395,1,1,2,"10593eb",33,1
"3518",1,1,389,4,4,2,"10593eb",34,1
"3618",0,1,328,1,3,2,"10593eb",35,1
"3718",0,1,402,1,5,2,"10593eb",36,1
"3818",1,1,404,2,2,2,"10593eb",37,1
"3918",0,1,349,4,1,2,"10593eb",38,1
"4018",1,1,361,5,5,2,"10593eb",39,1
"4122",0,0,371,1,1,2,"10593eb",40,1
"4220",1,0,363,2,1,2,"10593eb",41,1
"4318",0,0,314,6,6,2,"10593eb",42,1
"4418",0,1,346,6,1,2,"10593eb",43,1
"4518",1,1,365,3,3,2,"10593eb",44,1
"4618",0,0,337,6,6,2,"10593eb",45,1
"4718",0,1,1183,1,6,2,"10593eb",46,1
"4818",0,1,509,1,5,2,"10593eb",47,1
"4918",1,0,457,2,1,2,"10593eb",48,1
"5018",0,0,365,3,3,2,"10593eb",49,1
"5122",1,0,404,3,1,2,"10593eb",50,1
"5220",1,1,408,4,4,2,"10593eb",51,1
"5318",1,1,308,2,2,2,"10593eb",52,1
"5418",0,1,274,4,1,2,"10593eb",53,1
"5518",0,0,430,1,1,2,"10593eb",54,1
"5618",1,1,433,5,5,2,"10593eb",55,1
"5718",0,1,330,1,3,2,"10593eb",56,1
"5818",1,1,362,4,4,2,"10593eb",57,1
"5918",1,1,412,5,5,2,"10593eb",58,1
"6018",1,1,361,3,3,2,"10593eb",59,1
"6122",-1,-1,0,6,6,2,"10593eb",60,1
"6220",1,1,1305,2,2,2,"10593eb",61,1
"6318",0,1,1382,1,6,2,"10593eb",62,1
"6418",0,1,399,5,1,2,"10593eb",63,1
"6518",1,0,554,2,1,2,"10593eb",64,1
"6618",1,1,337,1,1,2,"10593eb",65,1
"6718",0,1,416,4,1,2,"10593eb",66,1
"6818",1,1,411,2,2,2,"10593eb",67,1
"6918",1,1,384,4,4,2,"10593eb",68,1
"7018",0,1,505,1,5,2,"10593eb",69,1
"7122",1,1,188,3,3,2,"10593eb",70,1
"7219",0,1,562,6,1,2,"10593eb",71,1
"7318",1,0,532,1,2,2,"10593eb",72,1
"7418",0,1,377,3,1,2,"10593eb",73,1
"7518",1,1,755,6,6,2,"10593eb",74,1
"7618",0,1,289,1,4,2,"10593eb",75,1
"7718",1,1,330,5,5,2,"10593eb",76,1
"7818",1,1,365,1,1,2,"10593eb",77,1
"2103",1,1,344,2,2,2,"1f758f0",1,1
"3103",0,1,360,1,6,2,"1f758f0",2,1
"4103",1,1,281,3,3,2,"1f758f0",3,1
"5103",1,1,368,6,6,2,"1f758f0",4,1
"6103",0,1,303,1,3,2,"1f758f0",5,1
"794",1,1,166,5,5,2,"1f758f0",6,1
"819",1,1,250,1,1,2,"1f758f0",7,1
"919",0,1,227,5,1,2,"1f758f0",8,1
"1019",1,1,214,4,4,2,"1f758f0",9,1
"1119",0,1,255,1,4,2,"1f758f0",10,1
"1219",0,1,1099,2,1,2,"1f758f0",11,1
"1319",1,1,330,4,4,2,"1f758f0",12,1
"1419",1,1,272,3,3,2,"1f758f0",13,1
"1519",1,1,196,5,5,2,"1f758f0",14,1
"1619",1,1,339,1,1,2,"1f758f0",15,1
"1719",1,1,342,6,6,2,"1f758f0",16,1
"1819",0,1,230,3,1,2,"1f758f0",17,1
"1919",1,1,119,2,2,2,"1f758f0",18,1
"2019",0,1,61,1,5,2,"1f758f0",19,1
"2123",0,1,331,1,6,2,"1f758f0",20,1
"2221",0,1,354,1,4,2,"1f758f0",21,1
"2319",0,1,103,1,2,2,"1f758f0",22,1
"2419",1,1,319,5,5,2,"1f758f0",23,1
"2519",0,1,22,6,1,2,"1f758f0",24,1
"2619",1,1,768,6,6,2,"1f758f0",25,1
"2719",0,1,247,3,1,2,"1f758f0",26,1
"2819",1,1,358,3,3,2,"1f758f0",27,1
"2919",0,1,254,1,4,2,"1f758f0",28,1
"3019",1,0,197,1,2,2,"1f758f0",29,1
"3123",0,1,222,1,5,2,"1f758f0",30,1
"3221",1,1,389,2,2,2,"1f758f0",31,1
"3319",1,1,300,1,1,2,"1f758f0",32,1
"3419",1,1,309,4,4,2,"1f758f0",33,1
"3519",1,1,275,6,6,2,"1f758f0",34,1
"3619",1,1,595,5,5,2,"1f758f0",35,1
"3719",0,1,514,1,5,2,"1f758f0",36,1
"3819",1,1,262,3,3,2,"1f758f0",37,1
"3919",1,1,255,1,1,2,"1f758f0",38,1
"4019",0,1,287,1,4,2,"1f758f0",39,1
"4123",1,1,264,4,4,2,"1f758f0",40,1
"4221",1,0,247,1,2,2,"1f758f0",41,1
"4319",0,1,375,1,3,2,"1f758f0",42,1
"4419",1,1,294,2,2,2,"1f758f0",43,1
"4519",0,1,197,6,1,2,"1f758f0",44,1
"4619",0,1,148,2,1,2,"1f758f0",45,1
"4719",1,1,22,5,5,2,"1f758f0",46,1
"4819",0,1,422,3,1,2,"1f758f0",47,1
"4919",1,1,255,2,2,2,"1f758f0",48,1
"5019",1,1,154,1,1,2,"1f758f0",49,1
"5123",0,1,287,6,1,2,"1f758f0",50,1
"5221",1,1,51,4,4,2,"1f758f0",51,1
"5319",0,1,422,4,1,2,"1f758f0",52,1
"5419",1,1,5,6,6,2,"1f758f0",53,1
"5519",1,1,215,3,3,2,"1f758f0",54,1
"5619",0,1,313,5,1,2,"1f758f0",55,1
"5719",0,1,217,1,6,2,"1f758f0",56,1
"5819",1,1,33,5,5,2,"1f758f0",57,1
"5919",1,1,279,1,1,2,"1f758f0",58,1
"6019",1,1,87,3,3,2,"1f758f0",59,1
"6123",0,1,270,3,1,2,"1f758f0",60,1
"6221",0,1,256,1,4,2,"1f758f0",61,1
"6319",1,1,264,4,4,2,"1f758f0",62,1
"6419",1,1,336,2,2,2,"1f758f0",63,1
"6519",0,1,288,1,2,2,"1f758f0",64,1
"6619",1,1,361,6,6,2,"1f758f0",65,1
"6719",0,1,7,5,1,2,"1f758f0",66,1
"6819",0,1,150,3,1,2,"1f758f0",67,1
"6919",0,1,166,2,1,2,"1f758f0",68,1
"7019",1,1,295,5,5,2,"1f758f0",69,1
"7123",1,1,217,1,1,2,"1f758f0",70,1
"7220",1,1,786,4,4,2,"1f758f0",71,1
"7319",0,1,293,1,4,2,"1f758f0",72,1
"7419",0,1,549,5,1,2,"1f758f0",73,1
"7519",0,1,176,1,6,2,"1f758f0",74,1
"7619",1,1,327,3,3,2,"1f758f0",75,1
"7719",1,1,344,6,6,2,"1f758f0",76,1
"7819",1,1,448,2,2,2,"1f758f0",77,1
"2104",0,1,423,5,1,2,"1867049",1,1
"3104",0,1,317,1,2,2,"1867049",2,1
"4104",0,1,392,6,1,2,"1867049",3,1
"5104",1,1,240,5,5,2,"1867049",4,1
"6104",0,1,248,1,3,2,"1867049",5,1
"795",1,1,231,6,6,2,"1867049",6,1
"820",1,1,240,3,3,2,"1867049",7,1
"920",1,1,268,2,2,2,"1867049",8,1
"1020",0,1,209,1,4,2,"1867049",9,1
"1120",1,1,309,4,4,2,"1867049",10,1
"1220",1,1,155,1,1,2,"1867049",11,1
"1320",0,0,262,2,2,2,"1867049",12,1
"1420",1,1,205,1,1,2,"1867049",13,1
"1520",0,1,309,4,1,2,"1867049",14,1
"1620",0,1,252,1,6,2,"1867049",15,1
"1720",1,1,278,4,4,2,"1867049",16,1
"1820",1,1,313,6,6,2,"1867049",17,1
"1920",1,1,302,3,3,2,"1867049",18,1
"2020",0,1,276,1,2,2,"1867049",19,1
"2124",0,1,245,1,3,2,"1867049",20,1
"2222",0,1,315,5,1,2,"1867049",21,1
"2320",1,1,262,5,5,2,"1867049",22,1
"2420",0,1,199,3,1,2,"1867049",23,1
"2520",1,1,254,5,5,2,"1867049",24,1
"2620",0,1,264,2,1,2,"1867049",25,1
"2720",0,1,209,5,1,2,"1867049",26,1
"2820",1,1,233,3,3,2,"1867049",27,1
"2920",1,1,141,6,6,2,"1867049",28,1
"3020",1,1,261,1,1,2,"1867049",29,1
"3124",0,1,283,1,4,2,"1867049",30,1
"3222",1,1,255,4,4,2,"1867049",31,1
"3320",0,1,384,6,1,2,"1867049",32,1
"3420",1,1,251,2,2,2,"1867049",33,1
"3520",1,1,312,5,5,2,"1867049",34,1
"3620",1,1,274,4,4,2,"1867049",35,1
"3720",1,0,276,2,1,2,"1867049",36,1
"3820",1,1,268,6,6,2,"1867049",37,1
"3920",0,1,376,5,1,2,"1867049",38,1
"4020",1,1,262,3,3,2,"1867049",39,1
"4124",0,1,305,4,1,2,"1867049",40,1
"4222",0,1,331,6,1,2,"1867049",41,1
"4320",1,1,227,2,2,2,"1867049",42,1
"4420",1,1,211,1,1,2,"1867049",43,1
"4520",0,1,347,3,1,2,"1867049",44,1
"4620",1,1,232,1,1,2,"1867049",45,1
"4720",1,1,241,2,2,2,"1867049",46,1
"4820",0,1,282,1,5,2,"1867049",47,1
"4920",0,1,248,1,6,2,"1867049",48,1
"5020",1,1,235,5,5,2,"1867049",49,1
"5124",1,1,222,3,3,2,"1867049",50,1
"5222",0,1,200,1,2,2,"1867049",51,1
"5320",0,1,343,4,1,2,"1867049",52,1
"5420",1,1,250,6,6,2,"1867049",53,1
"5520",1,1,246,4,4,2,"1867049",54,1
"5620",0,1,192,3,1,2,"1867049",55,1
"5720",1,1,162,5,5,2,"1867049",56,1
"5820",0,1,313,1,4,2,"1867049",57,1
"5920",1,1,222,4,4,2,"1867049",58,1
"6020",1,1,253,3,3,2,"1867049",59,1
"6124",0,1,141,3,1,2,"1867049",60,1
"6222",1,0,291,2,1,2,"1867049",61,1
"6320",0,1,105,1,5,2,"1867049",62,1
"6420",0,1,193,6,1,2,"1867049",63,1
"6520",1,1,246,6,6,2,"1867049",64,1
"6620",1,1,210,1,1,2,"1867049",65,1
"6720",1,1,533,2,2,2,"1867049",66,1
"6820",1,1,263,6,6,2,"1867049",67,1
"6920",1,1,276,1,1,2,"1867049",68,1
"7020",1,1,269,4,4,2,"1867049",69,1
"7124",1,1,290,3,3,2,"1867049",70,1
"7221",0,1,350,5,1,2,"1867049",71,1
"7320",1,1,210,5,5,2,"1867049",72,1
"7420",1,0,252,2,1,2,"1867049",73,1
"7520",0,1,270,1,4,2,"1867049",74,1
"7620",0,1,362,3,1,2,"1867049",75,1
"7720",0,1,272,6,1,2,"1867049",76,1
"7820",1,1,576,2,2,2,"1867049",77,1
"2105",0,1,559,1,4,1,"d0fc35c",1,1
"3105",0,0,1073,4,4,1,"d0fc35c",2,1
"4105",1,1,397,5,5,1,"d0fc35c",3,1
"5105",0,1,425,1,3,1,"d0fc35c",4,1
"6105",1,1,445,1,1,1,"d0fc35c",5,1
"796",1,1,235,2,2,1,"d0fc35c",6,1
"821",0,1,344,1,2,1,"d0fc35c",7,1
"921",0,0,378,3,3,1,"d0fc35c",8,1
"1021",0,1,648,5,1,1,"d0fc35c",9,1
"1121",0,1,560,6,1,1,"d0fc35c",10,1
"1221",1,1,583,6,6,1,"d0fc35c",11,1
"1321",0,1,393,3,1,1,"d0fc35c",12,1
"1421",1,1,1332,4,4,1,"d0fc35c",13,1
"1521",0,1,618,5,1,1,"d0fc35c",14,1
"1621",0,1,1473,4,1,1,"d0fc35c",15,1
"1721",0,0,1951,5,5,1,"d0fc35c",16,1
"1821",1,1,360,2,2,1,"d0fc35c",17,1
"1921",1,0,383,1,6,1,"d0fc35c",18,1
"2021",1,1,302,3,3,1,"d0fc35c",19,1
"2125",1,0,731,1,2,1,"d0fc35c",20,1
"2223",0,0,631,1,1,1,"d0fc35c",21,1
"2321",1,1,804,6,6,1,"d0fc35c",22,1
"2421",1,1,505,5,5,1,"d0fc35c",23,1
"2521",1,0,651,1,2,1,"d0fc35c",24,1
"2621",0,1,389,1,6,1,"d0fc35c",25,1
"2721",1,1,555,3,3,1,"d0fc35c",26,1
"2821",-1,-1,0,2,2,1,"d0fc35c",27,1
"2921",0,0,620,6,6,1,"d0fc35c",28,1
"3021",1,1,371,1,1,1,"d0fc35c",29,1
"3125",1,1,476,4,4,1,"d0fc35c",30,1
"3223",0,1,645,4,1,1,"d0fc35c",31,1
"3321",0,1,476,1,3,1,"d0fc35c",32,1
"3421",0,1,438,1,5,1,"d0fc35c",33,1
"3521",1,1,401,3,3,1,"d0fc35c",34,1
"3621",1,0,794,1,3,1,"d0fc35c",35,1
"3721",0,1,541,1,5,1,"d0fc35c",36,1
"3821",0,1,761,4,1,1,"d0fc35c",37,1
"3921",0,1,451,2,1,1,"d0fc35c",38,1
"4021",1,1,439,4,4,1,"d0fc35c",39,1
"4125",1,1,395,5,5,1,"d0fc35c",40,1
"4223",0,1,1191,1,6,1,"d0fc35c",41,1
"4321",1,1,1920,2,2,1,"d0fc35c",42,1
"4421",1,1,475,6,6,1,"d0fc35c",43,1
"4521",1,1,550,1,1,1,"d0fc35c",44,1
"4621",1,1,752,4,4,1,"d0fc35c",45,1
"4721",1,1,652,2,2,1,"d0fc35c",46,1
"4821",0,1,389,1,3,1,"d0fc35c",47,1
"4921",1,1,320,1,1,1,"d0fc35c",48,1
"5021",0,0,825,3,3,1,"d0fc35c",49,1
"5125",1,0,511,5,1,1,"d0fc35c",50,1
"5223",1,0,335,1,4,1,"d0fc35c",51,1
"5321",0,0,610,6,6,1,"d0fc35c",52,1
"5421",0,1,515,6,1,1,"d0fc35c",53,1
"5521",1,0,1001,1,2,1,"d0fc35c",54,1
"5621",1,1,315,5,5,1,"d0fc35c",55,1
"5721",0,1,392,3,1,1,"d0fc35c",56,1
"5821",1,1,760,2,2,1,"d0fc35c",57,1
"5921",0,0,514,4,4,1,"d0fc35c",58,1
"6021",1,1,519,1,1,1,"d0fc35c",59,1
"6125",0,1,298,1,4,1,"d0fc35c",60,1
"6223",1,1,528,6,6,1,"d0fc35c",61,1
"6321",0,1,451,1,5,1,"d0fc35c",62,1
"6421",1,0,652,1,2,1,"d0fc35c",63,1
"6521",1,1,408,5,5,1,"d0fc35c",64,1
"6621",1,0,587,1,6,1,"d0fc35c",65,1
"6721",1,1,291,3,3,1,"d0fc35c",66,1
"6821",1,0,669,1,2,1,"d0fc35c",67,1
"6921",1,1,779,3,3,1,"d0fc35c",68,1
"7021",0,0,333,2,2,1,"d0fc35c",69,1
"7125",0,1,997,5,1,1,"d0fc35c",70,1
"7222",0,1,330,1,4,1,"d0fc35c",71,1
"7321",0,1,444,6,1,1,"d0fc35c",72,1
"7421",1,1,790,5,5,1,"d0fc35c",73,1
"7521",-1,-1,0,6,6,1,"d0fc35c",74,1
"7621",1,0,506,3,1,1,"d0fc35c",75,1
"7721",1,1,331,4,4,1,"d0fc35c",76,1
"7821",1,1,453,1,1,1,"d0fc35c",77,1
"2106",1,1,293,6,6,0,"10608f0",1,1
"3106",1,1,238,1,1,0,"10608f0",2,1
"4106",0,1,281,1,4,0,"10608f0",3,1
"5106",1,0,212,1,2,0,"10608f0",4,1
"6106",1,1,328,5,5,0,"10608f0",5,1
"797",0,1,229,5,1,0,"10608f0",6,1
"822",1,1,133,2,2,0,"10608f0",7,1
"922",1,1,239,4,4,0,"10608f0",8,1
"1022",0,1,230,1,6,0,"10608f0",9,1
"1122",1,1,225,3,3,0,"10608f0",10,1
"1222",0,1,120,3,1,0,"10608f0",11,1
"1322",0,1,107,1,6,0,"10608f0",12,1
"1422",1,1,256,4,4,0,"10608f0",13,1
"1522",0,1,1305,1,5,0,"10608f0",14,1
"1622",1,1,292,1,1,0,"10608f0",15,1
"1722",1,1,231,3,3,0,"10608f0",16,1
"1822",1,0,195,1,2,0,"10608f0",17,1
"1922",1,1,144,2,2,0,"10608f0",18,1
"2022",0,1,201,4,1,0,"10608f0",19,1
"2126",1,1,229,5,5,0,"10608f0",20,1
"2224",1,1,245,6,6,0,"10608f0",21,1
"2322",0,1,255,1,3,0,"10608f0",22,1
"2422",0,1,232,1,5,0,"10608f0",23,1
"2522",1,1,115,4,4,0,"10608f0",24,1
"2622",1,1,246,2,2,0,"10608f0",25,1
"2722",0,1,461,1,3,0,"10608f0",26,1
"2822",0,0,150,5,5,0,"10608f0",27,1
"2922",1,0,185,1,2,0,"10608f0",28,1
"3022",1,1,232,6,6,0,"10608f0",29,1
"3126",1,1,222,1,1,0,"10608f0",30,1
"3224",1,1,80,3,3,0,"10608f0",31,1
"3322",0,1,230,4,1,0,"10608f0",32,1
"3422",0,1,201,1,6,0,"10608f0",33,1
"3522",1,1,249,4,4,0,"10608f0",34,1
"3622",1,1,199,5,5,0,"10608f0",35,1
"3722",0,1,144,6,1,0,"10608f0",36,1
"3822",0,1,112,1,3,0,"10608f0",37,1
"3922",1,0,217,1,4,0,"10608f0",38,1
"4022",1,1,198,3,3,0,"10608f0",39,1
"4126",1,1,165,2,2,0,"10608f0",40,1
"4224",1,1,180,6,6,0,"10608f0",41,1
"4322",0,1,118,5,1,0,"10608f0",42,1
"4422",1,1,307,1,1,0,"10608f0",43,1
"4522",1,0,228,2,1,0,"10608f0",44,1
"4622",0,1,45,1,3,0,"10608f0",45,1
"4722",0,1,196,1,5,0,"10608f0",46,1
"4822",1,1,154,1,1,0,"10608f0",47,1
"4922",0,1,131,6,1,0,"10608f0",48,1
"5022",1,1,206,3,3,0,"10608f0",49,1
"5126",1,1,167,5,5,0,"10608f0",50,1
"5224",0,1,126,1,4,0,"10608f0",51,1
"5322",1,1,308,6,6,0,"10608f0",52,1
"5422",1,1,234,2,2,0,"10608f0",53,1
"5522",0,1,105,2,1,0,"10608f0",54,1
"5622",1,1,242,4,4,0,"10608f0",55,1
"5722",1,1,254,2,2,0,"10608f0",56,1
"5822",1,1,232,3,3,0,"10608f0",57,1
"5922",1,1,261,5,5,0,"10608f0",58,1
"6022",0,1,55,3,1,0,"10608f0",59,1
"6126",0,1,105,4,1,0,"10608f0",60,1
"6224",0,0,108,4,4,0,"10608f0",61,1
"6322",1,1,254,6,6,0,"10608f0",62,1
"6422",0,1,136,6,1,0,"10608f0",63,1
"6522",1,1,239,1,1,0,"10608f0",64,1
"6622",1,0,193,2,1,0,"10608f0",65,1
"6722",0,1,182,5,1,0,"10608f0",66,1
"6822",1,1,160,6,6,0,"10608f0",67,1
"6922",1,1,178,5,5,0,"10608f0",68,1
"7022",0,1,76,3,1,0,"10608f0",69,1
"7126",1,1,222,2,2,0,"10608f0",70,1
"7223",0,1,227,1,5,0,"10608f0",71,1
"7322",1,1,250,4,4,0,"10608f0",72,1
"7422",0,1,173,1,4,0,"10608f0",73,1
"7522",1,1,225,1,1,0,"10608f0",74,1
"7622",1,1,246,3,3,0,"10608f0",75,1
"7722",1,0,97,2,1,0,"10608f0",76,1
"7822",0,1,105,1,6,0,"10608f0",77,1
"2107",1,1,259,1,1,0,"1b9b5cf",1,1
"3107",1,1,176,3,3,0,"1b9b5cf",2,1
"4107",1,1,116,5,5,0,"1b9b5cf",3,1
"5107",0,1,158,1,3,0,"1b9b5cf",4,1
"6107",1,1,234,2,2,0,"1b9b5cf",5,1
"798",0,1,286,5,1,0,"1b9b5cf",6,1
"823",0,1,253,1,2,0,"1b9b5cf",7,1
"923",1,1,291,4,4,0,"1b9b5cf",8,1
"1023",-1,-1,0,1,4,0,"1b9b5cf",9,1
"1123",0,1,1000,1,6,0,"1b9b5cf",10,1
"1223",1,1,119,6,6,0,"1b9b5cf",11,1
"1323",1,1,279,3,3,0,"1b9b5cf",12,1
"1423",1,1,10,4,4,0,"1b9b5cf",13,1
"1523",0,1,125,1,3,0,"1b9b5cf",14,1
"1623",1,1,23,1,1,0,"1b9b5cf",15,1
"1723",1,1,273,6,6,0,"1b9b5cf",16,1
"1823",0,1,279,1,6,0,"1b9b5cf",17,1
"1923",1,1,250,5,5,0,"1b9b5cf",18,1
"2023",1,1,188,2,2,0,"1b9b5cf",19,1
"2127",1,0,186,2,1,0,"1b9b5cf",20,1
"2225",0,1,259,1,5,0,"1b9b5cf",21,1
"2323",0,1,482,1,4,0,"1b9b5cf",22,1
"2423",1,1,112,6,6,0,"1b9b5cf",23,1
"2523",0,1,43,5,1,0,"1b9b5cf",24,1
"2623",1,1,451,3,3,0,"1b9b5cf",25,1
"2723",1,1,439,5,5,0,"1b9b5cf",26,1
"2823",1,0,255,1,2,0,"1b9b5cf",27,1
"2923",0,1,190,4,1,0,"1b9b5cf",28,1
"3023",0,1,77,3,1,0,"1b9b5cf",29,1
"3127",1,1,241,4,4,0,"1b9b5cf",30,1
"3225",1,1,409,2,2,0,"1b9b5cf",31,1
"3323",1,1,259,1,1,0,"1b9b5cf",32,1
"3423",0,1,144,1,6,0,"1b9b5cf",33,1
"3523",1,1,228,1,1,0,"1b9b5cf",34,1
"3623",1,1,285,6,6,0,"1b9b5cf",35,1
"3723",0,1,300,6,1,0,"1b9b5cf",36,1
"3823",1,1,59,3,3,0,"1b9b5cf",37,1
"3923",1,1,200,5,5,0,"1b9b5cf",38,1
"4023",0,1,113,3,1,0,"1b9b5cf",39,1
"4127",0,1,61,1,2,0,"1b9b5cf",40,1
"4225",0,1,19,4,1,0,"1b9b5cf",41,1
"4323",1,1,72,4,4,0,"1b9b5cf",42,1
"4423",0,1,289,5,1,0,"1b9b5cf",43,1
"4523",1,1,513,2,2,0,"1b9b5cf",44,1
"4623",1,1,126,4,4,0,"1b9b5cf",45,1
"4723",1,1,73,1,1,0,"1b9b5cf",46,1
"4823",0,1,10,4,1,0,"1b9b5cf",47,1
"4923",0,0,14,6,6,0,"1b9b5cf",48,1
"5023",0,1,306,5,1,0,"1b9b5cf",49,1
"5127",1,1,154,5,5,0,"1b9b5cf",50,1
"5225",0,1,27,1,3,0,"1b9b5cf",51,1
"5323",1,1,178,3,3,0,"1b9b5cf",52,1
"5423",0,1,24,1,6,0,"1b9b5cf",53,1
"5523",1,0,115,1,2,0,"1b9b5cf",54,1
"5623",0,0,109,2,2,0,"1b9b5cf",55,1
"5723",1,1,106,2,2,0,"1b9b5cf",56,1
"5823",1,1,114,3,3,0,"1b9b5cf",57,1
"5923",0,1,212,6,1,0,"1b9b5cf",58,1
"6023",1,1,348,6,6,0,"1b9b5cf",59,1
"6127",0,1,256,1,4,0,"1b9b5cf",60,1
"6225",1,1,269,1,1,0,"1b9b5cf",61,1
"6323",1,1,136,5,5,0,"1b9b5cf",62,1
"6423",1,0,159,2,1,0,"1b9b5cf",63,1
"6523",1,1,354,4,4,0,"1b9b5cf",64,1
"6623",0,1,175,1,3,0,"1b9b5cf",65,1
"6723",0,1,333,1,5,0,"1b9b5cf",66,1
"6823",1,1,262,2,2,0,"1b9b5cf",67,1
"6923",0,1,299,5,1,0,"1b9b5cf",68,1
"7023",0,1,360,6,1,0,"1b9b5cf",69,1
"7127",1,0,185,1,2,0,"1b9b5cf",70,1
"7224",1,1,277,6,6,0,"1b9b5cf",71,1
"7323",1,1,170,5,5,0,"1b9b5cf",72,1
"7423",0,1,268,4,1,0,"1b9b5cf",73,1
"7523",1,1,133,1,1,0,"1b9b5cf",74,1
"7623",1,1,236,4,4,0,"1b9b5cf",75,1
"7723",0,1,336,1,3,0,"1b9b5cf",76,1
"7823",1,1,409,3,3,0,"1b9b5cf",77,1
"2108",0,1,261,4,1,0,"1563fbc",1,1
"3108",0,1,304,1,2,0,"1563fbc",2,1
"4108",0,1,288,3,1,0,"1563fbc",3,1
"5108",1,1,233,1,1,0,"1563fbc",4,1
"6108",1,1,299,6,6,0,"1563fbc",5,1
"799",1,1,278,3,3,0,"1563fbc",6,1
"824",0,1,342,1,6,0,"1563fbc",7,1
"924",1,1,401,4,4,0,"1563fbc",8,1
"1024",0,1,279,5,1,0,"1563fbc",9,1
"1124",1,1,295,2,2,0,"1563fbc",10,1
"1224",1,1,383,5,5,0,"1563fbc",11,1
"1324",0,1,363,1,2,0,"1563fbc",12,1
"1424",1,1,398,5,5,0,"1563fbc",13,1
"1524",0,1,413,1,4,0,"1563fbc",14,1
"1624",1,1,291,1,1,0,"1563fbc",15,1
"1724",1,1,266,3,3,0,"1563fbc",16,1
"1824",0,1,231,1,6,0,"1563fbc",17,1
"1924",1,1,275,2,2,0,"1563fbc",18,1
"2024",1,1,270,4,4,0,"1563fbc",19,1
"2128",1,1,289,6,6,0,"1563fbc",20,1
"2226",0,1,504,1,3,0,"1563fbc",21,1
"2324",0,1,372,5,1,0,"1563fbc",22,1
"2424",0,1,304,3,1,0,"1563fbc",23,1
"2524",1,1,504,1,1,0,"1563fbc",24,1
"2624",0,1,329,1,4,0,"1563fbc",25,1
"2724",0,1,356,5,1,0,"1563fbc",26,1
"2824",1,1,370,5,5,0,"1563fbc",27,1
"2924",1,1,760,2,2,0,"1563fbc",28,1
"3024",1,1,286,4,4,0,"1563fbc",29,1
"3128",1,1,261,3,3,0,"1563fbc",30,1
"3226",0,1,319,1,2,0,"1563fbc",31,1
"3324",0,1,300,6,1,0,"1563fbc",32,1
"3424",1,1,257,6,6,0,"1563fbc",33,1
"3524",1,1,360,6,6,0,"1563fbc",34,1
"3624",1,1,611,3,3,0,"1563fbc",35,1
"3724",1,1,540,2,2,0,"1563fbc",36,1
"3824",0,1,307,1,4,0,"1563fbc",37,1
"3924",0,1,429,3,1,0,"1563fbc",38,1
"4024",1,1,314,5,5,0,"1563fbc",39,1
"4128",0,1,270,2,1,0,"1563fbc",40,1
"4226",0,1,510,1,5,0,"1563fbc",41,1
"4324",1,1,502,4,4,0,"1563fbc",42,1
"4424",1,1,378,1,1,0,"1563fbc",43,1
"4524",0,1,318,6,1,0,"1563fbc",44,1
"4624",1,1,340,5,5,0,"1563fbc",45,1
"4724",1,1,775,3,3,0,"1563fbc",46,1
"4824",0,1,384,5,1,0,"1563fbc",47,1
"4924",0,1,713,4,1,0,"1563fbc",48,1
"5024",0,1,338,1,3,0,"1563fbc",49,1
"5128",1,1,306,4,4,0,"1563fbc",50,1
"5226",0,1,281,6,1,0,"1563fbc",51,1
"5324",1,1,568,6,6,0,"1563fbc",52,1
"5424",1,1,303,1,1,0,"1563fbc",53,1
"5524",0,1,573,2,1,0,"1563fbc",54,1
"5624",1,1,191,2,2,0,"1563fbc",55,1
"5724",0,1,392,3,1,0,"1563fbc",56,1
"5824",1,1,277,5,5,0,"1563fbc",57,1
"5924",1,1,287,3,3,0,"1563fbc",58,1
"6024",0,1,350,2,1,0,"1563fbc",59,1
"6128",0,1,238,6,1,0,"1563fbc",60,1
"6226",0,1,287,1,5,0,"1563fbc",61,1
"6324",0,1,271,4,1,0,"1563fbc",62,1
"6424",1,1,188,2,2,0,"1563fbc",63,1
"6524",1,1,250,1,1,0,"1563fbc",64,1
"6624",1,1,295,4,4,0,"1563fbc",65,1
"6724",1,1,175,6,6,0,"1563fbc",66,1
"6824",1,1,286,1,1,0,"1563fbc",67,1
"6924",1,1,281,5,5,0,"1563fbc",68,1
"7024",0,1,232,1,6,0,"1563fbc",69,1
"7128",0,1,501,3,1,0,"1563fbc",70,1
"7225",0,1,287,1,5,0,"1563fbc",71,1
"7324",1,1,292,3,3,0,"1563fbc",72,1
"7424",1,1,231,2,2,0,"1563fbc",73,1
"7524",0,1,330,1,4,0,"1563fbc",74,1
"7624",0,1,305,1,2,0,"1563fbc",75,1
"7724",0,0,431,4,4,0,"1563fbc",76,1
"7824",1,1,350,6,6,0,"1563fbc",77,1
"2109",1,1,301,2,2,0,"1b83177",1,1
"3109",0,1,457,4,1,0,"1b83177",2,1
"4109",0,0,300,1,1,0,"1b83177",3,1
"5109",1,1,265,5,5,0,"1b83177",4,1
"6109",0,1,365,1,5,0,"1b83177",5,1
"7100",0,1,347,3,1,0,"1b83177",6,1
"825",1,1,524,6,6,0,"1b83177",7,1
"925",1,1,362,3,3,0,"1b83177",8,1
"1025",0,1,280,1,2,0,"1b83177",9,1
"1125",0,1,487,6,1,0,"1b83177",10,1
"1225",1,1,483,4,4,0,"1b83177",11,1
"1325",0,1,321,3,1,0,"1b83177",12,1
"1425",0,1,417,1,5,0,"1b83177",13,1
"1525",1,1,385,2,2,0,"1b83177",14,1
"1625",1,1,370,3,3,0,"1b83177",15,1
"1725",0,1,401,2,1,0,"1b83177",16,1
"1825",1,1,546,4,4,0,"1b83177",17,1
"1925",1,1,463,6,6,0,"1b83177",18,1
"2025",1,1,316,5,5,0,"1b83177",19,1
"2129",1,1,331,1,1,0,"1b83177",20,1
"2227",0,1,477,6,1,0,"1b83177",21,1
"2325",0,1,445,4,1,0,"1b83177",22,1
"2425",0,1,304,4,1,0,"1b83177",23,1
"2525",0,1,303,1,3,0,"1b83177",24,1
"2625",1,1,336,6,6,0,"1b83177",25,1
"2725",1,1,432,5,5,0,"1b83177",26,1
"2825",0,1,287,2,1,0,"1b83177",27,1
"2925",1,1,332,1,1,0,"1b83177",28,1
"3025",1,1,432,4,4,0,"1b83177",29,1
"3129",1,1,460,2,2,0,"1b83177",30,1
"3227",0,1,380,6,1,0,"1b83177",31,1
"3325",1,1,588,3,3,0,"1b83177",32,1
"3425",0,1,459,1,5,0,"1b83177",33,1
"3525",1,1,477,1,1,0,"1b83177",34,1
"3625",1,1,1134,3,3,0,"1b83177",35,1
"3725",1,1,380,6,6,0,"1b83177",36,1
"3825",0,1,366,1,3,0,"1b83177",37,1
"3925",1,0,317,2,1,0,"1b83177",38,1
"4025",0,1,417,6,1,0,"1b83177",39,1
"4129",0,1,446,5,1,0,"1b83177",40,1
"4227",1,1,386,4,4,0,"1b83177",41,1
"4325",1,1,448,2,2,0,"1b83177",42,1
"4425",0,1,499,1,4,0,"1b83177",43,1
"4525",1,1,382,5,5,0,"1b83177",44,1
"4625",0,1,350,2,1,0,"1b83177",45,1
"4725",1,1,397,6,6,0,"1b83177",46,1
"4825",1,1,335,3,3,0,"1b83177",47,1
"4925",1,1,250,5,5,0,"1b83177",48,1
"5025",1,1,380,1,1,0,"1b83177",49,1
"5129",0,1,410,1,5,0,"1b83177",50,1
"5227",0,1,410,4,1,0,"1b83177",51,1
"5325",1,1,598,4,4,0,"1b83177",52,1
"5425",1,1,488,2,2,0,"1b83177",53,1
"5525",0,1,292,3,1,0,"1b83177",54,1
"5625",0,1,341,6,1,0,"1b83177",55,1
"5725",0,1,356,1,3,0,"1b83177",56,1
"5825",1,1,458,3,3,0,"1b83177",57,1
"5925",0,1,622,1,5,0,"1b83177",58,1
"6025",1,1,479,5,5,0,"1b83177",59,1
"6129",0,1,398,1,4,0,"1b83177",60,1
"6227",0,1,398,1,2,0,"1b83177",61,1
"6325",0,1,521,1,6,0,"1b83177",62,1
"6425",1,1,298,1,1,0,"1b83177",63,1
"6525",1,1,360,6,6,0,"1b83177",64,1
"6625",1,1,322,2,2,0,"1b83177",65,1
"6725",1,1,324,4,4,0,"1b83177",66,1
"6825",1,1,324,6,6,0,"1b83177",67,1
"6925",1,1,416,4,4,0,"1b83177",68,1
"7025",0,1,411,1,5,0,"1b83177",69,1
"7129",0,1,418,1,3,0,"1b83177",70,1
"7226",1,1,512,3,3,0,"1b83177",71,1
"7325",0,1,376,1,2,0,"1b83177",72,1
"7425",0,1,816,1,4,0,"1b83177",73,1
"7525",1,1,331,2,2,0,"1b83177",74,1
"7625",0,1,587,6,1,0,"1b83177",75,1
"7725",1,1,430,1,1,0,"1b83177",76,1
"7825",1,1,514,5,5,0,"1b83177",77,1
"2130",1,1,622,3,3,1,"f9941d4",1,1
"3130",1,1,243,6,6,1,"f9941d4",2,1
"4130",0,1,296,4,1,1,"f9941d4",3,1
"5130",1,1,252,2,2,1,"f9941d4",4,1
"6130",1,1,205,4,4,1,"f9941d4",5,1
"7101",0,1,9,6,1,1,"f9941d4",6,1
"826",1,1,92,5,5,1,"f9941d4",7,1
"926",0,1,342,2,1,1,"f9941d4",8,1
"1026",1,1,176,1,1,1,"f9941d4",9,1
"1126",0,1,27,3,1,1,"f9941d4",10,1
"1226",0,1,131,1,5,1,"f9941d4",11,1
"1326",1,1,437,4,4,1,"f9941d4",12,1
"1426",0,1,200,4,1,1,"f9941d4",13,1
"1526",1,1,192,2,2,1,"f9941d4",14,1
"1626",0,1,230,2,1,1,"f9941d4",15,1
"1726",1,1,332,1,1,1,"f9941d4",16,1
"1826",0,1,245,5,1,1,"f9941d4",17,1
"1926",1,1,205,5,5,1,"f9941d4",18,1
"2026",1,1,68,6,6,1,"f9941d4",19,1
"2131",1,1,234,3,3,1,"f9941d4",20,1
"2228",0,1,420,1,3,1,"f9941d4",21,1
"2326",0,1,225,6,1,1,"f9941d4",22,1
"2426",1,1,216,1,1,1,"f9941d4",23,1
"2526",1,1,266,4,4,1,"f9941d4",24,1
"2626",0,1,425,1,6,1,"f9941d4",25,1
"2726",1,1,254,5,5,1,"f9941d4",26,1
"2826",1,1,153,3,3,1,"f9941d4",27,1
"2926",0,1,203,1,5,1,"f9941d4",28,1
"3026",0,1,275,3,1,1,"f9941d4",29,1
"3131",1,1,275,6,6,1,"f9941d4",30,1
"3228",1,1,227,2,2,1,"f9941d4",31,1
"3326",0,1,187,4,1,1,"f9941d4",32,1
"3426",0,1,279,1,2,1,"f9941d4",33,1
"3526",1,1,215,3,3,1,"f9941d4",34,1
"3626",1,1,258,6,6,1,"f9941d4",35,1
"3726",1,1,349,4,4,1,"f9941d4",36,1
"3826",0,1,279,3,1,1,"f9941d4",37,1
"3926",1,1,372,1,1,1,"f9941d4",38,1
"4026",0,1,359,1,6,1,"f9941d4",39,1
"4131",0,1,221,2,1,1,"f9941d4",40,1
"4228",1,1,273,2,2,1,"f9941d4",41,1
"4326",0,1,266,5,1,1,"f9941d4",42,1
"4426",1,1,511,5,5,1,"f9941d4",43,1
"4526",0,1,29,1,4,1,"f9941d4",44,1
"4626",0,1,384,1,2,1,"f9941d4",45,1
"4726",0,1,296,1,3,1,"f9941d4",46,1
"4826",1,1,278,4,4,1,"f9941d4",47,1
"4926",0,1,358,4,1,1,"f9941d4",48,1
"5026",1,1,264,6,6,1,"f9941d4",49,1
"5131",1,1,799,3,3,1,"f9941d4",50,1
"5228",1,1,328,2,2,1,"f9941d4",51,1
"5326",1,1,283,1,1,1,"f9941d4",52,1
"5426",0,1,316,1,5,1,"f9941d4",53,1
"5526",0,1,398,1,6,1,"f9941d4",54,1
"5626",1,1,426,5,5,1,"f9941d4",55,1
"5726",1,1,243,2,2,1,"f9941d4",56,1
"5826",0,1,234,1,6,1,"f9941d4",57,1
"5926",0,1,326,4,1,1,"f9941d4",58,1
"6026",1,1,211,1,1,1,"f9941d4",59,1
"6131",1,1,371,6,6,1,"f9941d4",60,1
"6228",1,1,36,3,3,1,"f9941d4",61,1
"6326",0,1,262,5,1,1,"f9941d4",62,1
"6426",1,1,155,4,4,1,"f9941d4",63,1
"6526",1,1,52,5,5,1,"f9941d4",64,1
"6626",0,1,178,1,3,1,"f9941d4",65,1
"6726",0,1,97,1,2,1,"f9941d4",66,1
"6826",1,1,223,5,5,1,"f9941d4",67,1
"6926",1,1,240,3,3,1,"f9941d4",68,1
"7026",0,1,234,2,1,1,"f9941d4",69,1
"7130",1,1,260,2,2,1,"f9941d4",70,1
"7227",0,1,250,3,1,1,"f9941d4",71,1
"7326",1,1,395,6,6,1,"f9941d4",72,1
"7426",1,1,335,4,4,1,"f9941d4",73,1
"7526",1,1,247,1,1,1,"f9941d4",74,1
"7626",0,1,293,1,6,1,"f9941d4",75,1
"7726",0,1,374,4,1,1,"f9941d4",76,1
"7826",0,1,198,5,1,1,"f9941d4",77,1
"2132",1,1,216,6,6,3,"10a7c78",1,1
"3132",0,0,211,5,5,3,"10a7c78",2,1
"4132",0,1,237,1,4,3,"10a7c78",3,1
"5132",1,1,212,2,2,3,"10a7c78",4,1
"6132",1,1,175,4,4,3,"10a7c78",5,1
"7102",1,1,189,3,3,3,"10a7c78",6,1
"827",1,1,301,1,1,3,"10a7c78",7,1
"927",0,1,77,2,1,3,"10a7c78",8,1
"1027",0,1,192,3,1,3,"10a7c78",9,1
"1127",0,1,197,6,1,3,"10a7c78",10,1
"1227",0,1,186,1,5,3,"10a7c78",11,1
"1327",1,1,210,1,1,3,"10a7c78",12,1
"1427",0,1,272,1,6,3,"10a7c78",13,1
"1527",0,1,166,1,2,3,"10a7c78",14,1
"1627",1,1,317,6,6,3,"10a7c78",15,1
"1727",1,1,300,2,2,3,"10a7c78",16,1
"1827",1,1,193,4,4,3,"10a7c78",17,1
"1927",0,1,209,1,5,3,"10a7c78",18,1
"2027",0,1,247,1,4,3,"10a7c78",19,1
"2133",0,1,274,1,3,3,"10a7c78",20,1
"2229",1,1,254,3,3,3,"10a7c78",21,1
"2327",1,1,1281,5,5,3,"10a7c78",22,1
"2427",0,1,213,1,6,3,"10a7c78",23,1
"2527",1,1,326,2,2,3,"10a7c78",24,1
"2627",1,1,212,6,6,3,"10a7c78",25,1
"2727",1,1,314,5,5,3,"10a7c78",26,1
"2827",1,1,251,4,4,3,"10a7c78",27,1
"2927",0,1,232,1,4,3,"10a7c78",28,1
"3027",1,1,1666,1,1,3,"10a7c78",29,1
"3133",0,1,252,1,2,3,"10a7c78",30,1
"3229",0,1,227,5,1,3,"10a7c78",31,1
"3327",1,1,215,3,3,3,"10a7c78",32,1
"3427",0,1,207,1,3,3,"10a7c78",33,1
"3527",1,1,11,2,2,3,"10a7c78",34,1
"3627",1,1,207,3,3,3,"10a7c78",35,1
"3727",1,1,228,4,4,3,"10a7c78",36,1
"3827",0,1,328,1,6,3,"10a7c78",37,1
"3927",0,1,242,1,3,3,"10a7c78",38,1
"4027",0,1,170,5,1,3,"10a7c78",39,1
"4133",1,1,206,1,1,3,"10a7c78",40,1
"4229",1,1,216,5,5,3,"10a7c78",41,1
"4327",0,1,213,1,4,3,"10a7c78",42,1
"4427",0,1,228,1,2,3,"10a7c78",43,1
"4527",1,1,222,6,6,3,"10a7c78",44,1
"4627",1,1,790,3,3,3,"10a7c78",45,1
"4727",0,1,255,1,5,3,"10a7c78",46,1
"4827",1,1,185,4,4,3,"10a7c78",47,1
"4927",0,1,290,1,6,3,"10a7c78",48,1
"5027",1,1,19,2,2,3,"10a7c78",49,1
"5133",0,1,198,1,2,3,"10a7c78",50,1
"5229",1,1,214,5,5,3,"10a7c78",51,1
"5327",1,1,210,1,1,3,"10a7c78",52,1
"5427",1,1,327,6,6,3,"10a7c78",53,1
"5527",0,1,304,3,1,3,"10a7c78",54,1
"5627",0,1,201,1,4,3,"10a7c78",55,1
"5727",1,1,473,4,4,3,"10a7c78",56,1
"5827",0,1,210,2,1,3,"10a7c78",57,1
"5927",1,1,96,5,5,3,"10a7c78",58,1
"6027",1,1,199,3,3,3,"10a7c78",59,1
"6133",0,1,260,4,1,3,"10a7c78",60,1
"6229",0,1,214,5,1,3,"10a7c78",61,1
"6327",0,1,248,6,1,3,"10a7c78",62,1
"6427",1,1,197,6,6,3,"10a7c78",63,1
"6527",1,1,336,2,2,3,"10a7c78",64,1
"6627",1,1,233,1,1,3,"10a7c78",65,1
"6727",0,1,108,3,1,3,"10a7c78",66,1
"6827",0,1,122,3,1,3,"10a7c78",67,1
"6927",0,1,909,1,2,3,"10a7c78",68,1
"7027",0,1,170,1,4,3,"10a7c78",69,1
"7131",0,1,117,5,1,3,"10a7c78",70,1
"7228",1,1,62,5,5,3,"10a7c78",71,1
"7327",1,1,212,3,3,3,"10a7c78",72,1
"7427",0,1,227,6,1,3,"10a7c78",73,1
"7527",1,1,197,1,1,3,"10a7c78",74,1
"7627",1,1,274,2,2,3,"10a7c78",75,1
"7727",1,1,201,6,6,3,"10a7c78",76,1
"7827",1,1,232,4,4,3,"10a7c78",77,1
"2134",1,0,286,1,5,3,"1e506ec",1,1
"3134",1,1,224,6,6,3,"1e506ec",2,1
"4134",1,1,70,2,2,3,"1e506ec",3,1
"5134",1,0,126,1,4,3,"1e506ec",4,1
"6134",1,1,179,1,1,3,"1e506ec",5,1
"7103",1,0,57,1,6,3,"1e506ec",6,1
"828",1,1,110,5,5,3,"1e506ec",7,1
"928",1,1,92,3,3,3,"1e506ec",8,1
"1028",1,0,222,1,2,3,"1e506ec",9,1
"1128",1,1,83,4,4,3,"1e506ec",10,1
"1228",0,1,1758,1,3,3,"1e506ec",11,1
"1328",0,1,242,3,1,3,"1e506ec",12,1
"1428",0,1,380,5,1,3,"1e506ec",13,1
"1528",1,1,284,3,3,3,"1e506ec",14,1
"1628",0,1,485,4,1,3,"1e506ec",15,1
"1728",1,1,301,6,6,3,"1e506ec",16,1
"1828",0,1,205,2,1,3,"1e506ec",17,1
"1928",0,1,200,1,6,3,"1e506ec",18,1
"2028",1,1,300,5,5,3,"1e506ec",19,1
"2135",1,1,288,2,2,3,"1e506ec",20,1
"2230",1,1,315,4,4,3,"1e506ec",21,1
"2328",1,1,266,1,1,3,"1e506ec",22,1
"2428",1,1,407,4,4,3,"1e506ec",23,1
"2528",1,1,349,2,2,3,"1e506ec",24,1
"2628",1,1,329,3,3,3,"1e506ec",25,1
"2728",0,1,266,1,4,3,"1e506ec",26,1
"2828",1,1,297,5,5,3,"1e506ec",27,1
"2928",1,1,250,6,6,3,"1e506ec",28,1
"3028",1,1,379,1,1,3,"1e506ec",29,1
"3135",0,1,269,1,3,3,"1e506ec",30,1
"3230",0,1,293,1,2,3,"1e506ec",31,1
"3328",0,1,121,1,5,3,"1e506ec",32,1
"3428",0,1,393,6,1,3,"1e506ec",33,1
"3528",1,1,285,2,2,3,"1e506ec",34,1
"3628",0,1,297,1,5,3,"1e506ec",35,1
"3728",1,1,282,6,6,3,"1e506ec",36,1
"3828",0,1,299,1,3,3,"1e506ec",37,1
"3928",1,1,283,4,4,3,"1e506ec",38,1
"4028",1,1,120,3,3,3,"1e506ec",39,1
"4135",0,1,216,2,1,3,"1e506ec",40,1
"4230",0,1,242,1,6,3,"1e506ec",41,1
"4328",1,1,282,1,1,3,"1e506ec",42,1
"4428",0,1,371,1,4,3,"1e506ec",43,1
"4528",1,1,149,5,5,3,"1e506ec",44,1
"4628",1,1,232,6,6,3,"1e506ec",45,1
"4728",1,1,167,4,4,3,"1e506ec",46,1
"4828",0,1,208,1,5,3,"1e506ec",47,1
"4928",0,1,384,1,3,3,"1e506ec",48,1
"5028",1,1,126,2,2,3,"1e506ec",49,1
"5135",0,1,89,2,1,3,"1e506ec",50,1
"5230",1,1,138,3,3,3,"1e506ec",51,1
"5328",1,1,250,5,5,3,"1e506ec",52,1
"5428",0,1,270,1,6,3,"1e506ec",53,1
"5528",1,1,589,1,1,3,"1e506ec",54,1
"5628",0,1,226,1,4,3,"1e506ec",55,1
"5728",0,1,222,1,2,3,"1e506ec",56,1
"5828",1,1,278,1,1,3,"1e506ec",57,1
"5928",0,1,174,5,1,3,"1e506ec",58,1
"6028",1,1,88,4,4,3,"1e506ec",59,1
"6135",1,1,348,6,6,3,"1e506ec",60,1
"6230",1,1,306,3,3,3,"1e506ec",61,1
"6328",0,1,242,1,3,3,"1e506ec",62,1
"6428",0,1,266,6,1,3,"1e506ec",63,1
"6528",1,1,134,2,2,3,"1e506ec",64,1
"6628",1,1,274,5,5,3,"1e506ec",65,1
"6728",0,1,326,1,4,3,"1e506ec",66,1
"6828",0,1,286,4,1,3,"1e506ec",67,1
"6928",1,1,279,1,1,3,"1e506ec",68,1
"7028",1,1,154,5,5,3,"1e506ec",69,1
"7132",1,1,128,6,6,3,"1e506ec",70,1
"7229",0,1,323,1,5,3,"1e506ec",71,1
"7328",1,1,351,3,3,3,"1e506ec",72,1
"7428",0,1,328,2,1,3,"1e506ec",73,1
"7528",0,1,268,3,1,3,"1e506ec",74,1
"7628",0,1,293,6,1,3,"1e506ec",75,1
"7728",1,1,238,2,2,3,"1e506ec",76,1
"7828",1,1,473,4,4,3,"1e506ec",77,1
"2136",1,1,604,3,3,2,"19f91cd",1,1
"3136",0,0,279,5,5,2,"19f91cd",2,1
"4136",1,1,321,2,2,2,"19f91cd",3,1
"5136",0,1,315,6,1,2,"19f91cd",4,1
"6136",0,1,303,4,1,2,"19f91cd",5,1
"7104",0,1,357,3,1,2,"19f91cd",6,1
"829",0,1,450,1,2,2,"19f91cd",7,1
"929",1,1,266,4,4,2,"19f91cd",8,1
"1029",0,1,282,1,5,2,"19f91cd",9,1
"1129",1,1,271,6,6,2,"19f91cd",10,1
"1229",1,1,286,1,1,2,"19f91cd",11,1
"1329",1,1,429,2,2,2,"19f91cd",12,1
"1429",1,1,796,5,5,2,"19f91cd",13,1
"1529",0,1,363,1,4,2,"19f91cd",14,1
"1629",1,1,258,6,6,2,"19f91cd",15,1
"1729",1,1,280,4,4,2,"19f91cd",16,1
"1829",0,1,223,1,3,2,"19f91cd",17,1
"1929",1,1,555,3,3,2,"19f91cd",18,1
"2029",0,1,290,5,1,2,"19f91cd",19,1
"2137",0,0,708,1,1,2,"19f91cd",20,1
"2231",0,1,271,1,2,2,"19f91cd",21,1
"2329",0,1,494,6,1,2,"19f91cd",22,1
"2429",1,1,547,2,2,2,"19f91cd",23,1
"2529",-1,-1,0,1,5,2,"19f91cd",24,1
"2629",0,1,534,1,3,2,"19f91cd",25,1
"2729",0,1,266,1,2,2,"19f91cd",26,1
"2829",1,1,364,5,5,2,"19f91cd",27,1
"2929",1,1,259,3,3,2,"19f91cd",28,1
"3029",1,1,1470,6,6,2,"19f91cd",29,1
"3137",0,1,491,1,6,2,"19f91cd",30,1
"3231",1,1,466,1,1,2,"19f91cd",31,1
"3329",1,1,304,4,4,2,"19f91cd",32,1
"3429",0,1,222,1,4,2,"19f91cd",33,1
"3529",0,1,763,1,2,2,"19f91cd",34,1
"3629",1,1,298,1,1,2,"19f91cd",35,1
"3729",0,1,283,1,3,2,"19f91cd",36,1
"3829",0,1,255,4,1,2,"19f91cd",37,1
"3929",1,1,252,6,6,2,"19f91cd",38,1
"4029",1,1,292,4,4,2,"19f91cd",39,1
"4137",0,1,304,1,5,2,"19f91cd",40,1
"4231",1,1,82,3,3,2,"19f91cd",41,1
"4329",0,1,269,1,6,2,"19f91cd",42,1
"4429",1,1,313,5,5,2,"19f91cd",43,1
"4529",1,1,303,2,2,2,"19f91cd",44,1
"4629",1,1,273,6,6,2,"19f91cd",45,1
"4729",0,1,251,1,3,2,"19f91cd",46,1
"4829",1,0,309,2,1,2,"19f91cd",47,1
"4929",0,1,32,1,4,2,"19f91cd",48,1
"5029",0,0,518,2,2,2,"19f91cd",49,1
"5137",1,1,394,5,5,2,"19f91cd",50,1
"5231",1,1,266,3,3,2,"19f91cd",51,1
"5329",0,1,173,1,5,2,"19f91cd",52,1
"5429",1,1,515,4,4,2,"19f91cd",53,1
"5529",0,1,265,6,1,2,"19f91cd",54,1
"5629",1,1,274,1,1,2,"19f91cd",55,1
"5729",0,1,264,5,1,2,"19f91cd",56,1
"5829",1,1,65,1,1,2,"19f91cd",57,1
"5929",1,1,260,3,3,2,"19f91cd",58,1
"6029",-1,-1,0,6,6,2,"19f91cd",59,1
"6137",0,1,249,3,1,2,"19f91cd",60,1
"6231",1,1,281,2,2,2,"19f91cd",61,1
"6329",-1,-1,0,6,1,2,"19f91cd",62,1
"6429",-1,-1,0,5,5,2,"19f91cd",63,1
"6529",1,0,611,4,1,2,"19f91cd",64,1
"6629",1,1,264,4,4,2,"19f91cd",65,1
"6729",1,0,373,1,2,2,"19f91cd",66,1
"6829",1,1,290,5,5,2,"19f91cd",67,1
"6929",0,1,434,2,1,2,"19f91cd",68,1
"7029",0,1,295,4,1,2,"19f91cd",69,1
"7133",0,1,870,1,3,2,"19f91cd",70,1
"7230",0,1,505,6,1,2,"19f91cd",71,1
"7329",1,1,457,4,4,2,"19f91cd",72,1
"7429",0,0,1006,6,6,2,"19f91cd",73,1
"7529",1,1,333,2,2,2,"19f91cd",74,1
"7629",1,1,293,1,1,2,"19f91cd",75,1
"7729",1,1,295,3,3,2,"19f91cd",76,1
"7829",0,1,248,5,1,2,"19f91cd",77,1
"2138",0,1,296,4,1,1,"105a8b2",1,1
"3138",1,1,310,1,1,1,"105a8b2",2,1
"4138",0,1,315,5,1,1,"105a8b2",3,1
"5138",1,1,369,5,5,1,"105a8b2",4,1
"6138",0,1,326,6,1,1,"105a8b2",5,1
"7105",0,1,285,1,2,1,"105a8b2",6,1
"830",1,1,320,2,2,1,"105a8b2",7,1
"930",1,1,298,4,4,1,"105a8b2",8,1
"1030",1,1,311,3,3,1,"105a8b2",9,1
"1130",1,1,242,6,6,1,"105a8b2",10,1
"1230",0,1,209,1,3,1,"105a8b2",11,1
"1330",0,1,194,1,6,1,"105a8b2",12,1
"1430",0,1,143,1,3,1,"105a8b2",13,1
"1530",0,1,311,1,2,1,"105a8b2",14,1
"1630",1,1,266,2,2,1,"105a8b2",15,1
"1730",1,1,310,6,6,1,"105a8b2",16,1
"1830",0,1,380,1,4,1,"105a8b2",17,1
"1930",1,1,617,1,1,1,"105a8b2",18,1
"2030",1,1,667,3,3,1,"105a8b2",19,1
"2139",1,1,399,4,4,1,"105a8b2",20,1
"2232",1,1,378,5,5,1,"105a8b2",21,1
"2330",0,1,348,1,5,1,"105a8b2",22,1
"2430",1,1,299,1,1,1,"105a8b2",23,1
"2530",0,1,812,1,6,1,"105a8b2",24,1
"2630",1,1,335,3,3,1,"105a8b2",25,1
"2730",0,1,377,1,5,1,"105a8b2",26,1
"2830",1,1,159,2,2,1,"105a8b2",27,1
"2930",1,1,296,5,5,1,"105a8b2",28,1
"3030",0,1,335,4,1,1,"105a8b2",29,1
"3139",0,1,236,1,3,1,"105a8b2",30,1
"3232",0,1,253,2,1,1,"105a8b2",31,1
"3330",1,1,326,4,4,1,"105a8b2",32,1
"3430",1,1,286,6,6,1,"105a8b2",33,1
"3530",1,1,284,3,3,1,"105a8b2",34,1
"3630",1,1,247,2,2,1,"105a8b2",35,1
"3730",0,1,79,5,1,1,"105a8b2",36,1
"3830",1,1,352,4,4,1,"105a8b2",37,1
"3930",0,1,294,6,1,1,"105a8b2",38,1
"4030",1,1,446,6,6,1,"105a8b2",39,1
"4139",1,1,302,5,5,1,"105a8b2",40,1
"4232",1,0,324,2,1,1,"105a8b2",41,1
"4330",0,1,292,4,1,1,"105a8b2",42,1
"4430",1,1,327,1,1,1,"105a8b2",43,1
"4530",0,1,328,1,3,1,"105a8b2",44,1
"4630",1,0,283,1,2,1,"105a8b2",45,1
"4730",1,1,319,2,2,1,"105a8b2",46,1
"4830",1,1,937,3,3,1,"105a8b2",47,1
"4930",0,1,322,3,1,1,"105a8b2",48,1
"5030",0,1,324,4,1,1,"105a8b2",49,1
"5139",0,1,334,5,1,1,"105a8b2",50,1
"5232",1,1,472,5,5,1,"105a8b2",51,1
"5330",1,1,307,4,4,1,"105a8b2",52,1
"5430",0,1,310,6,1,1,"105a8b2",53,1
"5530",1,1,276,6,6,1,"105a8b2",54,1
"5630",1,1,290,1,1,1,"105a8b2",55,1
"5730",0,1,337,1,3,1,"105a8b2",56,1
"5830",1,1,365,3,3,1,"105a8b2",57,1
"5930",0,1,474,1,6,1,"105a8b2",58,1
"6030",0,1,355,1,5,1,"105a8b2",59,1
"6139",1,1,364,6,6,1,"105a8b2",60,1
"6232",1,1,275,4,4,1,"105a8b2",61,1
"6330",1,1,372,2,2,1,"105a8b2",62,1
"6430",1,1,446,5,5,1,"105a8b2",63,1
"6530",0,1,1337,2,1,1,"105a8b2",64,1
"6630",0,1,887,1,4,1,"105a8b2",65,1
"6730",1,1,373,1,1,1,"105a8b2",66,1
"6830",0,1,405,1,4,1,"105a8b2",67,1
"6930",1,1,397,6,6,1,"105a8b2",68,1
"7030",1,1,278,3,3,1,"105a8b2",69,1
"7134",0,1,343,1,5,1,"105a8b2",70,1
"7231",0,1,342,6,1,1,"105a8b2",71,1
"7330",1,1,287,2,2,1,"105a8b2",72,1
"7430",1,1,284,5,5,1,"105a8b2",73,1
"7530",1,0,1525,3,1,1,"105a8b2",74,1
"7630",1,1,264,1,1,1,"105a8b2",75,1
"7730",1,1,339,4,4,1,"105a8b2",76,1
"7830",1,0,261,2,1,1,"105a8b2",77,1
"2140",0,1,329,3,1,0,"151240e",1,1
"3140",0,1,248,5,1,0,"151240e",2,1
"4140",1,1,372,1,1,0,"151240e",3,1
"5140",1,1,492,3,3,0,"151240e",4,1
"6140",0,1,506,1,6,0,"151240e",5,1
"7106",1,1,289,5,5,0,"151240e",6,1
"831",1,1,298,2,2,0,"151240e",7,1
"931",0,1,297,1,4,0,"151240e",8,1
"1031",0,1,281,2,1,0,"151240e",9,1
"1131",1,1,276,4,4,0,"151240e",10,1
"1231",1,1,312,6,6,0,"151240e",11,1
"1331",0,1,301,1,3,0,"151240e",12,1
"1431",0,1,284,4,1,0,"151240e",13,1
"1531",0,1,314,5,1,0,"151240e",14,1
"1631",1,1,294,4,4,0,"151240e",15,1
"1731",1,1,373,6,6,0,"151240e",16,1
"1831",1,1,322,3,3,0,"151240e",17,1
"1931",1,1,388,2,2,0,"151240e",18,1
"2031",1,1,315,5,5,0,"151240e",19,1
"2141",1,1,323,1,1,0,"151240e",20,1
"2233",0,1,443,1,6,0,"151240e",21,1
"2331",0,1,372,2,1,0,"151240e",22,1
"2431",0,1,294,1,5,0,"151240e",23,1
"2531",1,1,280,1,1,0,"151240e",24,1
"2631",0,1,327,2,1,0,"151240e",25,1
"2731",0,1,487,6,1,0,"151240e",26,1
"2831",1,1,332,6,6,0,"151240e",27,1
"2931",1,1,314,3,3,0,"151240e",28,1
"3031",0,1,292,1,4,0,"151240e",29,1
"3141",1,1,302,2,2,0,"151240e",30,1
"3233",1,1,300,4,4,0,"151240e",31,1
"3331",1,1,294,5,5,0,"151240e",32,1
"3431",0,1,365,3,1,0,"151240e",33,1
"3531",0,1,276,5,1,0,"151240e",34,1
"3631",1,1,491,3,3,0,"151240e",35,1
"3731",1,1,336,4,4,0,"151240e",36,1
"3831",1,1,446,2,2,0,"151240e",37,1
"3931",0,1,286,1,4,0,"151240e",38,1
"4031",0,1,303,2,1,0,"151240e",39,1
"4141",0,1,308,1,3,0,"151240e",40,1
"4233",1,1,318,5,5,0,"151240e",41,1
"4331",1,1,362,6,6,0,"151240e",42,1
"4431",1,1,415,1,1,0,"151240e",43,1
"4531",0,1,272,1,6,0,"151240e",44,1
"4631",1,1,326,5,5,0,"151240e",45,1
"4731",0,1,535,1,4,0,"151240e",46,1
"4831",1,1,455,4,4,0,"151240e",47,1
"4931",1,1,347,6,6,0,"151240e",48,1
"5031",1,1,529,2,2,0,"151240e",49,1
"5141",0,1,331,1,6,0,"151240e",50,1
"5233",1,1,445,1,1,0,"151240e",51,1
"5331",0,1,375,1,5,0,"151240e",52,1
"5431",0,1,366,3,1,0,"151240e",53,1
"5531",0,1,376,2,1,0,"151240e",54,1
"5631",1,1,336,3,3,0,"151240e",55,1
"5731",1,1,399,2,2,0,"151240e",56,1
"5831",1,1,398,5,5,0,"151240e",57,1
"5931",0,1,379,4,1,0,"151240e",58,1
"6031",1,1,317,3,3,0,"151240e",59,1
"6141",0,1,432,1,5,0,"151240e",60,1
"6233",1,1,319,6,6,0,"151240e",61,1
"6331",0,1,296,2,1,0,"151240e",62,1
"6431",0,1,311,6,1,0,"151240e",63,1
"6531",0,1,333,3,1,0,"151240e",64,1
"6631",1,1,310,1,1,0,"151240e",65,1
"6731",1,1,287,4,4,0,"151240e",66,1
"6831",0,1,316,6,1,0,"151240e",67,1
"6931",1,1,399,3,3,0,"151240e",68,1
"7031",0,1,281,1,4,0,"151240e",69,1
"7135",1,1,452,5,5,0,"151240e",70,1
"7232",0,1,297,2,1,0,"151240e",71,1
"7331",0,1,344,5,1,0,"151240e",72,1
"7431",1,1,303,1,1,0,"151240e",73,1
"7531",1,1,345,6,6,0,"151240e",74,1
"7631",1,1,317,4,4,0,"151240e",75,1
"7731",0,1,346,1,3,0,"151240e",76,1
"7831",1,1,534,2,2,0,"151240e",77,1
"2142",1,1,298,5,5,3,"edd2cf1",1,2
"3142",0,1,935,2,1,3,"edd2cf1",2,2
"4142",1,1,55,1,1,3,"edd2cf1",3,2
"5142",1,0,1123,1,4,3,"edd2cf1",4,2
"6142",1,1,213,3,3,3,"edd2cf1",5,2
"7107",1,1,743,4,4,3,"edd2cf1",6,2
"832",0,1,231,1,6,3,"edd2cf1",7,2
"932",1,1,274,6,6,3,"edd2cf1",8,2
"1032",0,1,315,5,1,3,"edd2cf1",9,2
"1132",1,0,317,1,3,3,"edd2cf1",10,2
"1232",1,1,150,2,2,3,"edd2cf1",11,2
"1332",1,0,228,1,2,3,"edd2cf1",12,2
"1432",1,1,173,4,4,3,"edd2cf1",13,2
"1532",1,0,903,1,5,3,"edd2cf1",14,2
"1632",0,1,1384,1,3,3,"edd2cf1",15,2
"1732",1,1,1440,5,5,3,"edd2cf1",16,2
"1832",1,1,221,6,6,3,"edd2cf1",17,2
"1932",0,1,247,4,1,3,"edd2cf1",18,2
"2032",1,1,279,1,1,3,"edd2cf1",19,2
"2143",1,1,393,3,3,3,"edd2cf1",20,2
"2234",1,1,319,2,2,3,"edd2cf1",21,2
"2332",0,1,225,6,1,3,"edd2cf1",22,2
"2432",1,0,372,6,1,3,"edd2cf1",23,2
"2532",0,1,359,3,1,3,"edd2cf1",24,2
"2632",1,1,440,2,2,3,"edd2cf1",25,2
"2732",0,1,291,5,1,3,"edd2cf1",26,2
"2832",1,1,260,1,1,3,"edd2cf1",27,2
"2932",0,0,558,5,5,3,"edd2cf1",28,2
"3032",1,1,527,4,4,3,"edd2cf1",29,2
"3143",1,0,345,2,1,3,"edd2cf1",30,2
"3234",1,1,1594,3,3,3,"edd2cf1",31,2
"3332",0,1,78,4,1,3,"edd2cf1",32,2
"3432",0,0,1815,6,6,3,"edd2cf1",33,2
"3532",1,1,1808,1,1,3,"edd2cf1",34,2
"3632",1,1,17,5,5,3,"edd2cf1",35,2
"3732",1,0,315,1,3,3,"edd2cf1",36,2
"3832",1,1,29,3,3,3,"edd2cf1",37,2
"3932",0,1,1493,5,1,3,"edd2cf1",38,2
"4032",0,1,912,1,4,3,"edd2cf1",39,2
"4143",1,1,585,4,4,3,"edd2cf1",40,2
"4234",1,0,234,1,2,3,"edd2cf1",41,2
"4332",1,1,1986,6,6,3,"edd2cf1",42,2
"4432",0,1,19,6,1,3,"edd2cf1",43,2
"4532",0,0,352,2,2,3,"edd2cf1",44,2
"4632",1,1,139,6,6,3,"edd2cf1",45,2
"4732",0,1,6,1,5,3,"edd2cf1",46,2
"4832",1,1,127,3,3,3,"edd2cf1",47,2
"4932",1,1,12,2,2,3,"edd2cf1",48,2
"5032",0,1,94,4,1,3,"edd2cf1",49,2
"5143",0,1,1575,1,2,3,"edd2cf1",50,2
"5234",1,1,127,1,1,3,"edd2cf1",51,2
"5332",0,1,175,1,6,3,"edd2cf1",52,2
"5432",1,1,1575,4,4,3,"edd2cf1",53,2
"5532",1,0,283,3,1,3,"edd2cf1",54,2
"5632",0,0,68,5,5,3,"edd2cf1",55,2
"5732",1,1,199,6,6,3,"edd2cf1",56,2
"5832",1,1,186,2,2,3,"edd2cf1",57,2
"5932",0,1,246,3,1,3,"edd2cf1",58,2
"6032",1,1,32,3,3,3,"edd2cf1",59,2
"6143",1,1,74,1,1,3,"edd2cf1",60,2
"6234",1,0,492,2,1,3,"edd2cf1",61,2
"6332",1,1,288,4,4,3,"edd2cf1",62,2
"6432",0,0,626,5,5,3,"edd2cf1",63,2
"6532",0,1,93,4,1,3,"edd2cf1",64,2
"6632",0,1,224,6,1,3,"edd2cf1",65,2
"6732",0,1,746,1,5,3,"edd2cf1",66,2
"6832",1,1,300,4,4,3,"edd2cf1",67,2
"6932",0,1,196,4,1,3,"edd2cf1",68,2
"7032",1,1,223,1,1,3,"edd2cf1",69,2
"7136",1,1,85,3,3,3,"edd2cf1",70,2
"7233",1,0,238,2,1,3,"edd2cf1",71,2
"7332",0,0,391,6,6,3,"edd2cf1",72,2
"7432",1,0,307,3,1,3,"edd2cf1",73,2
"7532",0,1,237,6,1,3,"edd2cf1",74,2
"7632",1,1,486,2,2,3,"edd2cf1",75,2
"7732",1,0,1032,1,5,3,"edd2cf1",76,2
"7832",1,1,240,5,5,3,"edd2cf1",77,2
"2144",0,1,1315,1,6,1,"14fa68e",1,2
"3144",0,1,483,3,1,1,"14fa68e",2,2
"4144",0,1,816,5,1,1,"14fa68e",3,2
"5144",1,1,627,5,5,1,"14fa68e",4,2
"6144",1,1,628,3,3,1,"14fa68e",5,2
"7108",1,1,1994,4,4,1,"14fa68e",6,2
"833",1,1,387,2,2,1,"14fa68e",7,2
"933",1,1,1981,6,6,1,"14fa68e",8,2
"1033",0,1,874,1,4,1,"14fa68e",9,2
"1133",1,1,744,1,1,1,"14fa68e",10,2
"1233",1,0,565,1,2,1,"14fa68e",11,2
"1333",1,1,456,4,4,1,"14fa68e",12,2
"1433",1,1,686,5,5,1,"14fa68e",13,2
"1533",0,1,715,1,3,1,"14fa68e",14,2
"1633",1,1,1983,6,6,1,"14fa68e",15,2
"1733",0,1,617,6,1,1,"14fa68e",16,2
"1833",0,1,486,1,5,1,"14fa68e",17,2
"1933",0,1,438,2,1,1,"14fa68e",18,2
"2033",0,1,942,1,4,1,"14fa68e",19,2
"2145",1,1,352,3,3,1,"14fa68e",20,2
"2235",1,1,449,1,1,1,"14fa68e",21,2
"2333",0,0,378,2,2,1,"14fa68e",22,2
"2433",1,1,309,2,2,1,"14fa68e",23,2
"2533",1,1,408,3,3,1,"14fa68e",24,2
"2633",1,1,476,1,1,1,"14fa68e",25,2
"2733",0,1,521,4,1,1,"14fa68e",26,2
"2833",0,1,487,3,1,1,"14fa68e",27,2
"2933",0,1,951,1,5,1,"14fa68e",28,2
"3033",1,0,439,2,1,1,"14fa68e",29,2
"3145",1,1,692,5,5,1,"14fa68e",30,2
"3235",1,1,1981,4,4,1,"14fa68e",31,2
"3333",0,1,1333,1,6,1,"14fa68e",32,2
"3433",1,1,1117,6,6,1,"14fa68e",33,2
"3533",0,1,1287,3,1,1,"14fa68e",34,2
"3633",1,1,1988,6,6,1,"14fa68e",35,2
"3733",1,1,1973,3,3,1,"14fa68e",36,2
"3833",0,1,1021,1,2,1,"14fa68e",37,2
"3933",1,1,1882,2,2,1,"14fa68e",38,2
"4033",0,1,1990,4,1,1,"14fa68e",39,2
"4145",0,1,1990,1,5,1,"14fa68e",40,2
"4235",1,1,1013,5,5,1,"14fa68e",41,2
"4333",1,1,1339,1,1,1,"14fa68e",42,2
"4433",0,1,834,6,1,1,"14fa68e",43,2
"4533",1,1,1991,4,4,1,"14fa68e",44,2
"4633",0,1,1276,1,2,1,"14fa68e",45,2
"4733",-1,-1,0,6,1,1,"14fa68e",46,2
"4833",1,1,337,1,1,1,"14fa68e",47,2
"4933",1,0,569,1,5,1,"14fa68e",48,2
"5033",1,1,396,5,5,1,"14fa68e",49,2
"5145",0,1,818,1,3,1,"14fa68e",50,2
"5235",1,1,1989,3,3,1,"14fa68e",51,2
"5333",0,0,540,2,2,1,"14fa68e",52,2
"5433",1,1,1983,6,6,1,"14fa68e",53,2
"5533",0,1,557,4,1,1,"14fa68e",54,2
"5633",1,1,1988,4,4,1,"14fa68e",55,2
"5733",0,1,1524,1,6,1,"14fa68e",56,2
"5833",1,1,919,3,3,1,"14fa68e",57,2
"5933",0,1,2000,3,1,1,"14fa68e",58,2
"6033",0,1,1996,5,1,1,"14fa68e",59,2
"6145",1,1,1996,1,1,1,"14fa68e",60,2
"6235",1,1,1988,4,4,1,"14fa68e",61,2
"6333",1,1,1980,5,5,1,"14fa68e",62,2
"6433",0,1,1069,1,4,1,"14fa68e",63,2
"6533",1,1,973,2,2,1,"14fa68e",64,2
"6633",1,1,1710,6,6,1,"14fa68e",65,2
"6733",1,0,1249,2,1,1,"14fa68e",66,2
"6833",1,0,401,2,1,1,"14fa68e",67,2
"6933",0,1,989,4,1,1,"14fa68e",68,2
"7033",0,1,1287,3,1,1,"14fa68e",69,2
"7137",0,1,564,5,1,1,"14fa68e",70,2
"7234",1,1,1971,4,4,1,"14fa68e",71,2
"7333",1,1,708,1,1,1,"14fa68e",72,2
"7433",1,1,605,6,6,1,"14fa68e",73,2
"7533",0,1,1832,1,6,1,"14fa68e",74,2
"7633",1,1,1601,3,3,1,"14fa68e",75,2
"7733",1,1,1974,2,2,1,"14fa68e",76,2
"7833",1,1,1519,5,5,1,"14fa68e",77,2
"2146",1,1,279,3,3,2,"1d6393b",1,2
"3146",0,1,338,1,5,2,"1d6393b",2,2
"4146",0,1,321,2,1,2,"1d6393b",3,2
"5146",1,1,318,5,5,2,"1d6393b",4,2
"6146",1,1,274,6,6,2,"1d6393b",5,2
"7109",1,1,265,2,2,2,"1d6393b",6,2
"834",1,1,273,1,1,2,"1d6393b",7,2
"934",0,1,337,6,1,2,"1d6393b",8,2
"1034",1,1,263,4,4,2,"1d6393b",9,2
"1134",0,1,304,3,1,2,"1d6393b",10,2
"1234",0,1,304,4,1,2,"1d6393b",11,2
"1334",1,1,294,2,2,2,"1d6393b",12,2
"1434",0,1,400,4,1,2,"1d6393b",13,2
"1534",1,1,309,1,1,2,"1d6393b",14,2
"1634",0,1,299,2,1,2,"1d6393b",15,2
"1734",1,1,290,6,6,2,"1d6393b",16,2
"1834",0,1,665,1,6,2,"1d6393b",17,2
"1934",0,1,338,1,5,2,"1d6393b",18,2
"2034",1,1,417,3,3,2,"1d6393b",19,2
"2147",0,1,256,1,3,2,"1d6393b",20,2
"2236",1,1,480,5,5,2,"1d6393b",21,2
"2334",1,1,257,4,4,2,"1d6393b",22,2
"2434",0,1,328,5,1,2,"1d6393b",23,2
"2534",1,1,312,4,4,2,"1d6393b",24,2
"2634",0,1,327,6,1,2,"1d6393b",25,2
"2734",1,1,284,1,1,2,"1d6393b",26,2
"2834",1,1,266,6,6,2,"1d6393b",27,2
"2934",1,1,280,5,5,2,"1d6393b",28,2
"3034",0,1,328,2,1,2,"1d6393b",29,2
"3147",1,1,343,2,2,2,"1d6393b",30,2
"3236",1,1,319,3,3,2,"1d6393b",31,2
"3334",0,1,478,4,1,2,"1d6393b",32,2
"3434",0,1,311,3,1,2,"1d6393b",33,2
"3534",1,1,309,5,5,2,"1d6393b",34,2
"3634",1,1,240,2,2,2,"1d6393b",35,2
"3734",0,1,302,4,1,2,"1d6393b",36,2
"3834",1,1,271,1,1,2,"1d6393b",37,2
"3934",0,1,311,1,3,2,"1d6393b",38,2
"4034",1,1,271,3,3,2,"1d6393b",39,2
"4147",1,1,365,6,6,2,"1d6393b",40,2
"4236",1,1,278,4,4,2,"1d6393b",41,2
"4334",1,0,349,1,5,2,"1d6393b",42,2
"4434",0,1,381,2,1,2,"1d6393b",43,2
"4534",0,1,380,6,1,2,"1d6393b",44,2
"4634",0,1,333,4,1,2,"1d6393b",45,2
"4734",0,1,532,1,6,2,"1d6393b",46,2
"4834",1,1,325,4,4,2,"1d6393b",47,2
"4934",1,1,226,6,6,2,"1d6393b",48,2
"5034",0,1,299,3,1,2,"1d6393b",49,2
"5147",1,1,270,3,3,2,"1d6393b",50,2
"5236",0,1,254,2,1,2,"1d6393b",51,2
"5334",0,1,276,1,5,2,"1d6393b",52,2
"5434",1,1,234,2,2,2,"1d6393b",53,2
"5534",1,1,312,5,5,2,"1d6393b",54,2
"5634",1,1,312,1,1,2,"1d6393b",55,2
"5734",1,1,430,3,3,2,"1d6393b",56,2
"5834",0,1,399,1,4,2,"1d6393b",57,2
"5934",1,1,262,1,1,2,"1d6393b",58,2
"6034",1,1,285,6,6,2,"1d6393b",59,2
"6147",0,1,347,3,1,2,"1d6393b",60,2
"6236",1,1,286,4,4,2,"1d6393b",61,2
"6334",1,1,277,5,5,2,"1d6393b",62,2
"6434",1,1,333,2,2,2,"1d6393b",63,2
"6534",0,1,282,1,6,2,"1d6393b",64,2
"6634",0,1,339,2,1,2,"1d6393b",65,2
"6734",0,1,366,5,1,2,"1d6393b",66,2
"6834",1,0,264,2,1,2,"1d6393b",67,2
"6934",1,1,278,6,6,2,"1d6393b",68,2
"7034",1,1,279,5,5,2,"1d6393b",69,2
"7138",0,1,324,1,6,2,"1d6393b",70,2
"7235",0,1,381,1,5,2,"1d6393b",71,2
"7334",1,1,226,2,2,2,"1d6393b",72,2
"7434",0,1,275,4,1,2,"1d6393b",73,2
"7534",1,1,290,3,3,2,"1d6393b",74,2
"7634",1,1,281,4,4,2,"1d6393b",75,2
"7734",0,1,285,1,3,2,"1d6393b",76,2
"7834",1,1,302,1,1,2,"1d6393b",77,2
"2148",1,1,405,5,5,3,"1f75812",1,2
"3148",1,1,396,4,4,3,"1f75812",2,2
"4148",1,1,366,6,6,3,"1f75812",3,2
"5148",0,1,233,3,1,3,"1f75812",4,2
"6148",0,1,262,1,4,3,"1f75812",5,2
"7139",0,1,408,1,6,3,"1f75812",6,2
"835",1,1,273,3,3,3,"1f75812",7,2
"935",1,1,484,1,1,3,"1f75812",8,2
"1035",0,1,386,2,1,3,"1f75812",9,2
"1135",0,1,111,5,1,3,"1f75812",10,2
"1235",1,1,314,2,2,3,"1f75812",11,2
"1335",0,1,529,5,1,3,"1f75812",12,2
"1435",0,1,394,1,3,3,"1f75812",13,2
"1535",1,1,262,2,2,3,"1f75812",14,2
"1635",1,1,459,6,6,3,"1f75812",15,2
"1735",1,1,415,5,5,3,"1f75812",16,2
"1835",1,0,466,1,2,3,"1f75812",17,2
"1935",0,1,258,1,6,3,"1f75812",18,2
"2035",1,1,343,1,1,3,"1f75812",19,2
"2149",1,1,272,4,4,3,"1f75812",20,2
"2237",1,1,380,3,3,3,"1f75812",21,2
"2335",0,1,220,1,4,3,"1f75812",22,2
"2435",1,1,265,1,1,3,"1f75812",23,2
"2535",1,1,205,2,2,3,"1f75812",24,2
"2635",0,1,776,1,6,3,"1f75812",25,2
"2735",0,1,379,4,1,3,"1f75812",26,2
"2835",1,1,229,3,3,3,"1f75812",27,2
"2935",1,1,233,6,6,3,"1f75812",28,2
"3035",0,1,253,3,1,3,"1f75812",29,2
"3149",0,1,227,1,2,3,"1f75812",30,2
"3237",1,1,378,4,4,3,"1f75812",31,2
"3335",0,1,1042,1,5,3,"1f75812",32,2
"3435",1,1,948,5,5,3,"1f75812",33,2
"3535",1,1,293,5,5,3,"1f75812",34,2
"3635",1,1,215,4,4,3,"1f75812",35,2
"3735",0,1,221,5,1,3,"1f75812",36,2
"3835",1,1,272,2,2,3,"1f75812",37,2
"3935",1,1,209,3,3,3,"1f75812",38,2
"4035",0,1,372,1,3,3,"1f75812",39,2
"4149",0,1,135,6,1,3,"1f75812",40,2
"4237",0,1,238,4,1,3,"1f75812",41,2
"4335",1,1,281,1,1,3,"1f75812",42,2
"4435",1,1,291,6,6,3,"1f75812",43,2
"4535",0,1,234,1,2,3,"1f75812",44,2
"4635",1,1,191,6,6,3,"1f75812",45,2
"4735",1,1,230,3,3,3,"1f75812",46,2
"4835",1,1,160,1,1,3,"1f75812",47,2
"4935",0,1,500,1,6,3,"1f75812",48,2
"5035",0,1,272,1,5,3,"1f75812",49,2
"5149",0,1,245,2,1,3,"1f75812",50,2
"5237",0,1,295,1,4,3,"1f75812",51,2
"5335",1,1,237,2,2,3,"1f75812",52,2
"5435",0,1,251,3,1,3,"1f75812",53,2
"5535",1,1,236,5,5,3,"1f75812",54,2
"5635",1,1,465,4,4,3,"1f75812",55,2
"5735",0,1,220,1,5,3,"1f75812",56,2
"5835",1,1,277,2,2,3,"1f75812",57,2
"5935",1,1,210,5,5,3,"1f75812",58,2
"6035",0,1,226,1,2,3,"1f75812",59,2
"6149",0,1,207,1,3,3,"1f75812",60,2
"6237",1,1,200,4,4,3,"1f75812",61,2
"6335",1,1,361,1,1,3,"1f75812",62,2
"6435",1,1,402,6,6,3,"1f75812",63,2
"6535",0,1,359,1,6,3,"1f75812",64,2
"6635",0,1,277,1,4,3,"1f75812",65,2
"6735",1,1,267,3,3,3,"1f75812",66,2
"6835",1,1,254,5,5,3,"1f75812",67,2
"6935",1,1,278,1,1,3,"1f75812",68,2
"7035",1,1,278,2,2,3,"1f75812",69,2
"7140",0,1,254,4,1,3,"1f75812",70,2
"7236",0,1,236,1,2,3,"1f75812",71,2
"7335",1,1,221,3,3,3,"1f75812",72,2
"7435",1,1,236,4,4,3,"1f75812",73,2
"7535",0,1,41,6,1,3,"1f75812",74,2
"7635",1,1,178,6,6,3,"1f75812",75,2
"7735",0,1,142,3,1,3,"1f75812",76,2
"7835",0,1,215,5,1,3,"1f75812",77,2
"2150",1,1,326,2,2,1,"1c06873",1,2
"3150",1,1,691,1,1,1,"1c06873",2,2
"4150",1,1,403,3,3,1,"1c06873",3,2
"5150",1,1,670,4,4,1,"1c06873",4,2
"6150",0,1,335,3,1,1,"1c06873",5,2
"7141",0,1,386,1,2,1,"1c06873",6,2
"836",1,1,515,6,6,1,"1c06873",7,2
"936",1,1,417,5,5,1,"1c06873",8,2
"1036",0,1,766,4,1,1,"1c06873",9,2
"1136",0,1,567,6,1,1,"1c06873",10,2
"1236",0,1,84,5,1,1,"1c06873",11,2
"1336",1,1,244,4,4,1,"1c06873",12,2
"1436",0,1,668,1,3,1,"1c06873",13,2
"1536",1,1,451,6,6,1,"1c06873",14,2
"1636",1,1,406,5,5,1,"1c06873",15,2
"1736",0,1,338,1,5,1,"1c06873",16,2
"1836",0,1,472,1,6,1,"1c06873",17,2
"1936",0,1,729,2,1,1,"1c06873",18,2
"2036",1,1,524,1,1,1,"1c06873",19,2
"2151",1,1,296,3,3,1,"1c06873",20,2
"2238",0,1,505,1,4,1,"1c06873",21,2
"2336",1,1,403,2,2,1,"1c06873",22,2
"2436",1,1,1089,6,6,1,"1c06873",23,2
"2536",0,1,534,2,1,1,"1c06873",24,2
"2636",0,1,939,1,3,1,"1c06873",25,2
"2736",1,1,228,1,1,1,"1c06873",26,2
"2836",0,1,493,1,4,1,"1c06873",27,2
"2936",1,1,892,2,2,1,"1c06873",28,2
"3036",1,1,778,5,5,1,"1c06873",29,2
"3151",1,1,621,4,4,1,"1c06873",30,2
"3238",1,1,610,3,3,1,"1c06873",31,2
"3336",0,1,454,6,1,1,"1c06873",32,2
"3436",0,1,403,1,5,1,"1c06873",33,2
"3536",1,1,498,6,6,1,"1c06873",34,2
"3636",0,1,995,1,3,1,"1c06873",35,2
"3736",1,1,227,3,3,1,"1c06873",36,2
"3836",1,1,456,5,5,1,"1c06873",37,2
"3936",0,1,454,1,5,1,"1c06873",38,2
"4036",1,1,398,4,4,1,"1c06873",39,2
