"","keys","accuracy","rt","Fimg","Simg","feature_index","subID","trialNum","run"
"2",1,1,202,3,3,1,"1775634",1,1
"3",1,1,423,5,5,1,"1775634",2,1
"4",1,0,515,1,3,1,"1775634",3,1
"5",1,1,283,1,1,1,"1775634",4,1
"6",1,1,305,2,2,1,"1775634",5,1
"7",1,0,272,1,5,1,"1775634",6,1
"8",0,0,320,4,4,1,"1775634",7,1
"9",1,1,444,6,6,1,"1775634",8,1
"10",0,1,345,4,1,1,"1775634",9,1
"11",0,1,817,1,6,1,"1775634",10,1
"12",1,0,389,2,1,1,"1775634",11,1
"13",1,1,289,1,1,1,"1775634",12,1
"14",0,1,319,1,4,1,"1775634",13,1
"15",0,1,244,6,1,1,"1775634",14,1
"16",1,1,236,3,3,1,"1775634",15,1
"17",1,0,335,3,1,1,"1775634",16,1
"18",1,1,335,6,6,1,"1775634",17,1
"19",0,1,361,5,1,1,"1775634",18,1
"20",1,1,344,4,4,1,"1775634",19,1
"21",1,0,318,2,1,1,"1775634",20,1
"22",1,1,319,2,2,1,"1775634",21,1
"23",1,1,294,5,5,1,"1775634",22,1
"24",0,1,274,1,3,1,"1775634",23,1
"25",1,1,284,2,2,1,"1775634",24,1
"26",1,1,303,3,3,1,"1775634",25,1
"27",1,1,318,4,4,1,"1775634",26,1
"28",1,0,334,1,4,1,"1775634",27,1
"29",0,1,339,1,5,1,"1775634",28,1
"30",-1,-1,0,6,6,1,"1775634",29,1
"31",1,1,393,5,5,1,"1775634",30,1
"32",1,0,332,2,1,1,"1775634",31,1
"33",1,1,364,1,1,1,"1775634",32,1
"34",0,1,321,6,1,1,"1775634",33,1
"35",0,1,288,6,1,1,"1775634",34,1
"36",1,1,308,4,4,1,"1775634",35,1
"37",0,1,674,5,1,1,"1775634",36,1
"38",1,1,351,6,6,1,"1775634",37,1
"39",1,1,303,2,2,1,"1775634",38,1
"40",1,1,391,1,1,1,"1775634",39,1
"41",0,1,402,1,4,1,"1775634",40,1
"42",0,1,479,1,2,1,"1775634",41,1
"43",1,1,386,3,3,1,"1775634",42,1
"44",1,1,596,5,5,1,"1775634",43,1
"45",0,1,360,1,3,1,"1775634",44,1
"46",0,1,392,4,1,1,"1775634",45,1
"47",1,1,353,1,1,1,"1775634",46,1
"48",1,1,876,2,2,1,"1775634",47,1
"49",1,1,1209,4,4,1,"1775634",48,1
"50",0,1,418,1,5,1,"1775634",49,1
"51",0,1,565,6,1,1,"1775634",50,1
"52",1,1,675,5,5,1,"1775634",51,1
"53",1,1,746,6,6,1,"1775634",52,1
"54",0,1,756,2,1,1,"1775634",53,1
"55",1,1,444,3,3,1,"1775634",54,1
"56",0,1,755,3,1,1,"1775634",55,1
"57",0,1,1018,5,1,1,"1775634",56,1
"58",0,1,200,2,1,1,"1775634",57,1
"59",1,1,487,3,3,1,"1775634",58,1
"60",0,1,628,6,1,1,"1775634",59,1
"61",1,1,344,4,4,1,"1775634",60,1
"62",1,1,306,2,2,1,"1775634",61,1
"63",1,1,802,5,5,1,"1775634",62,1
"64",0,1,301,1,4,1,"1775634",63,1
"65",1,0,161,1,3,1,"1775634",64,1
"66",1,1,309,1,1,1,"1775634",65,1
"67",1,1,315,6,6,1,"1775634",66,1
"68",1,1,269,5,5,1,"1775634",67,1
"69",0,1,356,1,6,1,"1775634",68,1
"70",1,0,481,1,2,1,"1775634",69,1
"71",1,1,465,3,3,1,"1775634",70,1
"72",1,1,459,1,1,1,"1775634",71,1
"73",1,1,794,4,4,1,"1775634",72,1
"74",0,1,655,1,5,1,"1775634",73,1
"75",0,1,414,4,1,1,"1775634",74,1
"76",1,1,327,2,2,1,"1775634",75,1
"77",0,1,407,1,3,1,"1775634",76,1
"78",1,1,1025,6,6,1,"1775634",77,1
"210",-1,-1,0,1,6,2,"1566cef",1,1
"310",1,1,1919,3,3,2,"1566cef",2,1
"410",1,0,598,1,3,2,"1566cef",3,1
"510",1,0,530,1,2,2,"1566cef",4,1
"610",0,1,550,5,1,2,"1566cef",5,1
"79",1,1,930,2,2,2,"1566cef",6,1
"81",0,1,532,4,1,2,"1566cef",7,1
"91",1,1,271,4,4,2,"1566cef",8,1
"101",1,1,454,6,6,2,"1566cef",9,1
"111",1,1,494,5,5,2,"1566cef",10,1
"121",1,1,467,1,1,2,"1566cef",11,1
"131",0,1,574,1,4,2,"1566cef",12,1
"141",1,0,684,2,1,2,"1566cef",13,1
"151",0,0,501,6,6,2,"1566cef",14,1
"161",0,1,332,1,6,2,"1566cef",15,1
"171",1,1,471,3,3,2,"1566cef",16,1
"181",1,1,842,1,1,2,"1566cef",17,1
"191",1,1,249,5,5,2,"1566cef",18,1
"201",0,1,772,5,1,2,"1566cef",19,1
"211",1,1,470,4,4,2,"1566cef",20,1
"221",1,1,440,2,2,2,"1566cef",21,1
"231",0,1,589,1,3,2,"1566cef",22,1
"241",1,1,333,4,4,2,"1566cef",23,1
"251",1,1,402,3,3,2,"1566cef",24,1
"261",0,1,1015,6,1,2,"1566cef",25,1
"271",1,0,660,3,1,2,"1566cef",26,1
"281",0,1,1879,5,1,2,"1566cef",27,1
"291",1,1,450,2,2,2,"1566cef",28,1
"301",1,1,1415,6,6,2,"1566cef",29,1
"311",0,1,446,4,1,2,"1566cef",30,1
"321",0,1,532,1,2,2,"1566cef",31,1
"331",1,1,473,5,5,2,"1566cef",32,1
"341",1,1,470,1,1,2,"1566cef",33,1
"351",0,1,517,1,5,2,"1566cef",34,1
"361",-1,-1,0,3,3,2,"1566cef",35,1
"371",1,1,626,1,1,2,"1566cef",36,1
"381",0,1,780,1,3,2,"1566cef",37,1
"391",0,1,350,4,1,2,"1566cef",38,1
"401",1,1,337,4,4,2,"1566cef",39,1
"411",1,1,539,5,5,2,"1566cef",40,1
"421",0,1,451,1,2,2,"1566cef",41,1
"431",1,1,503,2,2,2,"1566cef",42,1
"441",0,1,477,6,1,2,"1566cef",43,1
"451",1,1,634,6,6,2,"1566cef",44,1
"461",0,1,474,3,1,2,"1566cef",45,1
"471",0,1,577,1,6,2,"1566cef",46,1
"481",1,1,397,2,2,2,"1566cef",47,1
"491",1,1,444,1,1,2,"1566cef",48,1
"501",0,1,476,5,1,2,"1566cef",49,1
"511",1,1,400,5,5,2,"1566cef",50,1
"521",0,1,401,4,1,2,"1566cef",51,1
"531",1,1,557,3,3,2,"1566cef",52,1
"541",1,1,441,4,4,2,"1566cef",53,1
"551",0,1,1198,2,1,2,"1566cef",54,1
"561",1,1,411,6,6,2,"1566cef",55,1
"571",1,1,474,2,2,2,"1566cef",56,1
"581",1,1,557,3,3,2,"1566cef",57,1
"591",0,1,241,6,1,2,"1566cef",58,1
"601",1,1,433,4,4,2,"1566cef",59,1
"611",1,1,526,5,5,2,"1566cef",60,1
"621",1,1,475,6,6,2,"1566cef",61,1
"631",0,1,567,1,5,2,"1566cef",62,1
"641",0,1,1373,1,2,2,"1566cef",63,1
"651",0,1,407,4,1,2,"1566cef",64,1
"661",1,1,117,1,1,2,"1566cef",65,1
"671",0,1,389,3,1,2,"1566cef",66,1
"681",0,1,376,1,3,2,"1566cef",67,1
"691",0,1,1919,1,2,2,"1566cef",68,1
"701",1,1,819,1,1,2,"1566cef",69,1
"711",0,1,422,6,1,2,"1566cef",70,1
"721",1,1,420,3,3,2,"1566cef",71,1
"731",1,1,880,6,6,2,"1566cef",72,1
"741",1,1,573,5,5,2,"1566cef",73,1
"751",0,1,393,4,1,2,"1566cef",74,1
"761",0,1,499,1,5,2,"1566cef",75,1
"771",1,1,358,2,2,2,"1566cef",76,1
"781",1,1,624,4,4,2,"1566cef",77,1
"212",1,0,285,1,2,2,"14c5dbb",1,1
"312",0,1,237,6,1,2,"14c5dbb",2,1
"412",1,1,124,3,3,2,"14c5dbb",3,1
"512",0,0,249,4,4,2,"14c5dbb",4,1
"612",1,1,466,1,1,2,"14c5dbb",5,1
"710",0,1,246,1,5,2,"14c5dbb",6,1
"82",1,1,323,6,6,2,"14c5dbb",7,1
"92",1,1,85,2,2,2,"14c5dbb",8,1
"102",0,1,152,4,1,2,"14c5dbb",9,1
"112",0,1,145,1,3,2,"14c5dbb",10,1
"122",1,1,148,5,5,2,"14c5dbb",11,1
"132",1,1,682,6,6,2,"14c5dbb",12,1
"142",1,0,210,1,2,2,"14c5dbb",13,1
"152",1,1,94,5,5,2,"14c5dbb",14,1
"162",0,1,187,1,5,2,"14c5dbb",15,1
"172",1,1,2,3,3,2,"14c5dbb",16,1
"182",0,1,165,1,3,2,"14c5dbb",17,1
"192",1,1,44,1,1,2,"14c5dbb",18,1
"202",0,1,246,6,1,2,"14c5dbb",19,1
"213",0,1,251,4,1,2,"14c5dbb",20,1
"222",1,1,250,4,4,2,"14c5dbb",21,1
"232",1,1,46,2,2,2,"14c5dbb",22,1
"242",1,1,277,4,4,2,"14c5dbb",23,1
"252",1,1,88,1,1,2,"14c5dbb",24,1
"262",0,1,271,2,1,2,"14c5dbb",25,1
"272",0,1,41,3,1,2,"14c5dbb",26,1
"282",1,1,650,3,3,2,"14c5dbb",27,1
"292",0,1,14,5,1,2,"14c5dbb",28,1
"302",0,1,269,4,1,2,"14c5dbb",29,1
"313",1,1,255,6,6,2,"14c5dbb",30,1
"322",1,1,151,2,2,2,"14c5dbb",31,1
"332",0,1,210,1,6,2,"14c5dbb",32,1
"342",1,1,272,5,5,2,"14c5dbb",33,1
"352",1,1,256,3,3,2,"14c5dbb",34,1
"362",1,1,120,5,5,2,"14c5dbb",35,1
"372",1,1,45,2,2,2,"14c5dbb",36,1
"382",1,1,227,4,4,2,"14c5dbb",37,1
"392",0,1,233,3,1,2,"14c5dbb",38,1
"402",1,1,28,6,6,2,"14c5dbb",39,1
"413",1,1,5,1,1,2,"14c5dbb",40,1
"422",0,1,3,2,1,2,"14c5dbb",41,1
"432",0,1,146,5,1,2,"14c5dbb",42,1
"442",0,1,348,4,1,2,"14c5dbb",43,1
"452",0,1,188,1,6,2,"14c5dbb",44,1
"462",0,1,268,1,5,2,"14c5dbb",45,1
"472",1,1,256,2,2,2,"14c5dbb",46,1
"482",1,1,411,3,3,2,"14c5dbb",47,1
"492",1,0,288,1,2,2,"14c5dbb",48,1
"502",1,1,54,5,5,2,"14c5dbb",49,1
"513",0,1,322,1,4,2,"14c5dbb",50,1
"522",0,1,346,1,6,2,"14c5dbb",51,1
"532",0,1,312,3,1,2,"14c5dbb",52,1
"542",1,1,576,4,4,2,"14c5dbb",53,1
"552",1,1,64,1,1,2,"14c5dbb",54,1
"562",1,1,1506,6,6,2,"14c5dbb",55,1
"572",1,1,197,3,3,2,"14c5dbb",56,1
"582",1,1,157,2,2,2,"14c5dbb",57,1
"592",1,1,548,6,6,2,"14c5dbb",58,1
"602",0,1,460,1,5,2,"14c5dbb",59,1
"613",1,1,488,4,4,2,"14c5dbb",60,1
"622",1,1,731,1,1,2,"14c5dbb",61,1
"632",1,1,371,5,5,2,"14c5dbb",62,1
"642",0,1,237,1,4,2,"14c5dbb",63,1
"652",0,1,248,6,1,2,"14c5dbb",64,1
"662",0,1,553,3,1,2,"14c5dbb",65,1
"672",0,1,308,2,1,2,"14c5dbb",66,1
"682",0,1,277,2,1,2,"14c5dbb",67,1
"692",0,1,312,6,1,2,"14c5dbb",68,1
"702",1,1,676,5,5,2,"14c5dbb",69,1
"712",0,1,347,1,5,2,"14c5dbb",70,1
"722",1,1,265,2,2,2,"14c5dbb",71,1
"732",1,1,352,6,6,2,"14c5dbb",72,1
"742",1,1,346,4,4,2,"14c5dbb",73,1
"752",1,1,207,1,1,2,"14c5dbb",74,1
"762",1,1,36,3,3,2,"14c5dbb",75,1
"772",0,1,249,4,1,2,"14c5dbb",76,1
"782",0,1,713,1,3,2,"14c5dbb",77,1
"214",-1,-1,0,3,3,3,"16f8599",1,1
"314",-1,0,1269,1,3,3,"16f8599",2,1
"414",-1,0,295,4,1,3,"16f8599",3,1
"514",-1,0,1275,1,1,3,"16f8599",4,1
"614",-1,0,660,2,2,3,"16f8599",5,1
"713",-1,0,122,4,4,3,"16f8599",6,1
"83",-1,0,60,6,6,3,"16f8599",7,1
"93",-1,0,717,5,5,3,"16f8599",8,1
"103",-1,0,226,1,2,3,"16f8599",9,1
"113",-1,0,338,6,1,3,"16f8599",10,1
"123",-1,0,344,1,5,3,"16f8599",11,1
"133",-1,0,345,4,4,3,"16f8599",12,1
"143",-1,0,267,5,5,3,"16f8599",13,1
"153",-1,0,272,3,3,3,"16f8599",14,1
"163",-1,0,244,2,1,3,"16f8599",15,1
"173",-1,0,501,6,1,3,"16f8599",16,1
"183",-1,0,643,1,1,3,"16f8599",17,1
"193",-1,0,977,3,1,3,"16f8599",18,1
"203",-1,0,408,4,1,3,"16f8599",19,1
"215",-1,0,417,2,2,3,"16f8599",20,1
"223",-1,0,269,1,5,3,"16f8599",21,1
"233",-1,0,274,6,6,3,"16f8599",22,1
"243",-1,0,596,1,4,3,"16f8599",23,1
"253",-1,-1,0,1,1,3,"16f8599",24,1
"263",-1,0,692,5,5,3,"16f8599",25,1
"273",-1,0,676,3,3,3,"16f8599",26,1
"283",-1,0,560,6,1,3,"16f8599",27,1
"293",-1,0,599,4,4,3,"16f8599",28,1
"303",-1,0,568,1,5,3,"16f8599",29,1
"315",-1,0,554,2,1,3,"16f8599",30,1
"323",-1,0,491,6,6,3,"16f8599",31,1
"333",-1,0,308,3,1,3,"16f8599",32,1
"343",-1,0,346,2,2,3,"16f8599",33,1
"353",-1,0,320,1,3,3,"16f8599",34,1
"363",-1,0,285,1,4,3,"16f8599",35,1
"373",-1,0,94,1,6,3,"16f8599",36,1
"383",-1,0,396,4,4,3,"16f8599",37,1
"393",-1,0,533,5,5,3,"16f8599",38,1
"403",-1,0,325,1,2,3,"16f8599",39,1
"415",-1,0,340,3,3,3,"16f8599",40,1
"423",-1,0,737,1,1,3,"16f8599",41,1
"433",-1,0,1211,2,2,3,"16f8599",42,1
"443",-1,-1,0,5,1,3,"16f8599",43,1
"453",-1,0,384,6,6,3,"16f8599",44,1
"463",-1,0,1926,5,5,3,"16f8599",45,1
"473",-1,-1,0,2,1,3,"16f8599",46,1
"483",-1,0,316,4,4,3,"16f8599",47,1
"493",-1,0,1428,6,1,3,"16f8599",48,1
"503",-1,0,438,1,4,3,"16f8599",49,1
"515",-1,0,324,1,1,3,"16f8599",50,1
"523",-1,0,360,6,6,3,"16f8599",51,1
"533",-1,0,596,3,1,3,"16f8599",52,1
"543",-1,0,718,3,3,3,"16f8599",53,1
"553",-1,0,515,2,2,3,"16f8599",54,1
"563",-1,-1,0,1,5,3,"16f8599",55,1
"573",-1,0,353,1,1,3,"16f8599",56,1
"583",-1,0,268,2,2,3,"16f8599",57,1
"593",-1,0,775,6,6,3,"16f8599",58,1
"603",-1,0,682,4,1,3,"16f8599",59,1
"615",-1,0,971,4,4,3,"16f8599",60,1
"623",-1,0,344,5,1,3,"16f8599",61,1
"633",-1,0,253,6,1,3,"16f8599",62,1
"643",-1,0,524,5,5,3,"16f8599",63,1
"653",-1,0,522,2,1,3,"16f8599",64,1
"663",-1,0,620,3,3,3,"16f8599",65,1
"673",-1,0,192,1,3,3,"16f8599",66,1
"683",-1,0,376,3,1,3,"16f8599",67,1
"693",-1,0,994,6,6,3,"16f8599",68,1
"703",-1,-1,0,6,1,3,"16f8599",69,1
"714",-1,-1,0,1,1,3,"16f8599",70,1
"723",0,0,278,2,2,3,"16f8599",71,1
"733",1,0,422,1,5,3,"16f8599",72,1
"743",1,1,595,4,4,3,"16f8599",73,1
"753",1,1,283,5,5,3,"16f8599",74,1
"763",1,0,151,2,1,3,"16f8599",75,1
"773",1,0,266,1,4,3,"16f8599",76,1
"783",1,1,251,3,3,3,"16f8599",77,1
"216",1,1,274,3,3,1,"1fdd1c0",1,1
"316",0,0,288,4,4,1,"1fdd1c0",2,1
"416",0,1,242,1,6,1,"1fdd1c0",3,1
"516",1,0,216,1,2,1,"1fdd1c0",4,1
"616",1,1,248,2,2,1,"1fdd1c0",5,1
"715",0,0,252,6,6,1,"1fdd1c0",6,1
"84",1,1,240,5,5,1,"1fdd1c0",7,1
"94",1,1,259,1,1,1,"1fdd1c0",8,1
"104",0,1,254,1,3,1,"1fdd1c0",9,1
"114",0,1,249,1,4,1,"1fdd1c0",10,1
"124",0,1,262,1,5,1,"1fdd1c0",11,1
"134",1,1,260,2,2,1,"1fdd1c0",12,1
"144",1,0,254,2,1,1,"1fdd1c0",13,1
"154",0,1,255,5,1,1,"1fdd1c0",14,1
"164",0,1,283,1,6,1,"1fdd1c0",15,1
"174",1,1,436,4,4,1,"1fdd1c0",16,1
"184",1,1,304,1,1,1,"1fdd1c0",17,1
"194",1,1,301,5,5,1,"1fdd1c0",18,1
"204",1,1,286,3,3,1,"1fdd1c0",19,1
"217",1,1,267,6,6,1,"1fdd1c0",20,1
"224",0,1,334,1,3,1,"1fdd1c0",21,1
"234",0,1,254,1,4,1,"1fdd1c0",22,1
"244",1,1,280,2,2,1,"1fdd1c0",23,1
"254",0,1,296,5,1,1,"1fdd1c0",24,1
"264",1,1,410,6,6,1,"1fdd1c0",25,1
"274",1,1,261,1,1,1,"1fdd1c0",26,1
"284",1,1,269,3,3,1,"1fdd1c0",27,1
"294",1,1,289,4,4,1,"1fdd1c0",28,1
"304",1,1,261,5,5,1,"1fdd1c0",29,1
"317",0,1,235,3,1,1,"1fdd1c0",30,1
"324",0,1,261,1,4,1,"1fdd1c0",31,1
"334",0,1,232,1,2,1,"1fdd1c0",32,1
"344",0,1,249,1,6,1,"1fdd1c0",33,1
"354",1,1,247,3,3,1,"1fdd1c0",34,1
"364",1,1,266,5,5,1,"1fdd1c0",35,1
"374",1,1,540,2,2,1,"1fdd1c0",36,1
"384",0,1,266,5,1,1,"1fdd1c0",37,1
"394",0,1,528,1,3,1,"1fdd1c0",38,1
"404",1,1,283,4,4,1,"1fdd1c0",39,1
"417",0,1,253,6,1,1,"1fdd1c0",40,1
"424",1,1,249,6,6,1,"1fdd1c0",41,1
"434",1,1,260,1,1,1,"1fdd1c0",42,1
"444",0,1,285,1,4,1,"1fdd1c0",43,1
"454",0,1,348,1,2,1,"1fdd1c0",44,1
"464",1,1,309,3,3,1,"1fdd1c0",45,1
"474",0,1,373,1,5,1,"1fdd1c0",46,1
"484",1,1,298,2,2,1,"1fdd1c0",47,1
"494",1,1,251,1,1,1,"1fdd1c0",48,1
"504",1,1,404,6,6,1,"1fdd1c0",49,1
"517",1,0,252,2,1,1,"1fdd1c0",50,1
"524",1,1,287,4,4,1,"1fdd1c0",51,1
"534",0,1,251,6,1,1,"1fdd1c0",52,1
"544",0,1,395,3,1,1,"1fdd1c0",53,1
"554",1,1,285,5,5,1,"1fdd1c0",54,1
"564",0,1,268,1,4,1,"1fdd1c0",55,1
"574",1,1,229,6,6,1,"1fdd1c0",56,1
"584",1,1,355,5,5,1,"1fdd1c0",57,1
"594",1,0,330,1,2,1,"1fdd1c0",58,1
"604",0,1,810,1,4,1,"1fdd1c0",59,1
"617",1,1,299,4,4,1,"1fdd1c0",60,1
"624",1,1,241,1,1,1,"1fdd1c0",61,1
"634",0,1,329,1,5,1,"1fdd1c0",62,1
"644",1,1,251,2,2,1,"1fdd1c0",63,1
"654",1,0,307,3,1,1,"1fdd1c0",64,1
"664",0,1,260,6,1,1,"1fdd1c0",65,1
"674",1,1,279,3,3,1,"1fdd1c0",66,1
"684",1,1,285,3,3,1,"1fdd1c0",67,1
"694",0,1,241,4,1,1,"1fdd1c0",68,1
"704",1,1,236,6,6,1,"1fdd1c0",69,1
"716",0,1,492,3,1,1,"1fdd1c0",70,1
"724",1,1,228,2,2,1,"1fdd1c0",71,1
"734",0,1,236,5,1,1,"1fdd1c0",72,1
"744",1,1,243,4,4,1,"1fdd1c0",73,1
"754",1,1,227,1,1,1,"1fdd1c0",74,1
"764",1,1,260,5,5,1,"1fdd1c0",75,1
"774",0,1,229,2,1,1,"1fdd1c0",76,1
"784",0,1,226,6,1,1,"1fdd1c0",77,1
"218",0,0,803,3,3,1,"aada38f",1,1
"318",1,1,524,6,6,1,"aada38f",2,1
"418",0,1,534,1,5,1,"aada38f",3,1
"518",1,1,468,4,4,1,"aada38f",4,1
"618",0,1,611,1,4,1,"aada38f",5,1
"717",1,1,591,1,1,1,"aada38f",6,1
"85",0,1,625,3,1,1,"aada38f",7,1
"95",0,1,568,6,1,1,"aada38f",8,1
"105",1,0,425,1,2,1,"aada38f",9,1
"115",1,1,784,2,2,1,"aada38f",10,1
"125",1,1,604,5,5,1,"aada38f",11,1
"135",0,1,900,1,6,1,"aada38f",12,1
"145",1,1,527,2,2,1,"aada38f",13,1
"155",0,1,304,5,1,1,"aada38f",14,1
"165",1,1,526,1,1,1,"aada38f",15,1
"175",1,1,593,3,3,1,"aada38f",16,1
"185",0,1,650,4,1,1,"aada38f",17,1
"195",1,1,381,5,5,1,"aada38f",18,1
"205",0,1,1196,1,2,1,"aada38f",19,1
"219",0,1,643,3,1,1,"aada38f",20,1
"225",1,1,557,6,6,1,"aada38f",21,1
"235",1,1,622,4,4,1,"aada38f",22,1
"245",1,1,677,4,4,1,"aada38f",23,1
"255",0,0,627,3,3,1,"aada38f",24,1
"265",1,1,495,1,1,1,"aada38f",25,1
"275",1,1,818,5,5,1,"aada38f",26,1
"285",1,1,519,2,2,1,"aada38f",27,1
"295",0,1,556,6,1,1,"aada38f",28,1
"305",0,1,419,1,4,1,"aada38f",29,1
"319",0,1,442,3,1,1,"aada38f",30,1
"325",0,1,688,1,5,1,"aada38f",31,1
"335",1,0,328,2,1,1,"aada38f",32,1
"345",1,1,568,6,6,1,"aada38f",33,1
"355",1,1,758,5,5,1,"aada38f",34,1
"365",0,1,576,5,1,1,"aada38f",35,1
"375",0,1,651,1,4,1,"aada38f",36,1
"385",1,1,368,1,1,1,"aada38f",37,1
"395",1,1,472,2,2,1,"aada38f",38,1
"405",1,1,618,6,6,1,"aada38f",39,1
"419",0,1,524,1,3,1,"aada38f",40,1
"425",1,0,404,2,1,1,"aada38f",41,1
"435",1,1,554,4,4,1,"aada38f",42,1
"445",1,1,569,3,3,1,"aada38f",43,1
"455",0,1,486,1,6,1,"aada38f",44,1
"465",1,1,422,5,5,1,"aada38f",45,1
"475",1,1,485,1,1,1,"aada38f",46,1
"485",1,0,619,1,4,1,"aada38f",47,1
"495",1,1,432,6,6,1,"aada38f",48,1
"505",0,1,415,1,3,1,"aada38f",49,1
"519",0,1,799,2,1,1,"aada38f",50,1
"525",0,1,578,6,1,1,"aada38f",51,1
"535",1,1,763,2,2,1,"aada38f",52,1
"545",1,1,568,3,3,1,"aada38f",53,1
"555",1,1,617,4,4,1,"aada38f",54,1
"565",0,1,1039,1,5,1,"aada38f",55,1
"575",1,1,613,4,4,1,"aada38f",56,1
"585",0,1,609,1,4,1,"aada38f",57,1
"595",0,1,1283,5,1,1,"aada38f",58,1
"605",1,1,749,6,6,1,"aada38f",59,1
"619",1,1,413,5,5,1,"aada38f",60,1
"625",0,1,439,1,3,1,"aada38f",61,1
"635",1,1,420,2,2,1,"aada38f",62,1
"645",1,1,621,1,1,1,"aada38f",63,1
"655",1,1,567,3,3,1,"aada38f",64,1
"665",0,1,400,1,6,1,"aada38f",65,1
"675",1,0,541,2,1,1,"aada38f",66,1
"685",1,0,432,1,2,1,"aada38f",67,1
"695",1,1,605,5,5,1,"aada38f",68,1
"705",1,1,953,6,6,1,"aada38f",69,1
"718",0,1,623,1,4,1,"aada38f",70,1
"725",0,1,525,5,1,1,"aada38f",71,1
"735",0,1,519,6,1,1,"aada38f",72,1
"745",1,1,471,3,3,1,"aada38f",73,1
"755",1,1,631,4,4,1,"aada38f",74,1
"765",0,0,579,2,2,1,"aada38f",75,1
"775",1,1,583,1,1,1,"aada38f",76,1
"785",0,1,585,3,1,1,"aada38f",77,1
"220",1,1,1221,6,6,2,"11c388d",1,1
"320",-1,-1,0,4,4,2,"11c388d",2,1
"420",-1,-1,0,1,2,2,"11c388d",3,1
"520",-1,-1,0,4,1,2,"11c388d",4,1
"620",1,0,1358,6,1,2,"11c388d",5,1
"719",1,0,1949,1,5,2,"11c388d",6,1
"86",0,0,1417,1,1,2,"11c388d",7,1
"96",0,1,1891,3,1,2,"11c388d",8,1
"106",0,0,1903,3,3,2,"11c388d",9,1
"116",0,0,1921,5,5,2,"11c388d",10,1
"126",0,0,1934,2,2,2,"11c388d",11,1
"136",0,0,1951,3,3,2,"11c388d",12,1
"146",0,1,1964,1,2,2,"11c388d",13,1
"156",0,0,1980,1,1,2,"11c388d",14,1
"166",0,0,1998,6,6,2,"11c388d",15,1
"176",0,0,1869,4,4,2,"11c388d",16,1
"186",0,1,1882,1,5,2,"11c388d",17,1
"196",0,0,1891,5,5,2,"11c388d",18,1
"206",0,0,1943,2,2,2,"11c388d",19,1
"2110",0,1,1959,1,4,2,"11c388d",20,1
"226",0,1,1972,6,1,2,"11c388d",21,1
"236",0,1,1994,3,1,2,"11c388d",22,1
"246",0,0,1861,6,6,2,"11c388d",23,1
"256",0,1,1878,5,1,2,"11c388d",24,1
"266",0,0,1899,3,3,2,"11c388d",25,1
"276",0,0,1908,5,5,2,"11c388d",26,1
"286",0,0,1931,1,1,2,"11c388d",27,1
"296",0,1,1938,1,4,2,"11c388d",28,1
"306",0,0,1951,2,2,2,"11c388d",29,1
"3110",0,1,1968,6,1,2,"11c388d",30,1
"326",0,0,1988,4,4,2,"11c388d",31,1
"336",0,1,1998,3,1,2,"11c388d",32,1
"346",0,1,1874,1,2,2,"11c388d",33,1
"356",0,1,1894,1,6,2,"11c388d",34,1
"366",0,0,1903,2,2,2,"11c388d",35,1
"376",0,1,1920,1,4,2,"11c388d",36,1
"386",0,0,1932,1,1,2,"11c388d",37,1
"396",0,1,1953,2,1,2,"11c388d",38,1
"406",0,1,1971,5,1,2,"11c388d",39,1
"4110",0,0,1895,5,5,2,"11c388d",40,1
"426",0,1,1904,1,3,2,"11c388d",41,1
"436",0,0,1917,4,4,2,"11c388d",42,1
"446",0,0,1940,3,3,2,"11c388d",43,1
"456",0,0,1950,6,6,2,"11c388d",44,1
"466",0,0,1967,3,3,2,"11c388d",45,1
"476",0,0,1986,4,4,2,"11c388d",46,1
"486",0,0,1996,2,2,2,"11c388d",47,1
"496",0,1,1871,1,2,2,"11c388d",48,1
"506",0,1,1882,1,5,2,"11c388d",49,1
"5110",0,0,1896,6,6,2,"11c388d",50,1
"526",0,1,1917,3,1,2,"11c388d",51,1
"536",0,0,1928,5,5,2,"11c388d",52,1
"546",0,1,1948,1,4,2,"11c388d",53,1
"556",0,1,1968,1,6,2,"11c388d",54,1
"566",0,0,1979,1,1,2,"11c388d",55,1
"576",0,1,1996,2,1,2,"11c388d",56,1
"586",0,0,1887,2,2,2,"11c388d",57,1
"596",0,0,1903,5,5,2,"11c388d",58,1
"606",0,0,1915,1,1,2,"11c388d",59,1
"6110",0,1,1930,1,4,2,"11c388d",60,1
"626",0,0,1949,6,6,2,"11c388d",61,1
"636",0,0,1966,4,4,2,"11c388d",62,1
"646",0,1,1985,5,1,2,"11c388d",63,1
"656",0,0,1892,3,3,2,"11c388d",64,1
"666",0,1,1919,3,1,2,"11c388d",65,1
"676",0,1,1936,6,1,2,"11c388d",66,1
"686",0,1,1956,4,1,2,"11c388d",67,1
"696",0,0,1969,1,1,2,"11c388d",68,1
"706",0,0,1991,2,2,2,"11c388d",69,1
"7110",0,1,1859,1,5,2,"11c388d",70,1
"726",0,1,1875,1,6,2,"11c388d",71,1
"736",0,0,1898,3,3,2,"11c388d",72,1
"746",0,0,1907,5,5,2,"11c388d",73,1
"756",0,1,1924,1,3,2,"11c388d",74,1
"766",0,0,1945,4,4,2,"11c388d",75,1
"776",0,1,1951,1,2,2,"11c388d",76,1
"786",0,0,1968,6,6,2,"11c388d",77,1
"227",1,1,748,1,1,2,"13eb09d",1,1
"327",1,1,503,3,3,2,"13eb09d",2,1
"427",1,1,426,2,2,2,"13eb09d",3,1
"527",1,1,399,6,6,2,"13eb09d",4,1
"627",1,1,450,5,5,2,"13eb09d",5,1
"720",1,1,391,4,4,2,"13eb09d",6,1
"87",1,0,475,2,1,2,"13eb09d",7,1
"97",1,0,556,3,1,2,"13eb09d",8,1
"107",0,1,731,5,1,2,"13eb09d",9,1
"117",0,1,1252,1,6,2,"13eb09d",10,1
"127",0,1,846,1,4,2,"13eb09d",11,1
"137",0,0,913,3,3,2,"13eb09d",12,1
"147",1,0,301,6,1,2,"13eb09d",13,1
"157",0,0,528,2,2,2,"13eb09d",14,1
"167",1,1,360,1,1,2,"13eb09d",15,1
"177",1,0,556,5,1,2,"13eb09d",16,1
"187",1,1,433,6,6,2,"13eb09d",17,1
"197",0,0,538,4,4,2,"13eb09d",18,1
"207",0,1,651,1,2,2,"13eb09d",19,1
"2111",1,0,525,3,1,2,"13eb09d",20,1
"228",0,0,721,5,5,2,"13eb09d",21,1
"237",1,0,295,4,1,2,"13eb09d",22,1
"247",0,0,487,2,2,2,"13eb09d",23,1
"257",1,1,27,6,6,2,"13eb09d",24,1
"267",1,0,496,5,1,2,"13eb09d",25,1
"277",1,0,429,1,3,2,"13eb09d",26,1
"287",0,0,328,4,4,2,"13eb09d",27,1
"297",0,1,499,2,1,2,"13eb09d",28,1
"307",0,1,678,1,6,2,"13eb09d",29,1
"3111",1,1,502,3,3,2,"13eb09d",30,1
"328",1,1,542,5,5,2,"13eb09d",31,1
"337",0,1,620,1,4,2,"13eb09d",32,1
"347",1,1,949,1,1,2,"13eb09d",33,1
"357",0,1,433,5,1,2,"13eb09d",34,1
"367",1,1,547,4,4,2,"13eb09d",35,1
"377",1,1,317,2,2,2,"13eb09d",36,1
"387",1,0,468,1,2,2,"13eb09d",37,1
"397",0,1,544,6,1,2,"13eb09d",38,1
"407",0,1,739,4,1,2,"13eb09d",39,1
"4111",1,1,550,6,6,2,"13eb09d",40,1
"428",1,1,596,5,5,2,"13eb09d",41,1
"437",1,1,335,3,3,2,"13eb09d",42,1
"447",0,1,400,3,1,2,"13eb09d",43,1
"457",1,1,749,1,1,2,"13eb09d",44,1
"467",1,1,832,1,1,2,"13eb09d",45,1
"477",1,0,286,2,1,2,"13eb09d",46,1
"487",1,1,280,5,5,2,"13eb09d",47,1
"497",1,1,553,6,6,2,"13eb09d",48,1
"507",0,1,675,1,4,2,"13eb09d",49,1
"5111",0,0,529,3,3,2,"13eb09d",50,1
"528",0,1,569,6,1,2,"13eb09d",51,1
"537",0,1,504,1,3,2,"13eb09d",52,1
"547",1,1,523,2,2,2,"13eb09d",53,1
"557",1,1,1046,4,4,2,"13eb09d",54,1
"567",0,1,1169,1,5,2,"13eb09d",55,1
"577",1,1,369,6,6,2,"13eb09d",56,1
"587",0,1,543,6,1,2,"13eb09d",57,1
"597",1,1,658,2,2,2,"13eb09d",58,1
"607",1,1,404,3,3,2,"13eb09d",59,1
"6111",0,1,432,4,1,2,"13eb09d",60,1
"628",0,1,336,3,1,2,"13eb09d",61,1
"637",0,1,1023,1,5,2,"13eb09d",62,1
"647",1,1,289,1,1,2,"13eb09d",63,1
"657",1,1,423,4,4,2,"13eb09d",64,1
"667",1,0,406,1,2,2,"13eb09d",65,1
"677",1,1,521,5,5,2,"13eb09d",66,1
"687",0,1,596,1,3,2,"13eb09d",67,1
"697",0,0,443,3,3,2,"13eb09d",68,1
"707",0,1,650,6,1,2,"13eb09d",69,1
"7111",0,1,555,5,1,2,"13eb09d",70,1
"727",1,0,347,1,2,2,"13eb09d",71,1
"737",1,1,443,2,2,2,"13eb09d",72,1
"747",1,1,335,6,6,2,"13eb09d",73,1
"757",1,1,346,5,5,2,"13eb09d",74,1
"767",0,1,463,1,4,2,"13eb09d",75,1
"777",1,1,320,1,1,2,"13eb09d",76,1
"787",1,1,279,4,4,2,"13eb09d",77,1
"229",0,0,378,4,4,1,"1d8466a",1,1
"329",1,0,494,1,5,1,"1d8466a",2,1
"429",0,0,283,2,2,1,"1d8466a",3,1
"529",0,1,256,3,1,1,"1d8466a",4,1
"629",1,1,247,1,1,1,"1d8466a",5,1
"728",0,0,303,5,5,1,"1d8466a",6,1
"88",0,0,462,6,6,1,"1d8466a",7,1
"98",0,1,289,1,4,1,"1d8466a",8,1
"108",1,0,160,1,6,1,"1d8466a",9,1
"118",1,0,558,2,1,1,"1d8466a",10,1
"128",1,1,1333,3,3,1,"1d8466a",11,1
"138",1,1,308,1,1,1,"1d8466a",12,1
"148",0,1,313,1,6,1,"1d8466a",13,1
"158",0,0,410,5,5,1,"1d8466a",14,1
"168",0,0,393,3,3,1,"1d8466a",15,1
"178",1,1,248,4,4,1,"1d8466a",16,1
"188",0,1,469,3,1,1,"1d8466a",17,1
"198",0,0,508,6,6,1,"1d8466a",18,1
"208",1,0,551,1,2,1,"1d8466a",19,1
"2112",0,1,237,5,1,1,"1d8466a",20,1
"2210",0,0,535,2,2,1,"1d8466a",21,1
"238",0,1,235,4,1,1,"1d8466a",22,1
"248",1,0,442,6,1,1,"1d8466a",23,1
"258",0,0,535,6,6,1,"1d8466a",24,1
"268",1,1,458,5,5,1,"1d8466a",25,1
"278",0,0,266,3,3,1,"1d8466a",26,1
"288",0,0,1043,1,1,1,"1d8466a",27,1
"298",1,0,640,1,3,1,"1d8466a",28,1
"308",1,1,689,4,4,1,"1d8466a",29,1
"3112",0,1,412,1,2,1,"1d8466a",30,1
"3210",1,0,268,5,1,1,"1d8466a",31,1
"338",0,1,289,4,1,1,"1d8466a",32,1
"348",1,1,358,2,2,1,"1d8466a",33,1
"358",1,1,237,3,3,1,"1d8466a",34,1
"368",1,1,1004,5,5,1,"1d8466a",35,1
"378",0,0,382,4,4,1,"1d8466a",36,1
"388",0,1,528,1,4,1,"1d8466a",37,1
"398",1,0,273,1,6,1,"1d8466a",38,1
"408",0,0,457,6,6,1,"1d8466a",39,1
"4112",0,1,1159,1,5,1,"1d8466a",40,1
"4210",0,1,486,1,3,1,"1d8466a",41,1
"438",1,1,478,2,2,1,"1d8466a",42,1
"448",0,1,500,1,2,1,"1d8466a",43,1
"458",0,0,253,1,1,1,"1d8466a",44,1
"468",1,1,222,6,6,1,"1d8466a",45,1
"478",1,1,157,3,3,1,"1d8466a",46,1
"488",0,1,317,3,1,1,"1d8466a",47,1
"498",0,1,843,2,1,1,"1d8466a",48,1
"508",1,0,297,6,1,1,"1d8466a",49,1
"5112",1,0,382,1,5,1,"1d8466a",50,1
"5210",0,1,880,4,1,1,"1d8466a",51,1
"538",1,1,451,1,1,1,"1d8466a",52,1
"548",0,0,672,4,4,1,"1d8466a",53,1
"558",0,0,375,5,5,1,"1d8466a",54,1
"568",0,0,247,2,2,1,"1d8466a",55,1
"578",0,0,505,5,5,1,"1d8466a",56,1
"588",1,0,799,4,1,1,"1d8466a",57,1
"598",0,0,1021,6,6,1,"1d8466a",58,1
"608",1,1,413,1,1,1,"1d8466a",59,1
"6112",0,0,527,3,3,1,"1d8466a",60,1
"6210",0,1,302,1,3,1,"1d8466a",61,1
"638",0,1,299,6,1,1,"1d8466a",62,1
"648",0,0,665,4,4,1,"1d8466a",63,1
"658",0,1,310,1,2,1,"1d8466a",64,1
"668",0,0,331,2,2,1,"1d8466a",65,1
"678",1,0,340,5,1,1,"1d8466a",66,1
"688",1,1,217,4,4,1,"1d8466a",67,1
"698",0,1,205,1,3,1,"1d8466a",68,1
"708",0,0,390,6,6,1,"1d8466a",69,1
"7112",0,1,428,4,1,1,"1d8466a",70,1
"729",0,1,281,1,5,1,"1d8466a",71,1
"738",0,1,280,1,6,1,"1d8466a",72,1
"748",0,0,250,3,3,1,"1d8466a",73,1
"758",1,1,360,5,5,1,"1d8466a",74,1
"768",0,1,189,1,2,1,"1d8466a",75,1
"778",0,0,314,1,1,1,"1d8466a",76,1
"788",0,0,757,2,2,1,"1d8466a",77,1
"230",1,1,771,2,2,3,"13ae891",1,1
"330",1,1,676,1,1,3,"13ae891",2,1
"430",1,1,588,3,3,3,"13ae891",3,1
"530",1,1,686,5,5,3,"13ae891",4,1
"630",0,1,711,1,6,3,"13ae891",5,1
"730",0,1,566,4,1,3,"13ae891",6,1
"89",0,1,565,3,1,3,"13ae891",7,1
"99",0,1,738,2,1,3,"13ae891",8,1
"109",1,1,673,6,6,3,"13ae891",9,1
"119",1,1,795,4,4,3,"13ae891",10,1
"129",0,1,601,1,5,3,"13ae891",11,1
"139",0,1,704,1,3,3,"13ae891",12,1
"149",1,1,699,4,4,3,"13ae891",13,1
"159",1,0,563,1,2,3,"13ae891",14,1
"169",1,1,780,3,3,3,"13ae891",15,1
"179",0,1,965,4,1,3,"13ae891",16,1
"189",1,1,529,1,1,3,"13ae891",17,1
"199",1,1,708,5,5,3,"13ae891",18,1
"209",0,1,551,1,5,3,"13ae891",19,1
"2113",1,1,720,2,2,3,"13ae891",20,1
"2211",1,1,760,6,6,3,"13ae891",21,1
"239",0,1,1049,6,1,3,"13ae891",22,1
"249",0,1,1235,1,4,3,"13ae891",23,1
"259",1,1,775,3,3,3,"13ae891",24,1
"269",0,1,563,1,5,3,"13ae891",25,1
"279",0,1,1242,3,1,3,"13ae891",26,1
"289",0,1,698,1,6,3,"13ae891",27,1
"299",1,1,704,6,6,3,"13ae891",28,1
"309",1,1,1834,1,1,3,"13ae891",29,1
"3113",1,1,861,5,5,3,"13ae891",30,1
"3211",1,0,723,2,1,3,"13ae891",31,1
"339",1,1,737,4,4,3,"13ae891",32,1
"349",1,1,514,2,2,3,"13ae891",33,1
"359",1,1,762,5,5,3,"13ae891",34,1
"369",1,1,1133,4,4,3,"13ae891",35,1
"379",0,1,1986,1,5,3,"13ae891",36,1
"389",0,1,621,6,1,3,"13ae891",37,1
"399",1,1,389,6,6,3,"13ae891",38,1
"409",1,1,566,1,1,3,"13ae891",39,1
"4113",1,1,679,2,2,3,"13ae891",40,1
"4211",1,1,671,3,3,3,"13ae891",41,1
"439",0,1,993,4,1,3,"13ae891",42,1
"449",0,1,110,1,3,3,"13ae891",43,1
"459",0,1,725,1,2,3,"13ae891",44,1
"469",1,1,880,4,4,3,"13ae891",45,1
"479",1,1,903,3,3,3,"13ae891",46,1
"489",1,1,792,2,2,3,"13ae891",47,1
"499",0,1,726,1,2,3,"13ae891",48,1
"509",1,1,734,5,5,3,"13ae891",49,1
"5113",0,1,720,3,1,3,"13ae891",50,1
"5211",0,0,699,1,1,3,"13ae891",51,1
"539",0,1,311,1,5,3,"13ae891",52,1
"549",0,1,273,6,1,3,"13ae891",53,1
"559",1,1,1043,6,6,3,"13ae891",54,1
"569",0,1,936,4,1,3,"13ae891",55,1
"579",0,1,745,3,1,3,"13ae891",56,1
"589",1,1,822,5,5,3,"13ae891",57,1
"599",1,0,726,2,1,3,"13ae891",58,1
"609",0,1,1117,6,1,3,"13ae891",59,1
"6113",1,1,879,1,1,3,"13ae891",60,1
"6211",0,1,767,5,1,3,"13ae891",61,1
"639",1,1,898,2,2,3,"13ae891",62,1
"649",1,1,1040,3,3,3,"13ae891",63,1
"659",1,1,1012,6,6,3,"13ae891",64,1
"669",0,1,809,4,1,3,"13ae891",65,1
"679",1,1,988,4,4,3,"13ae891",66,1
"689",1,1,725,6,6,3,"13ae891",67,1
"699",1,1,964,2,2,3,"13ae891",68,1
"709",0,1,806,5,1,3,"13ae891",69,1
"7113",1,0,890,2,1,3,"13ae891",70,1
"7210",0,1,1039,1,3,3,"13ae891",71,1
"739",0,1,1070,4,1,3,"13ae891",72,1
"749",0,0,637,3,3,3,"13ae891",73,1
"759",1,1,1038,1,1,3,"13ae891",74,1
"769",0,1,758,1,6,3,"13ae891",75,1
"779",1,1,1247,5,5,3,"13ae891",76,1
"789",1,1,1492,4,4,3,"13ae891",77,1
"240",1,0,649,1,5,1,"1615652",1,1
"340",1,0,295,4,1,1,"1615652",2,1
"440",0,0,319,4,4,1,"1615652",3,1
"540",1,1,1197,1,1,1,"1615652",4,1
"640",1,1,303,5,5,1,"1615652",5,1
"740",-1,-1,0,6,1,1,"1615652",6,1
"810",1,1,583,3,3,1,"1615652",7,1
"910",0,1,312,3,1,1,"1615652",8,1
"1010",1,1,26,2,2,1,"1615652",9,1
"1110",0,0,1723,6,6,1,"1615652",10,1
"1210",1,0,405,2,1,1,"1615652",11,1
"1310",0,1,559,3,1,1,"1615652",12,1
"1410",1,1,527,2,2,1,"1615652",13,1
"1510",-1,-1,0,6,6,1,"1615652",14,1
"1610",0,0,385,3,3,1,"1615652",15,1
"1710",1,0,390,1,4,1,"1615652",16,1
"1810",-1,-1,0,1,5,1,"1615652",17,1
"1910",0,1,446,6,1,1,"1615652",18,1
"2010",1,1,251,1,1,1,"1615652",19,1
"2114",-1,-1,0,5,5,1,"1615652",20,1
"2212",-1,-1,0,4,4,1,"1615652",21,1
"2310",1,0,327,1,2,1,"1615652",22,1
"2410",0,1,303,1,6,1,"1615652",23,1
"2510",-1,-1,0,4,1,1,"1615652",24,1
"2610",-1,-1,0,1,5,1,"1615652",25,1
"2710",-1,-1,0,1,2,1,"1615652",26,1
"2810",1,0,508,3,1,1,"1615652",27,1
"2910",1,1,609,3,3,1,"1615652",28,1
"3010",-1,-1,0,4,4,1,"1615652",29,1
"3114",0,0,485,1,1,1,"1615652",30,1
"3212",0,0,1306,5,5,1,"1615652",31,1
"3310",1,1,1859,2,2,1,"1615652",32,1
"3410",1,1,589,6,6,1,"1615652",33,1
"3510",1,0,630,3,1,1,"1615652",34,1
"3610",1,0,1052,5,1,1,"1615652",35,1
"3710",1,1,464,4,4,1,"1615652",36,1
"3810",1,1,479,6,6,1,"1615652",37,1
"3910",1,1,1160,1,1,1,"1615652",38,1
"4010",-1,-1,0,3,3,1,"1615652",39,1
"4114",1,1,1119,5,5,1,"1615652",40,1
"4212",1,0,980,2,1,1,"1615652",41,1
"4310",-1,-1,0,2,2,1,"1615652",42,1
"4410",1,0,425,1,4,1,"1615652",43,1
"4510",1,0,1396,1,6,1,"1615652",44,1
"4610",-1,-1,0,6,6,1,"1615652",45,1
"4710",0,0,310,3,3,1,"1615652",46,1
"4810",1,0,917,1,4,1,"1615652",47,1
"4910",1,1,738,5,5,1,"1615652",48,1
"5010",1,0,1343,6,1,1,"1615652",49,1
"5114",-1,-1,0,2,2,1,"1615652",50,1
"5212",0,1,1964,1,2,1,"1615652",51,1
"5310",-1,-1,0,1,5,1,"1615652",52,1
"5410",-1,NA,NA,NA,NA,NA,"1615652",53,1
"250",1,0,995,1,6,2,"1481c53",1,1
"350",1,1,1387,4,4,2,"1481c53",2,1
"450",0,1,722,5,1,2,"1481c53",3,1
"550",1,1,323,5,5,2,"1481c53",4,1
"650",1,0,492,1,3,2,"1481c53",5,1
"750",1,0,445,1,2,2,"1481c53",6,1
"811",1,1,616,2,2,2,"1481c53",7,1
"911",1,1,475,1,1,2,"1481c53",8,1
"1011",0,0,491,3,3,2,"1481c53",9,1
"1111",0,0,347,6,6,2,"1481c53",10,1
"1211",0,1,316,1,4,2,"1481c53",11,1
"1311",1,1,428,1,1,2,"1481c53",12,1
"1411",1,1,231,5,5,2,"1481c53",13,1
"1511",1,1,4,2,2,2,"1481c53",14,1
"1611",1,1,561,3,3,2,"1481c53",15,1
"1711",1,1,347,4,4,2,"1481c53",16,1
"1811",1,1,331,6,6,2,"1481c53",17,1
"1911",0,1,410,6,1,2,"1481c53",18,1
"2011",0,1,348,1,5,2,"1481c53",19,1
"2115",0,1,298,1,2,2,"1481c53",20,1
"2213",0,1,227,1,4,2,"1481c53",21,1
"2311",0,1,139,3,1,2,"1481c53",22,1
"2411",0,1,720,5,1,2,"1481c53",23,1
"2511",0,1,171,2,1,2,"1481c53",24,1
"2611",1,1,434,1,1,2,"1481c53",25,1
"2711",0,1,207,1,6,2,"1481c53",26,1
"2811",1,1,526,2,2,2,"1481c53",27,1
"2911",1,1,112,4,4,2,"1481c53",28,1
"3011",1,1,218,5,5,2,"1481c53",29,1
"3115",1,1,603,6,6,2,"1481c53",30,1
"3213",1,1,279,3,3,2,"1481c53",31,1
"3311",0,1,183,1,3,2,"1481c53",32,1
"3411",0,1,181,1,4,2,"1481c53",33,1
"3511",0,1,291,4,1,2,"1481c53",34,1
"3611",1,1,509,4,4,2,"1481c53",35,1
"3711",0,1,515,2,1,2,"1481c53",36,1
"3811",1,1,290,3,3,2,"1481c53",37,1
"3911",1,1,79,6,6,2,"1481c53",38,1
"4011",0,0,370,1,1,2,"1481c53",39,1
"4115",0,1,429,6,1,2,"1481c53",40,1
"4213",1,1,574,5,5,2,"1481c53",41,1
"4311",0,0,133,2,2,2,"1481c53",42,1
"4411",0,1,39,1,3,2,"1481c53",43,1
"4511",0,1,732,1,5,2,"1481c53",44,1
"4611",1,1,31,1,1,2,"1481c53",45,1
"4711",1,1,391,3,3,2,"1481c53",46,1
"4811",0,1,145,3,1,2,"1481c53",47,1
"4911",0,1,246,1,4,2,"1481c53",48,1
"5011",0,1,561,6,1,2,"1481c53",49,1
"5115",0,1,1293,5,1,2,"1481c53",50,1
"5213",1,1,624,6,6,2,"1481c53",51,1
"5311",1,0,119,1,2,2,"1481c53",52,1
"5411",1,1,962,2,2,2,"1481c53",53,1
"5510",1,1,121,5,5,2,"1481c53",54,1
"5610",1,1,208,4,4,2,"1481c53",55,1
"5710",1,1,315,5,5,2,"1481c53",56,1
"5810",1,1,131,1,1,2,"1481c53",57,1
"5910",1,1,115,6,6,2,"1481c53",58,1
"6010",0,1,139,1,2,2,"1481c53",59,1
"6114",0,1,896,1,5,2,"1481c53",60,1
"6212",1,1,475,4,4,2,"1481c53",61,1
"6310",0,0,323,2,2,2,"1481c53",62,1
"6410",0,0,507,3,3,2,"1481c53",63,1
"6510",0,1,141,4,1,2,"1481c53",64,1
"6610",0,1,234,1,3,2,"1481c53",65,1
"6710",0,1,735,1,6,2,"1481c53",66,1
"6810",1,1,1546,4,4,2,"1481c53",67,1
"6910",0,1,263,1,6,2,"1481c53",68,1
"7010",1,1,274,3,3,2,"1481c53",69,1
"7114",0,1,500,1,5,2,"1481c53",70,1
"7211",1,1,444,2,2,2,"1481c53",71,1
"7310",0,0,315,1,1,2,"1481c53",72,1
"7410",0,1,863,4,1,2,"1481c53",73,1
"7510",0,0,459,6,6,2,"1481c53",74,1
"7610",0,1,782,2,1,2,"1481c53",75,1
"7710",1,1,942,5,5,2,"1481c53",76,1
"7810",0,1,516,1,3,2,"1481c53",77,1
"260",0,0,696,6,6,3,"1f8dc42",1,1
"360",1,1,563,4,4,3,"1f8dc42",2,1
"460",1,0,369,4,1,3,"1f8dc42",3,1
"560",0,0,294,2,2,3,"1f8dc42",4,1
"660",0,1,277,6,1,3,"1f8dc42",5,1
"760",1,0,327,5,1,3,"1f8dc42",6,1
"812",0,1,265,1,3,3,"1f8dc42",7,1
"912",0,0,272,1,1,3,"1f8dc42",8,1
"1012",1,1,273,3,3,3,"1f8dc42",9,1
"1112",0,0,358,5,5,3,"1f8dc42",10,1
"1212",1,0,243,1,2,3,"1f8dc42",11,1
"1312",0,0,449,2,2,3,"1f8dc42",12,1
"1412",1,1,403,6,6,3,"1f8dc42",13,1
"1512",1,0,324,1,5,3,"1f8dc42",14,1
"1612",1,0,588,3,1,3,"1f8dc42",15,1
"1712",0,1,366,1,4,3,"1f8dc42",16,1
"1812",0,1,364,1,6,3,"1f8dc42",17,1
"1912",1,1,450,4,4,3,"1f8dc42",18,1
"2012",1,1,289,3,3,3,"1f8dc42",19,1
"2116",1,1,371,5,5,3,"1f8dc42",20,1
"2214",1,0,580,1,2,3,"1f8dc42",21,1
"2312",0,0,290,1,1,3,"1f8dc42",22,1
"2412",1,0,206,2,1,3,"1f8dc42",23,1
"2512",1,1,552,4,4,3,"1f8dc42",24,1
"2612",0,1,1124,6,1,3,"1f8dc42",25,1
"2712",0,0,320,3,3,3,"1f8dc42",26,1
"2812",0,0,541,1,1,3,"1f8dc42",27,1
"2912",1,0,363,4,1,3,"1f8dc42",28,1
"3012",0,0,400,6,6,3,"1f8dc42",29,1
"3116",1,1,528,2,2,3,"1f8dc42",30,1
"3214",0,0,349,5,5,3,"1f8dc42",31,1
"3312",0,1,396,1,5,3,"1f8dc42",32,1
"3412",1,0,482,3,1,3,"1f8dc42",33,1
"3512",0,1,302,4,1,3,"1f8dc42",34,1
"3612",0,1,345,1,3,3,"1f8dc42",35,1
"3712",1,1,250,4,4,3,"1f8dc42",36,1
"3812",1,1,280,6,6,3,"1f8dc42",37,1
"3912",0,0,503,1,1,3,"1f8dc42",38,1
"4012",1,0,453,1,6,3,"1f8dc42",39,1
"4116",1,0,1358,1,5,3,"1f8dc42",40,1
"4214",0,0,886,5,5,3,"1f8dc42",41,1
"4312",1,1,429,3,3,3,"1f8dc42",42,1
"4412",-1,-1,0,2,2,3,"1f8dc42",43,1
"4512",0,1,301,1,2,3,"1f8dc42",44,1
"4612",0,1,286,5,1,3,"1f8dc42",45,1
"4712",1,1,338,5,5,3,"1f8dc42",46,1
"4812",1,1,319,4,4,3,"1f8dc42",47,1
"4912",1,1,542,1,1,3,"1f8dc42",48,1
"5012",1,1,370,6,6,3,"1f8dc42",49,1
"5116",1,1,263,2,2,3,"1f8dc42",50,1
"5214",-1,-1,0,6,1,3,"1f8dc42",51,1
"5312",0,1,823,3,1,3,"1f8dc42",52,1
"5412",0,0,1112,3,3,3,"1f8dc42",53,1
"5511",1,0,1495,4,1,3,"1f8dc42",54,1
"5611",0,1,672,2,1,3,"1f8dc42",55,1
"5711",1,1,2007,3,3,3,"1f8dc42",56,1
"5811",0,0,1081,1,1,3,"1f8dc42",57,1
"5911",1,1,837,5,5,3,"1f8dc42",58,1
"6011",0,0,805,2,2,3,"1f8dc42",59,1
"6115",1,1,712,6,6,3,"1f8dc42",60,1
"6213",0,1,414,5,1,3,"1f8dc42",61,1
"6311",0,0,584,4,4,3,"1f8dc42",62,1
"6411",1,0,1787,1,4,3,"1f8dc42",63,1
"6511",0,1,810,6,1,3,"1f8dc42",64,1
"6611",1,0,417,2,1,3,"1f8dc42",65,1
"6711",1,0,253,1,3,3,"1f8dc42",66,1
"6811",0,0,338,1,1,3,"1f8dc42",67,1
"6911",1,0,1321,1,4,3,"1f8dc42",68,1
"7011",0,0,406,5,5,3,"1f8dc42",69,1
"7115",1,1,541,2,2,3,"1f8dc42",70,1
"7212",0,0,1263,4,4,3,"1f8dc42",71,1
"7311",1,0,560,1,5,3,"1f8dc42",72,1
"7411",0,0,299,3,3,3,"1f8dc42",73,1
"7511",0,1,202,2,1,3,"1f8dc42",74,1
"7611",0,0,1035,6,6,3,"1f8dc42",75,1
"7711",1,0,406,6,1,3,"1f8dc42",76,1
"7811",0,1,352,1,3,3,"1f8dc42",77,1
"270",1,1,468,1,1,1,"15fe165",1,1
"370",1,0,385,1,2,1,"15fe165",2,1
"470",1,0,321,1,3,1,"15fe165",3,1
"570",0,1,320,1,6,1,"15fe165",4,1
"670",0,1,368,1,4,1,"15fe165",5,1
"770",0,1,385,5,1,1,"15fe165",6,1
"813",1,1,268,6,6,1,"15fe165",7,1
"913",1,1,255,4,4,1,"15fe165",8,1
"1013",1,1,285,2,2,1,"15fe165",9,1
"1113",1,1,270,5,5,1,"15fe165",10,1
"1213",1,1,287,3,3,1,"15fe165",11,1
"1313",1,0,306,1,2,1,"15fe165",12,1
"1413",1,1,276,6,6,1,"15fe165",13,1
"1513",1,1,295,3,3,1,"15fe165",14,1
"1613",1,1,270,1,1,1,"15fe165",15,1
"1713",1,1,346,2,2,1,"15fe165",16,1
"1813",0,1,397,1,3,1,"15fe165",17,1
"1913",1,1,259,5,5,1,"15fe165",18,1
"2013",0,1,289,1,6,1,"15fe165",19,1
"2117",0,1,643,1,4,1,"15fe165",20,1
"2215",0,0,801,4,4,1,"15fe165",21,1
"2313",0,1,897,5,1,1,"15fe165",22,1
"2413",0,1,388,1,2,1,"15fe165",23,1
"2513",0,1,344,1,6,1,"15fe165",24,1
"2613",0,1,373,1,5,1,"15fe165",25,1
"2713",1,1,348,6,6,1,"15fe165",26,1
"2813",1,1,555,4,4,1,"15fe165",27,1
"2913",1,1,255,1,1,1,"15fe165",28,1
"3013",0,1,365,1,4,1,"15fe165",29,1
"3117",0,1,289,1,3,1,"15fe165",30,1
"3215",1,1,814,3,3,1,"15fe165",31,1
"3313",1,1,285,5,5,1,"15fe165",32,1
"3413",1,1,318,2,2,1,"15fe165",33,1
"3513",1,1,270,2,2,1,"15fe165",34,1
"3613",1,1,687,3,3,1,"15fe165",35,1
"3713",1,1,130,6,6,1,"15fe165",36,1
"3813",0,1,287,2,1,1,"15fe165",37,1
"3913",-1,-1,0,1,4,1,"15fe165",38,1
"4013",0,1,428,1,3,1,"15fe165",39,1
"4117",1,1,316,4,4,1,"15fe165",40,1
"4215",0,1,621,1,5,1,"15fe165",41,1
"4313",1,1,769,5,5,1,"15fe165",42,1
"4413",1,1,830,1,1,1,"15fe165",43,1
"4513",0,1,715,6,1,1,"15fe165",44,1
"4613",1,1,315,5,5,1,"15fe165",45,1
"4713",1,1,333,4,4,1,"15fe165",46,1
"4813",0,1,605,1,4,1,"15fe165",47,1
"4913",0,1,476,1,3,1,"15fe165",48,1
"5013",0,1,296,1,2,1,"15fe165",49,1
"5117",1,1,266,2,2,1,"15fe165",50,1
"5215",0,1,506,6,1,1,"15fe165",51,1
"5313",1,1,540,6,6,1,"15fe165",52,1
"5413",0,1,475,5,1,1,"15fe165",53,1
"5512",1,1,394,1,1,1,"15fe165",54,1
"5612",1,1,346,3,3,1,"15fe165",55,1
"5712",1,1,332,1,1,1,"15fe165",56,1
"5812",0,1,312,6,1,1,"15fe165",57,1
"5912",1,1,379,6,6,1,"15fe165",58,1
"6012",1,1,444,5,5,1,"15fe165",59,1
"6116",1,1,331,2,2,1,"15fe165",60,1
"6214",0,1,315,2,1,1,"15fe165",61,1
"6312",0,1,364,1,5,1,"15fe165",62,1
"6412",1,1,279,3,3,1,"15fe165",63,1
"6512",1,1,556,4,4,1,"15fe165",64,1
"6612",0,1,538,3,1,1,"15fe165",65,1
"6712",0,1,539,1,4,1,"15fe165",66,1
"6812",1,1,265,3,3,1,"15fe165",67,1
"6912",0,1,570,4,1,1,"15fe165",68,1
"7012",0,1,357,1,5,1,"15fe165",69,1
"7116",1,1,504,5,5,1,"15fe165",70,1
"7213",0,1,311,1,2,1,"15fe165",71,1
"7312",1,1,297,1,1,1,"15fe165",72,1
"7412",0,1,248,3,1,1,"15fe165",73,1
"7512",0,1,347,6,1,1,"15fe165",74,1
"7612",1,1,764,4,4,1,"15fe165",75,1
"7712",1,1,446,2,2,1,"15fe165",76,1
"7812",1,1,328,6,6,1,"15fe165",77,1
"280",1,1,648,6,6,3,"113290a",1,1
"380",1,0,316,6,1,3,"113290a",2,1
"480",1,1,305,5,5,3,"113290a",3,1
"580",1,1,301,2,2,3,"113290a",4,1
"680",1,1,416,1,1,3,"113290a",5,1
"780",1,0,273,3,1,3,"113290a",6,1
"814",1,1,313,4,4,3,"113290a",7,1
"914",0,1,552,2,1,3,"113290a",8,1
"1014",0,0,407,3,3,3,"113290a",9,1
"1114",1,0,330,1,4,3,"113290a",10,1
"1214",1,0,410,1,5,3,"113290a",11,1
"1314",0,0,431,6,6,3,"113290a",12,1
"1414",1,0,331,1,3,3,"113290a",13,1
"1514",1,0,384,1,6,3,"113290a",14,1
"1614",1,1,322,1,1,3,"113290a",15,1
"1714",0,0,304,3,3,3,"113290a",16,1
"1814",0,0,316,4,4,3,"113290a",17,1
"1914",1,0,859,5,1,3,"113290a",18,1
"2014",0,0,329,5,5,3,"113290a",19,1
"2118",1,1,1963,2,2,3,"113290a",20,1
"2216",1,0,457,1,2,3,"113290a",21,1
"2314",-1,-1,0,4,1,3,"113290a",22,1
"2414",0,0,481,2,2,3,"113290a",23,1
"2514",1,1,323,4,4,3,"113290a",24,1
"2614",0,1,424,1,5,3,"113290a",25,1
"2714",0,1,339,6,1,3,"113290a",26,1
"2814",0,0,291,6,6,3,"113290a",27,1
"2914",1,1,573,1,1,3,"113290a",28,1
"3014",1,1,306,3,3,3,"113290a",29,1
"3118",1,1,278,5,5,3,"113290a",30,1
"3216",1,0,456,1,2,3,"113290a",31,1
"3314",0,1,393,1,3,3,"113290a",32,1
"3414",1,0,532,4,1,3,"113290a",33,1
"3514",1,0,306,1,2,3,"113290a",34,1
"3614",1,1,504,1,1,3,"113290a",35,1
"3714",1,1,655,5,5,3,"113290a",36,1
"3814",0,1,344,4,1,3,"113290a",37,1
"3914",0,1,283,5,1,3,"113290a",38,1
"4014",0,1,484,3,1,3,"113290a",39,1
"4118",1,0,348,6,1,3,"113290a",40,1
"4216",0,0,459,4,4,3,"113290a",41,1
"4314",0,0,410,2,2,3,"113290a",42,1
"4414",1,1,818,3,3,3,"113290a",43,1
"4514",1,1,1221,6,6,3,"113290a",44,1
"4614",0,1,1121,6,1,3,"113290a",45,1
"4714",1,1,1730,2,2,3,"113290a",46,1
"4814",0,1,969,4,1,3,"113290a",47,1
"4914",1,1,706,5,5,3,"113290a",48,1
"5014",1,1,970,4,4,3,"113290a",49,1
"5118",1,1,1246,1,1,3,"113290a",50,1
"5216",0,1,811,1,5,3,"113290a",51,1
"5314",1,1,640,6,6,3,"113290a",52,1
"5414",1,1,602,3,3,3,"113290a",53,1
"5513",0,1,267,3,1,3,"113290a",54,1
"5613",0,1,301,2,1,3,"113290a",55,1
"5713",0,1,869,1,5,3,"113290a",56,1
"5813",0,1,961,1,4,3,"113290a",57,1
"5913",1,1,551,4,4,3,"113290a",58,1
"6013",0,1,370,3,1,3,"113290a",59,1
"6117",1,1,607,3,3,3,"113290a",60,1
"6215",0,1,257,1,6,3,"113290a",61,1
"6313",1,1,758,5,5,3,"113290a",62,1
"6413",1,1,938,1,1,3,"113290a",63,1
"6513",0,1,973,2,1,3,"113290a",64,1
"6613",1,1,1016,6,6,3,"113290a",65,1
"6713",1,1,1609,2,2,3,"113290a",66,1
"6813",1,1,740,5,5,3,"113290a",67,1
"6913",1,1,595,3,3,3,"113290a",68,1
"7013",1,1,794,4,4,3,"113290a",69,1
"7117",1,1,533,1,1,3,"113290a",70,1
"7214",1,1,841,2,2,3,"113290a",71,1
"7313",0,1,1103,3,1,3,"113290a",72,1
"7413",0,1,1098,6,1,3,"113290a",73,1
"7513",0,1,1084,2,1,3,"113290a",74,1
"7613",0,1,1089,1,5,3,"113290a",75,1
"7713",0,1,546,1,4,3,"113290a",76,1
"7813",1,1,471,6,6,3,"113290a",77,1
"290",0,1,816,1,6,1,"1582354",1,1
"390",0,1,330,1,5,1,"1582354",2,1
"490",1,1,353,5,5,1,"1582354",3,1
"590",1,1,354,4,4,1,"1582354",4,1
"690",1,1,358,1,1,1,"1582354",5,1
"790",1,1,406,3,3,1,"1582354",6,1
"815",0,1,317,1,4,1,"1582354",7,1
"915",0,1,334,1,3,1,"1582354",8,1
"1015",0,1,314,1,2,1,"1582354",9,1
"1115",1,1,550,6,6,1,"1582354",10,1
"1215",1,1,366,2,2,1,"1582354",11,1
"1315",1,1,508,5,5,1,"1582354",12,1
"1415",1,1,493,1,1,1,"1582354",13,1
"1515",0,1,382,1,6,1,"1582354",14,1
"1615",1,1,462,3,3,1,"1582354",15,1
"1715",0,1,573,1,4,1,"1582354",16,1
"1815",1,1,452,4,4,1,"1582354",17,1
"1915",1,0,467,2,1,1,"1582354",18,1
"2015",1,1,317,2,2,1,"1582354",19,1
"2119",1,1,982,6,6,1,"1582354",20,1
"2217",0,1,256,1,3,1,"1582354",21,1
"2315",0,1,504,5,1,1,"1582354",22,1
"2415",0,1,1393,1,2,1,"1582354",23,1
"2515",0,1,416,6,1,1,"1582354",24,1
"2615",1,1,479,1,1,1,"1582354",25,1
"2715",1,1,852,5,5,1,"1582354",26,1
"2815",1,1,307,2,2,1,"1582354",27,1
"2915",1,1,389,6,6,1,"1582354",28,1
"3015",0,1,288,1,5,1,"1582354",29,1
"3119",1,1,80,3,3,1,"1582354",30,1
"3217",0,1,330,1,4,1,"1582354",31,1
"3315",1,1,890,4,4,1,"1582354",32,1
"3415",0,1,343,1,3,1,"1582354",33,1
"3515",1,1,79,4,4,1,"1582354",34,1
"3615",1,1,1008,1,1,1,"1582354",35,1
"3715",0,1,839,6,1,1,"1582354",36,1
"3815",0,1,927,5,1,1,"1582354",37,1
"3915",1,0,478,2,1,1,"1582354",38,1
"4015",0,1,504,1,4,1,"1582354",39,1
"4119",1,1,353,3,3,1,"1582354",40,1
"4217",1,1,979,2,2,1,"1582354",41,1
"4315",1,1,579,5,5,1,"1582354",42,1
"4415",1,1,277,6,6,1,"1582354",43,1
"4515",0,1,533,1,3,1,"1582354",44,1
"4615",1,1,1998,2,2,1,"1582354",45,1
"4715",1,1,1895,5,5,1,"1582354",46,1
"4815",0,1,1891,3,1,1,"1582354",47,1
"4915",0,1,1845,1,4,1,"1582354",48,1
"5015",0,1,581,1,6,1,"1582354",49,1
"5119",1,1,308,6,6,1,"1582354",50,1
"5217",1,1,102,4,4,1,"1582354",51,1
"5315",1,1,190,3,3,1,"1582354",52,1
"5415",1,1,326,1,1,1,"1582354",53,1
"5514",0,1,313,1,5,1,"1582354",54,1
"5614",0,1,179,2,1,1,"1582354",55,1
"5714",1,1,337,2,2,1,"1582354",56,1
"5814",1,0,49,1,2,1,"1582354",57,1
"5914",0,1,368,1,3,1,"1582354",58,1
"6014",1,1,368,6,6,1,"1582354",59,1
"6118",0,1,55,1,6,1,"1582354",60,1
"6216",1,1,384,3,3,1,"1582354",61,1
"6314",0,1,409,4,1,1,"1582354",62,1
"6414",1,1,376,5,5,1,"1582354",63,1
"6514",1,1,111,1,1,1,"1582354",64,1
"6614",0,1,712,1,5,1,"1582354",65,1
"6714",1,1,400,4,4,1,"1582354",66,1
"6814",1,1,385,4,4,1,"1582354",67,1
"6914",0,1,333,1,5,1,"1582354",68,1
"7014",1,1,647,6,6,1,"1582354",69,1
"7118",1,1,211,3,3,1,"1582354",70,1
"7215",0,1,20,6,1,1,"1582354",71,1
"7314",0,1,278,1,2,1,"1582354",72,1
"7414",1,1,155,5,5,1,"1582354",73,1
"7514",0,1,325,4,1,1,"1582354",74,1
"7614",0,1,577,1,3,1,"1582354",75,1
"7714",1,1,370,1,1,1,"1582354",76,1
"7814",1,1,308,2,2,1,"1582354",77,1
"2100",-1,-1,0,5,5,3,"1e4e351",1,1
"3100",-1,-1,0,1,5,3,"1e4e351",2,1
"4100",1,1,315,6,6,3,"1e4e351",3,1
"5100",1,0,360,6,1,3,"1e4e351",4,1
"6100",1,1,321,4,4,3,"1e4e351",5,1
"791",1,1,304,3,3,3,"1e4e351",6,1
"816",1,1,360,1,1,3,"1e4e351",7,1
"916",1,0,326,2,1,3,"1e4e351",8,1
"1016",1,0,347,1,4,3,"1e4e351",9,1
"1116",1,0,233,1,3,3,"1e4e351",10,1
"1216",0,0,270,2,2,3,"1e4e351",11,1
"1316",1,1,360,4,4,3,"1e4e351",12,1
"1416",1,0,366,4,1,3,"1e4e351",13,1
"1516",1,1,391,2,2,3,"1e4e351",14,1
"1616",1,1,253,1,1,3,"1e4e351",15,1
"1716",1,1,265,5,5,3,"1e4e351",16,1
"1816",1,0,282,1,3,3,"1e4e351",17,1
"1916",1,0,28,5,1,3,"1e4e351",18,1
"2016",1,1,231,6,6,3,"1e4e351",19,1
"2120",1,1,278,3,3,3,"1e4e351",20,1
"2218",1,0,304,1,6,3,"1e4e351",21,1
"2316",1,0,291,2,1,3,"1e4e351",22,1
"2416",0,0,448,1,1,3,"1e4e351",23,1
"2516",1,1,279,4,4,3,"1e4e351",24,1
"2616",1,0,591,1,5,3,"1e4e351",25,1
"2716",-1,-1,0,2,2,3,"1e4e351",26,1
"2816",1,0,248,4,1,3,"1e4e351",27,1
"2916",1,1,468,3,3,3,"1e4e351",28,1
"3016",1,0,350,1,3,3,"1e4e351",29,1
"3120",1,0,703,1,6,3,"1e4e351",30,1
"3218",1,1,632,5,5,3,"1e4e351",31,1
"3316",1,1,426,6,6,3,"1e4e351",32,1
"3416",1,0,252,2,1,3,"1e4e351",33,1
"3516",1,1,289,5,5,3,"1e4e351",34,1
"3616",1,1,285,2,2,3,"1e4e351",35,1
"3716",0,1,293,1,3,3,"1e4e351",36,1
"3816",0,1,360,1,5,3,"1e4e351",37,1
"3916",1,1,432,3,3,3,"1e4e351",38,1
"4016",0,0,270,1,1,3,"1e4e351",39,1
"4120",1,1,529,6,6,3,"1e4e351",40,1
"4218",0,1,512,1,6,3,"1e4e351",41,1
"4316",1,0,338,1,4,3,"1e4e351",42,1
"4416",0,1,427,1,2,3,"1e4e351",43,1
"4516",1,1,334,4,4,3,"1e4e351",44,1
"4616",1,0,221,2,1,3,"1e4e351",45,1
"4716",1,1,417,5,5,3,"1e4e351",46,1
"4816",1,1,873,3,3,3,"1e4e351",47,1
"4916",0,0,281,1,1,3,"1e4e351",48,1
"5016",0,0,282,6,6,3,"1e4e351",49,1
"5120",1,0,307,6,1,3,"1e4e351",50,1
"5218",1,0,291,1,3,3,"1e4e351",51,1
"5316",1,1,359,2,2,3,"1e4e351",52,1
"5416",1,1,1000,4,4,3,"1e4e351",53,1
"5515",-1,-1,0,4,1,3,"1e4e351",54,1
"5615",1,0,525,5,1,3,"1e4e351",55,1
"5715",1,1,376,5,5,3,"1e4e351",56,1
"5815",1,0,259,2,1,3,"1e4e351",57,1
"5915",1,1,134,1,1,3,"1e4e351",58,1
"6015",1,0,258,6,1,3,"1e4e351",59,1
"6119",1,1,269,2,2,3,"1e4e351",60,1
"6217",0,0,257,6,6,3,"1e4e351",61,1
"6315",0,0,217,4,4,3,"1e4e351",62,1
"6415",1,0,275,1,3,3,"1e4e351",63,1
"6515",1,1,544,3,3,3,"1e4e351",64,1
"6615",1,0,303,1,4,3,"1e4e351",65,1
"6715",1,0,261,5,1,3,"1e4e351",66,1
"6815",0,0,259,5,5,3,"1e4e351",67,1
"6915",0,0,396,1,1,3,"1e4e351",68,1
"7015",1,1,281,6,6,3,"1e4e351",69,1
"7119",1,0,638,1,6,3,"1e4e351",70,1
"7216",1,1,593,3,3,3,"1e4e351",71,1
"7315",1,0,400,1,5,3,"1e4e351",72,1
"7415",1,0,247,1,3,3,"1e4e351",73,1
"7515",1,0,606,2,1,3,"1e4e351",74,1
"7615",1,1,127,2,2,3,"1e4e351",75,1
"7715",0,1,403,4,1,3,"1e4e351",76,1
"7815",1,1,455,4,4,3,"1e4e351",77,1
"2101",1,0,614,1,4,2,"1e1ba26",1,1
"3101",1,1,327,3,3,2,"1e1ba26",2,1
"4101",1,1,303,4,4,2,"1e1ba26",3,1
"5101",1,1,325,2,2,2,"1e1ba26",4,1
"6101",1,1,398,5,5,2,"1e1ba26",5,1
"792",1,1,695,6,6,2,"1e1ba26",6,1
"817",0,1,407,3,1,2,"1e1ba26",7,1
"917",1,0,439,1,2,2,"1e1ba26",8,1
"1017",0,1,266,1,5,2,"1e1ba26",9,1
"1117",1,1,493,1,1,2,"1e1ba26",10,1
"1217",0,1,350,1,6,2,"1e1ba26",11,1
"1317",0,1,326,5,1,2,"1e1ba26",12,1
"1417",1,1,290,4,4,2,"1e1ba26",13,1
"1517",0,1,370,1,6,2,"1e1ba26",14,1
"1617",1,0,382,2,1,2,"1e1ba26",15,1
"1717",0,1,303,1,3,2,"1e1ba26",16,1
"1817",1,1,719,1,1,2,"1e1ba26",17,1
"1917",0,1,292,1,4,2,"1e1ba26",18,1
"2017",1,1,438,6,6,2,"1e1ba26",19,1
"2121",1,1,442,2,2,2,"1e1ba26",20,1
"2219",1,1,611,3,3,2,"1e1ba26",21,1
"2317",1,1,383,5,5,2,"1e1ba26",22,1
"2417",1,1,464,3,3,2,"1e1ba26",23,1
"2517",1,1,807,4,4,2,"1e1ba26",24,1
"2617",1,1,445,1,1,2,"1e1ba26",25,1
"2717",1,1,324,2,2,2,"1e1ba26",26,1
"2817",1,1,471,5,5,2,"1e1ba26",27,1
"2917",1,0,295,1,2,2,"1e1ba26",28,1
"3017",0,1,237,3,1,2,"1e1ba26",29,1
"3121",0,1,342,1,5,2,"1e1ba26",30,1
"3219",0,1,178,1,6,2,"1e1ba26",31,1
"3317",0,1,229,1,4,2,"1e1ba26",32,1
"3417",1,1,277,6,6,2,"1e1ba26",33,1
"3517",1,1,525,3,3,2,"1e1ba26",34,1
"3617",1,0,374,2,1,2,"1e1ba26",35,1
"3717",0,1,259,5,1,2,"1e1ba26",36,1
"3817",1,1,416,5,5,2,"1e1ba26",37,1
"3917",1,1,119,6,6,2,"1e1ba26",38,1
"4017",1,1,429,1,1,2,"1e1ba26",39,1
"4121",1,1,500,2,2,2,"1e1ba26",40,1
"4219",1,1,138,4,4,2,"1e1ba26",41,1
"4317",0,1,342,4,1,2,"1e1ba26",42,1
"4417",0,1,522,6,1,2,"1e1ba26",43,1
"4517",0,1,255,1,3,2,"1e1ba26",44,1
"4617",0,1,452,6,1,2,"1e1ba26",45,1
"4717",1,1,531,1,1,2,"1e1ba26",46,1
"4817",1,0,372,2,1,2,"1e1ba26",47,1
"4917",1,1,362,2,2,2,"1e1ba26",48,1
"5017",1,1,521,6,6,2,"1e1ba26",49,1
"5121",0,1,623,4,1,2,"1e1ba26",50,1
"5219",0,1,560,1,5,2,"1e1ba26",51,1
"5317",1,1,551,3,3,2,"1e1ba26",52,1
"5417",1,1,434,5,5,2,"1e1ba26",53,1
"5516",1,1,474,4,4,2,"1e1ba26",54,1
"5616",1,0,480,1,3,2,"1e1ba26",55,1
"5716",0,1,158,5,1,2,"1e1ba26",56,1
"5816",1,1,314,1,1,2,"1e1ba26",57,1
"5916",0,1,283,4,1,2,"1e1ba26",58,1
"6016",1,1,522,3,3,2,"1e1ba26",59,1
"6120",1,1,314,4,4,2,"1e1ba26",60,1
"6218",1,1,739,6,6,2,"1e1ba26",61,1
"6316",1,0,146,2,1,2,"1e1ba26",62,1
"6416",0,1,227,3,1,2,"1e1ba26",63,1
"6516",1,1,335,2,2,2,"1e1ba26",64,1
"6616",0,1,476,1,6,2,"1e1ba26",65,1
"6716",1,1,650,5,5,2,"1e1ba26",66,1
"6816",0,1,338,1,6,2,"1e1ba26",67,1
"6916",0,1,225,5,1,2,"1e1ba26",68,1
"7016",1,1,488,6,6,2,"1e1ba26",69,1
"7120",0,0,1317,2,2,2,"1e1ba26",70,1
"7217",1,1,1287,3,3,2,"1e1ba26",71,1
"7316",0,1,538,1,3,2,"1e1ba26",72,1
"7416",1,1,554,1,1,2,"1e1ba26",73,1
"7516",0,1,246,1,4,2,"1e1ba26",74,1
"7616",1,1,455,5,5,2,"1e1ba26",75,1
"7716",1,1,1602,4,4,2,"1e1ba26",76,1
"7816",0,1,253,1,2,2,"1e1ba26",77,1
"2102",1,0,1338,1,4,1,"1ba9d36",1,1
"3102",1,1,1008,1,1,1,"1ba9d36",2,1
"4102",1,1,415,4,4,1,"1ba9d36",3,1
"5102",1,1,336,3,3,1,"1ba9d36",4,1
"6102",1,0,348,6,1,1,"1ba9d36",5,1
"793",1,0,524,1,5,1,"1ba9d36",6,1
"818",0,1,254,3,1,1,"1ba9d36",7,1
"918",1,1,181,6,6,1,"1ba9d36",8,1
"1018",1,1,263,5,5,1,"1ba9d36",9,1
"1118",1,1,360,2,2,1,"1ba9d36",10,1
"1218",0,1,196,1,2,1,"1ba9d36",11,1
"1318",0,1,254,2,1,1,"1ba9d36",12,1
"1418",0,1,163,1,4,1,"1ba9d36",13,1
"1518",0,1,133,5,1,1,"1ba9d36",14,1
"1618",1,1,305,6,6,1,"1ba9d36",15,1
"1718",1,1,272,1,1,1,"1ba9d36",16,1
"1818",1,1,132,4,4,1,"1ba9d36",17,1
"1918",1,1,32,3,3,1,"1ba9d36",18,1
"2018",1,1,242,2,2,1,"1ba9d36",19,1
"2122",0,1,149,1,3,1,"1ba9d36",20,1
"2220",1,1,467,5,5,1,"1ba9d36",21,1
"2318",0,1,752,6,1,1,"1ba9d36",22,1
"2418",1,1,276,5,5,1,"1ba9d36",23,1
"2518",0,1,576,1,3,1,"1ba9d36",24,1
"2618",1,1,393,3,3,1,"1ba9d36",25,1
"2718",0,1,414,2,1,1,"1ba9d36",26,1
"2818",0,1,783,4,1,1,"1ba9d36",27,1
"2918",1,1,944,4,4,1,"1ba9d36",28,1
"3018",0,1,569,1,6,1,"1ba9d36",29,1
"3122",1,1,323,1,1,1,"1ba9d36",30,1
"3220",1,1,1183,6,6,1,"1ba9d36",31,1
"3318",0,1,456,5,1,1,"1ba9d36",32,1
"3418",1,1,462,2,2,1,"1ba9d36",33,1
"3518",1,1,314,3,3,1,"1ba9d36",34,1
"3618",0,1,189,5,1,1,"1ba9d36",35,1
"3718",1,1,240,5,5,1,"1ba9d36",36,1
"3818",1,1,229,6,6,1,"1ba9d36",37,1
"3918",1,1,530,2,2,1,"1ba9d36",38,1
"4018",1,1,271,1,1,1,"1ba9d36",39,1
"4122",1,0,587,1,2,1,"1ba9d36",40,1
"4220",1,1,183,4,4,1,"1ba9d36",41,1
"4318",0,1,232,1,4,1,"1ba9d36",42,1
"4418",1,0,625,6,1,1,"1ba9d36",43,1
"4518",0,1,662,3,1,1,"1ba9d36",44,1
"4618",1,1,491,2,2,1,"1ba9d36",45,1
"4718",0,1,493,1,3,1,"1ba9d36",46,1
"4818",0,1,376,2,1,1,"1ba9d36",47,1
"4918",1,1,116,4,4,1,"1ba9d36",48,1
"5018",1,1,251,5,5,1,"1ba9d36",49,1
"5122",1,1,184,3,3,1,"1ba9d36",50,1
"5220",0,1,48,1,4,1,"1ba9d36",51,1
"5318",0,1,458,1,5,1,"1ba9d36",52,1
"5418",0,1,234,1,6,1,"1ba9d36",53,1
"5517",1,1,273,6,6,1,"1ba9d36",54,1
"5617",1,1,324,1,1,1,"1ba9d36",55,1
"5717",1,1,234,6,6,1,"1ba9d36",56,1
"5817",0,1,350,1,5,1,"1ba9d36",57,1
"5917",0,1,287,1,3,1,"1ba9d36",58,1
"6017",1,0,289,1,2,1,"1ba9d36",59,1
"6121",1,1,235,4,4,1,"1ba9d36",60,1
"6219",0,1,250,1,6,1,"1ba9d36",61,1
"6317",0,1,327,4,1,1,"1ba9d36",62,1
"6417",1,1,244,5,5,1,"1ba9d36",63,1
"6517",1,1,235,1,1,1,"1ba9d36",64,1
"6617",1,1,443,2,2,1,"1ba9d36",65,1
"6717",1,1,288,3,3,1,"1ba9d36",66,1
"6817",1,1,622,2,2,1,"1ba9d36",67,1
"6917",0,1,853,4,1,1,"1ba9d36",68,1
"7017",1,0,454,1,2,1,"1ba9d36",69,1
"7121",0,1,425,5,1,1,"1ba9d36",70,1
"7218",-1,-1,0,5,5,1,"1ba9d36",71,1
"7317",0,1,926,1,3,1,"1ba9d36",72,1
"7417",1,1,1062,1,1,1,"1ba9d36",73,1
"7517",1,1,438,4,4,1,"1ba9d36",74,1
"7617",0,1,562,6,1,1,"1ba9d36",75,1
"7717",1,1,296,3,3,1,"1ba9d36",76,1
"7817",1,1,526,6,6,1,"1ba9d36",77,1
"2103",1,0,270,3,1,1,"131a531",1,1
"3103",0,1,398,1,6,1,"131a531",2,1
"4103",0,0,63,3,3,1,"131a531",3,1
"5103",0,1,127,2,1,1,"131a531",4,1
"6103",1,1,176,1,1,1,"131a531",5,1
"794",0,0,96,4,4,1,"131a531",6,1
"819",0,1,85,1,4,1,"131a531",7,1
"919",0,0,120,2,2,1,"131a531",8,1
"1019",0,1,363,5,1,1,"131a531",9,1
"1119",0,0,205,6,6,1,"131a531",10,1
"1219",0,0,144,5,5,1,"131a531",11,1
"1319",1,1,128,6,6,1,"131a531",12,1
"1419",1,1,386,3,3,1,"131a531",13,1
"1519",1,1,115,5,5,1,"131a531",14,1
"1619",1,0,85,2,1,1,"131a531",15,1
"1719",1,0,22,4,1,1,"131a531",16,1
"1819",1,0,121,3,1,1,"131a531",17,1
"1919",0,1,60,1,5,1,"131a531",18,1
"2019",1,1,877,1,1,1,"131a531",19,1
"2123",0,1,79,6,1,1,"131a531",20,1
"2221",1,1,192,4,4,1,"131a531",21,1
"2319",1,1,115,2,2,1,"131a531",22,1
"2419",0,1,83,5,1,1,"131a531",23,1
"2519",1,1,581,3,3,1,"131a531",24,1
"2619",0,1,279,2,1,1,"131a531",25,1
"2719",0,1,184,4,1,1,"131a531",26,1
"2819",1,1,249,5,5,1,"131a531",27,1
"2919",0,1,44,1,6,1,"131a531",28,1
"3019",1,1,128,1,1,1,"131a531",29,1
"3123",1,1,47,2,2,1,"131a531",30,1
"3221",1,1,241,4,4,1,"131a531",31,1
"3319",0,0,1620,6,6,1,"131a531",32,1
"3419",1,0,83,1,3,1,"131a531",33,1
"3519",0,1,69,1,2,1,"131a531",34,1
"3619",0,1,166,1,6,1,"131a531",35,1
"3719",1,1,424,3,3,1,"131a531",36,1
"3819",0,1,396,5,1,1,"131a531",37,1
"3919",1,1,61,6,6,1,"131a531",38,1
"4019",1,1,63,2,2,1,"131a531",39,1
"4123",1,1,113,1,1,1,"131a531",40,1
"4221",0,1,49,1,4,1,"131a531",41,1
"4319",0,1,163,1,3,1,"131a531",42,1
"4419",1,1,435,5,5,1,"131a531",43,1
"4519",1,1,39,4,4,1,"131a531",44,1
"4619",1,1,103,4,4,1,"131a531",45,1
"4719",0,1,43,3,1,1,"131a531",46,1
"4819",1,1,140,6,6,1,"131a531",47,1
"4919",1,1,111,5,5,1,"131a531",48,1
"5019",0,1,112,4,1,1,"131a531",49,1
"5123",0,1,50,6,1,1,"131a531",50,1
"5221",0,1,147,1,5,1,"131a531",51,1
"5319",1,1,71,1,1,1,"131a531",52,1
"5419",1,1,73,3,3,1,"131a531",53,1
"5518",1,1,109,2,2,1,"131a531",54,1
"5618",1,0,16,2,1,1,"131a531",55,1
"5718",0,1,18,1,5,1,"131a531",56,1
"5818",1,1,133,1,1,1,"131a531",57,1
"5918",0,1,328,3,1,1,"131a531",58,1
"6018",1,1,103,5,5,1,"131a531",59,1
"6122",0,1,460,2,1,1,"131a531",60,1
"6220",1,1,349,2,2,1,"131a531",61,1
"6318",1,1,367,6,6,1,"131a531",62,1
"6418",0,1,1,1,4,1,"131a531",63,1
"6518",1,1,33,4,4,1,"131a531",64,1
"6618",0,1,371,1,6,1,"131a531",65,1
"6718",1,1,71,3,3,1,"131a531",66,1
"6818",1,0,72,1,2,1,"131a531",67,1
"6918",0,1,41,1,3,1,"131a531",68,1
"7018",0,1,76,1,6,1,"131a531",69,1
"7122",1,1,317,6,6,1,"131a531",70,1
"7219",1,1,78,1,1,1,"131a531",71,1
"7318",0,1,16,4,1,1,"131a531",72,1
"7418",0,1,83,1,5,1,"131a531",73,1
"7518",1,1,164,4,4,1,"131a531",74,1
"7618",1,1,308,3,3,1,"131a531",75,1
"7718",1,1,38,5,5,1,"131a531",76,1
"7818",1,1,72,2,2,1,"131a531",77,1
"2104",0,1,408,1,5,1,"136d40c",1,1
"3104",0,0,348,3,3,1,"136d40c",2,1
"4104",1,1,322,1,1,1,"136d40c",3,1
"5104",0,1,390,4,1,1,"136d40c",4,1
"6104",1,1,318,6,6,1,"136d40c",5,1
"795",0,1,447,1,3,1,"136d40c",6,1
"820",1,1,275,5,5,1,"136d40c",7,1
"920",0,1,327,1,6,1,"136d40c",8,1
"1020",1,0,489,2,1,1,"136d40c",9,1
"1120",1,1,334,2,2,1,"136d40c",10,1
"1220",1,1,320,4,4,1,"136d40c",11,1
"1320",1,1,172,3,3,1,"136d40c",12,1
"1420",1,1,243,1,1,1,"136d40c",13,1
"1520",0,1,260,6,1,1,"136d40c",14,1
"1620",0,0,308,6,6,1,"136d40c",15,1
"1720",1,1,269,2,2,1,"136d40c",16,1
"1820",1,1,155,4,4,1,"136d40c",17,1
"1920",1,0,346,1,2,1,"136d40c",18,1
"2020",0,1,264,5,1,1,"136d40c",19,1
"2124",0,1,201,1,4,1,"136d40c",20,1
"2222",1,1,136,5,5,1,"136d40c",21,1
"2320",0,1,280,1,3,1,"136d40c",22,1
"2420",0,1,157,2,1,1,"136d40c",23,1
"2520",0,1,351,5,1,1,"136d40c",24,1
"2620",0,1,310,1,3,1,"136d40c",25,1
"2720",1,1,304,1,1,1,"136d40c",26,1
"2820",0,1,312,1,4,1,"136d40c",27,1
"2920",1,1,145,4,4,1,"136d40c",28,1
"3020",1,1,325,6,6,1,"136d40c",29,1
"3124",1,1,88,2,2,1,"136d40c",30,1
"3222",1,1,246,3,3,1,"136d40c",31,1
"3320",0,1,319,1,6,1,"136d40c",32,1
"3420",1,1,219,5,5,1,"136d40c",33,1
"3520",0,1,261,4,1,1,"136d40c",34,1
"3620",1,1,255,1,1,1,"136d40c",35,1
"3720",0,1,287,1,2,1,"136d40c",36,1
"3820",1,1,226,4,4,1,"136d40c",37,1
"3920",1,1,335,2,2,1,"136d40c",38,1
"4020",1,1,252,6,6,1,"136d40c",39,1
"4124",0,1,288,1,6,1,"136d40c",40,1
"4222",0,1,307,3,1,1,"136d40c",41,1
"4320",1,1,302,3,3,1,"136d40c",42,1
"4420",1,1,323,5,5,1,"136d40c",43,1
"4520",0,1,303,1,5,1,"136d40c",44,1
"4620",1,1,300,4,4,1,"136d40c",45,1
"4720",1,1,316,5,5,1,"136d40c",46,1
"4820",1,1,218,3,3,1,"136d40c",47,1
"4920",0,1,129,6,1,1,"136d40c",48,1
"5020",0,1,309,1,2,1,"136d40c",49,1
"5124",1,1,315,1,1,1,"136d40c",50,1
"5222",0,1,320,3,1,1,"136d40c",51,1
"5320",1,1,276,6,6,1,"136d40c",52,1
"5420",0,1,289,1,5,1,"136d40c",53,1
"5519",1,1,274,2,2,1,"136d40c",54,1
"5619",0,1,320,1,4,1,"136d40c",55,1
"5719",0,1,303,1,5,1,"136d40c",56,1
"5819",1,1,346,6,6,1,"136d40c",57,1
"5919",1,1,333,5,5,1,"136d40c",58,1
"6019",0,1,169,3,1,1,"136d40c",59,1
"6123",1,1,343,3,3,1,"136d40c",60,1
"6221",0,1,272,1,2,1,"136d40c",61,1
"6319",1,1,289,4,4,1,"136d40c",62,1
"6419",0,1,343,1,6,1,"136d40c",63,1
"6519",0,1,276,4,1,1,"136d40c",64,1
"6619",1,1,317,2,2,1,"136d40c",65,1
"6719",1,1,303,1,1,1,"136d40c",66,1
"6819",1,1,322,3,3,1,"136d40c",67,1
"6919",1,1,197,4,4,1,"136d40c",68,1
"7019",0,1,387,4,1,1,"136d40c",69,1
"7123",0,1,342,1,3,1,"136d40c",70,1
"7220",0,1,298,2,1,1,"136d40c",71,1
"7319",0,1,320,1,6,1,"136d40c",72,1
"7419",1,1,356,6,6,1,"136d40c",73,1
"7519",0,1,320,5,1,1,"136d40c",74,1
"7619",1,1,331,2,2,1,"136d40c",75,1
"7719",1,1,336,5,5,1,"136d40c",76,1
"7819",1,1,375,1,1,1,"136d40c",77,1
"2105",0,0,751,6,6,3,"dd48297",1,1
"3105",1,0,249,2,1,3,"dd48297",2,1
"4105",1,1,518,1,1,3,"dd48297",3,1
"5105",0,0,199,3,3,3,"dd48297",4,1
"6105",0,1,553,1,6,3,"dd48297",5,1
"796",0,1,413,1,4,3,"dd48297",6,1
"821",0,0,406,5,5,3,"dd48297",7,1
"921",0,0,419,2,2,3,"dd48297",8,1
"1021",0,1,426,3,1,3,"dd48297",9,1
"1121",0,0,440,4,4,3,"dd48297",10,1
"1221",1,0,508,1,5,3,"dd48297",11,1
"1321",0,0,378,5,5,3,"dd48297",12,1
"1421",1,1,339,4,4,3,"dd48297",13,1
"1521",1,0,444,1,5,3,"dd48297",14,1
"1621",1,0,327,4,1,3,"dd48297",15,1
"1721",0,0,338,1,1,3,"dd48297",16,1
"1821",0,1,391,1,2,3,"dd48297",17,1
"1921",0,1,383,6,1,3,"dd48297",18,1
"2021",0,1,340,1,3,3,"dd48297",19,1
"2125",1,1,445,3,3,3,"dd48297",20,1
"2223",0,0,506,2,2,3,"dd48297",21,1
"2321",1,1,354,6,6,3,"dd48297",22,1
"2421",0,0,397,5,5,3,"dd48297",23,1
"2521",1,0,139,1,6,3,"dd48297",24,1
"2621",0,0,580,4,4,3,"dd48297",25,1
"2721",0,1,367,5,1,3,"dd48297",26,1
"2821",1,1,409,2,2,3,"dd48297",27,1
"2921",0,1,468,4,1,3,"dd48297",28,1
"3021",1,1,344,1,1,3,"dd48297",29,1
"3125",1,1,542,3,3,3,"dd48297",30,1
"3223",0,0,856,6,6,3,"dd48297",31,1
"3321",1,0,478,1,3,3,"dd48297",32,1
"3421",1,0,344,2,1,3,"dd48297",33,1
"3521",1,1,309,1,1,3,"dd48297",34,1
"3621",1,0,458,4,1,3,"dd48297",35,1
"3721",1,1,183,4,4,3,"dd48297",36,1
"3821",0,1,509,1,6,3,"dd48297",37,1
"3921",0,1,355,2,1,3,"dd48297",38,1
"4021",-1,-1,0,5,1,3,"dd48297",39,1
"4125",0,0,516,5,5,3,"dd48297",40,1
"4223",0,0,632,3,3,3,"dd48297",41,1
"4321",0,0,305,2,2,3,"dd48297",42,1
"4421",0,1,394,1,3,3,"dd48297",43,1
"4521",1,1,393,6,6,3,"dd48297",44,1
"4621",0,1,1081,1,4,3,"dd48297",45,1
"4721",0,0,613,2,2,3,"dd48297",46,1
"4821",0,0,574,1,1,3,"dd48297",47,1
"4921",0,1,245,3,1,3,"dd48297",48,1
"5021",0,0,309,3,3,3,"dd48297",49,1
"5125",0,1,770,6,1,3,"dd48297",50,1
"5223",1,0,154,5,1,3,"dd48297",51,1
"5321",0,0,585,6,6,3,"dd48297",52,1
"5421",0,1,576,1,2,3,"dd48297",53,1
"5520",1,1,384,5,5,3,"dd48297",54,1
"5620",1,1,446,4,4,3,"dd48297",55,1
"5720",1,0,538,1,2,3,"dd48297",56,1
"5820",1,0,419,1,3,3,"dd48297",57,1
"5920",0,0,920,1,1,3,"dd48297",58,1
"6020",0,0,569,2,2,3,"dd48297",59,1
"6124",1,0,412,1,5,3,"dd48297",60,1
"6222",1,1,172,4,4,3,"dd48297",61,1
"6320",1,1,347,6,6,3,"dd48297",62,1
"6420",0,1,583,6,1,3,"dd48297",63,1
"6520",0,1,890,1,4,3,"dd48297",64,1
"6620",1,1,629,5,5,3,"dd48297",65,1
"6720",1,1,682,3,3,3,"dd48297",66,1
"6820",0,0,472,5,5,3,"dd48297",67,1
"6920",0,1,1420,1,2,3,"dd48297",68,1
"7020",1,0,455,1,5,3,"dd48297",69,1
"7124",1,0,1714,4,1,3,"dd48297",70,1
"7221",0,0,364,2,2,3,"dd48297",71,1
"7320",1,1,1815,3,3,3,"dd48297",72,1
"7420",0,1,489,3,1,3,"dd48297",73,1
"7520",0,1,545,1,6,3,"dd48297",74,1
"7620",0,0,807,1,1,3,"dd48297",75,1
"7720",0,0,645,4,4,3,"dd48297",76,1
"7820",0,0,448,6,6,3,"dd48297",77,1
"2106",1,0,1218,4,1,3,"2b7389d",1,1
"3106",1,1,506,3,3,3,"2b7389d",2,1
"4106",0,0,431,4,4,3,"2b7389d",3,1
"5106",1,1,300,1,1,3,"2b7389d",4,1
"6106",1,1,339,6,6,3,"2b7389d",5,1
"797",0,0,309,5,5,3,"2b7389d",6,1
"822",1,0,250,1,6,3,"2b7389d",7,1
"922",0,1,339,1,3,3,"2b7389d",8,1
"1022",1,0,283,1,2,3,"2b7389d",9,1
"1122",0,1,301,1,5,3,"2b7389d",10,1
"1222",1,1,408,2,2,3,"2b7389d",11,1
"1322",0,1,30,4,1,3,"2b7389d",12,1
"1422",1,1,619,1,1,3,"2b7389d",13,1
"1522",1,1,251,6,6,3,"2b7389d",14,1
"1622",1,1,301,3,3,3,"2b7389d",15,1
"1722",1,1,280,4,4,3,"2b7389d",16,1
"1822",0,0,314,5,5,3,"2b7389d",17,1
"1922",1,0,279,1,2,3,"2b7389d",18,1
"2022",0,0,274,2,2,3,"2b7389d",19,1
"2126",0,1,275,5,1,3,"2b7389d",20,1
"2224",1,0,299,1,6,3,"2b7389d",21,1
"2322",1,0,432,3,1,3,"2b7389d",22,1
"2422",0,1,231,1,3,3,"2b7389d",23,1
"2522",0,1,342,1,6,3,"2b7389d",24,1
"2622",0,0,290,4,4,3,"2b7389d",25,1
"2722",1,1,532,6,6,3,"2b7389d",26,1
"2822",0,1,462,1,5,3,"2b7389d",27,1
"2922",0,0,276,2,2,3,"2b7389d",28,1
"3022",0,0,12,3,3,3,"2b7389d",29,1
"3126",0,1,465,4,1,3,"2b7389d",30,1
"3224",1,1,519,5,5,3,"2b7389d",31,1
"3322",1,0,305,2,1,3,"2b7389d",32,1
"3422",1,1,132,1,1,3,"2b7389d",33,1
"3522",1,1,307,6,6,3,"2b7389d",34,1
"3622",0,1,575,1,4,3,"2b7389d",35,1
"3722",1,1,332,1,1,3,"2b7389d",36,1
"3822",0,1,453,6,1,3,"2b7389d",37,1
"3922",0,1,325,3,1,3,"2b7389d",38,1
"4022",0,1,517,5,1,3,"2b7389d",39,1
"4126",1,0,380,1,2,3,"2b7389d",40,1
"4224",1,1,306,3,3,3,"2b7389d",41,1
"4322",1,1,400,5,5,3,"2b7389d",42,1
"4422",1,1,455,4,4,3,"2b7389d",43,1
"4522",0,0,283,2,2,3,"2b7389d",44,1
"4622",1,1,97,4,4,3,"2b7389d",45,1
"4722",1,1,225,6,6,3,"2b7389d",46,1
"4822",0,1,277,1,5,3,"2b7389d",47,1
"4922",0,1,336,1,3,3,"2b7389d",48,1
"5022",1,1,279,3,3,3,"2b7389d",49,1
"5126",0,0,177,5,5,3,"2b7389d",50,1
"5224",1,1,346,2,2,3,"2b7389d",51,1
"5322",0,1,301,1,6,3,"2b7389d",52,1
"5422",1,1,307,1,1,3,"2b7389d",53,1
"5521",1,0,268,1,2,3,"2b7389d",54,1
"5621",0,1,528,4,1,3,"2b7389d",55,1
"5721",1,1,487,6,6,3,"2b7389d",56,1
"5821",1,1,461,1,1,3,"2b7389d",57,1
"5921",1,1,327,5,5,3,"2b7389d",58,1
"6021",0,1,261,2,1,3,"2b7389d",59,1
"6125",0,1,395,4,1,3,"2b7389d",60,1
"6223",1,1,275,3,3,3,"2b7389d",61,1
"6321",0,1,61,6,1,3,"2b7389d",62,1
"6421",1,1,195,2,2,3,"2b7389d",63,1
"6521",0,1,331,5,1,3,"2b7389d",64,1
"6621",0,1,295,3,1,3,"2b7389d",65,1
"6721",1,1,341,4,4,3,"2b7389d",66,1
"6821",1,1,459,4,4,3,"2b7389d",67,1
"6921",0,1,244,1,6,3,"2b7389d",68,1
"7021",0,1,263,3,1,3,"2b7389d",69,1
"7125",0,1,393,5,1,3,"2b7389d",70,1
"7222",0,1,382,1,4,3,"2b7389d",71,1
"7321",1,1,341,1,1,3,"2b7389d",72,1
"7421",1,1,473,6,6,3,"2b7389d",73,1
"7521",1,1,397,2,2,3,"2b7389d",74,1
"7621",1,1,259,5,5,3,"2b7389d",75,1
"7721",0,1,363,2,1,3,"2b7389d",76,1
"7821",1,1,510,3,3,3,"2b7389d",77,1
"2107",1,1,614,6,6,3,"feb6435",1,1
"3107",1,1,295,1,1,3,"feb6435",2,1
"4107",1,1,265,2,2,3,"feb6435",3,1
"5107",1,0,331,5,1,3,"feb6435",4,1
"6107",1,1,306,5,5,3,"feb6435",5,1
"798",1,1,264,4,4,3,"feb6435",6,1
"823",1,0,409,1,4,3,"feb6435",7,1
"923",1,1,212,3,3,3,"feb6435",8,1
"1023",1,0,326,1,3,3,"feb6435",9,1
"1123",1,0,263,1,6,3,"feb6435",10,1
"1223",1,0,370,2,1,3,"feb6435",11,1
"1323",0,1,219,6,1,3,"feb6435",12,1
"1423",1,1,308,3,3,3,"feb6435",13,1
"1523",1,1,187,5,5,3,"feb6435",14,1
"1623",1,0,198,1,5,3,"feb6435",15,1
"1723",0,0,274,1,1,3,"feb6435",16,1
"1823",1,0,366,1,4,3,"feb6435",17,1
"1923",1,0,779,2,1,3,"feb6435",18,1
"2023",0,0,314,2,2,3,"feb6435",19,1
"2127",1,1,205,4,4,3,"feb6435",20,1
"2225",1,0,223,1,3,3,"feb6435",21,1
"2323",1,1,348,6,6,3,"feb6435",22,1
"2423",1,0,321,6,1,3,"feb6435",23,1
"2523",0,0,238,1,1,3,"feb6435",24,1
"2623",1,1,237,3,3,3,"feb6435",25,1
"2723",1,1,309,6,6,3,"feb6435",26,1
"2823",1,1,251,5,5,3,"feb6435",27,1
"2923",1,0,319,1,2,3,"feb6435",28,1
"3023",1,1,221,2,2,3,"feb6435",29,1
"3127",1,0,227,4,1,3,"feb6435",30,1
"3225",1,1,185,4,4,3,"feb6435",31,1
"3323",0,1,211,3,1,3,"feb6435",32,1
"3423",1,0,207,1,5,3,"feb6435",33,1
"3523",0,0,249,6,6,3,"feb6435",34,1
"3623",0,1,263,5,1,3,"feb6435",35,1
"3723",1,0,257,3,1,3,"feb6435",36,1
"3823",0,0,278,4,4,3,"feb6435",37,1
"3923",1,0,299,1,4,3,"feb6435",38,1
"4023",1,0,335,2,1,3,"feb6435",39,1
"4127",0,0,63,5,5,3,"feb6435",40,1
"4225",0,0,196,1,1,3,"feb6435",41,1
"4323",1,1,182,2,2,3,"feb6435",42,1
"4423",1,0,183,6,1,3,"feb6435",43,1
"4523",0,0,198,3,3,3,"feb6435",44,1
"4623",0,0,217,1,1,3,"feb6435",45,1
"4723",0,1,324,1,3,3,"feb6435",46,1
"4823",1,0,178,6,1,3,"feb6435",47,1
"4923",1,1,238,2,2,3,"feb6435",48,1
"5023",1,0,557,2,1,3,"feb6435",49,1
"5127",0,1,326,1,4,3,"feb6435",50,1
"5225",1,0,18,1,5,3,"feb6435",51,1
"5323",1,1,200,3,3,3,"feb6435",52,1
"5423",0,0,399,6,6,3,"feb6435",53,1
"5522",0,0,167,5,5,3,"feb6435",54,1
"5622",0,0,380,4,4,3,"feb6435",55,1
"5722",1,0,449,1,4,3,"feb6435",56,1
"5822",1,1,633,4,4,3,"feb6435",57,1
"5922",1,1,203,5,5,3,"feb6435",58,1
"6022",0,1,344,5,1,3,"feb6435",59,1
"6126",1,1,449,6,6,3,"feb6435",60,1
"6224",1,0,410,1,6,3,"feb6435",61,1
"6322",0,0,158,2,2,3,"feb6435",62,1
"6422",0,0,222,1,1,3,"feb6435",63,1
"6522",1,0,278,3,1,3,"feb6435",64,1
"6622",1,1,108,3,3,3,"feb6435",65,1
"6722",0,1,534,2,1,3,"feb6435",66,1
"6822",0,0,728,5,5,3,"feb6435",67,1
"6922",1,1,472,6,6,3,"feb6435",68,1
"7022",0,1,390,1,5,3,"feb6435",69,1
"7126",1,1,637,1,1,3,"feb6435",70,1
"7223",1,0,346,3,1,3,"feb6435",71,1
"7322",1,1,486,4,4,3,"feb6435",72,1
"7422",0,1,496,2,1,3,"feb6435",73,1
"7522",1,0,386,1,6,3,"feb6435",74,1
"7622",0,0,184,2,2,3,"feb6435",75,1
"7722",1,1,527,3,3,3,"feb6435",76,1
"7822",0,1,635,4,1,3,"feb6435",77,1
"2108",0,1,643,5,1,3,"12c2c85",1,1
"3108",1,0,106,1,2,3,"12c2c85",2,1
"4108",1,0,573,3,1,3,"12c2c85",3,1
"5108",1,1,547,2,2,3,"12c2c85",4,1
"6108",1,1,289,3,3,3,"12c2c85",5,1
"799",1,1,408,5,5,3,"12c2c85",6,1
"824",1,1,340,1,1,3,"12c2c85",7,1
"924",1,1,848,4,4,3,"12c2c85",8,1
"1024",1,1,496,6,6,3,"12c2c85",9,1
"1124",1,0,162,1,4,3,"12c2c85",10,1
"1224",0,1,347,6,1,3,"12c2c85",11,1
"1324",1,1,63,2,2,3,"12c2c85",12,1
"1424",1,0,319,1,6,3,"12c2c85",13,1
"1524",1,1,463,5,5,3,"12c2c85",14,1
"1624",1,0,280,2,1,3,"12c2c85",15,1
"1724",0,0,164,3,3,3,"12c2c85",16,1
"1824",1,1,415,1,1,3,"12c2c85",17,1
"1924",1,0,374,1,4,3,"12c2c85",18,1
"2024",1,1,535,4,4,3,"12c2c85",19,1
"2128",1,0,722,1,5,3,"12c2c85",20,1
"2226",0,1,296,3,1,3,"12c2c85",21,1
"2324",1,1,287,6,6,3,"12c2c85",22,1
"2424",0,0,338,4,4,3,"12c2c85",23,1
"2524",1,0,470,1,4,3,"12c2c85",24,1
"2624",1,0,360,3,1,3,"12c2c85",25,1
"2724",0,1,437,1,2,3,"12c2c85",26,1
"2824",1,1,383,1,1,3,"12c2c85",27,1
"2924",1,0,393,1,5,3,"12c2c85",28,1
"3024",0,0,319,2,2,3,"12c2c85",29,1
"3128",0,0,360,3,3,3,"12c2c85",30,1
"3226",0,1,508,6,1,3,"12c2c85",31,1
"3324",1,1,298,6,6,3,"12c2c85",32,1
"3424",1,1,357,5,5,3,"12c2c85",33,1
"3524",0,0,439,4,4,3,"12c2c85",34,1
"3624",0,0,315,2,2,3,"12c2c85",35,1
"3724",1,0,568,3,1,3,"12c2c85",36,1
"3824",1,1,1427,6,6,3,"12c2c85",37,1
"3924",0,1,112,1,5,3,"12c2c85",38,1
"4024",0,1,342,2,1,3,"12c2c85",39,1
"4128",0,0,310,5,5,3,"12c2c85",40,1
"4226",0,1,365,1,4,3,"12c2c85",41,1
"4324",0,0,531,3,3,3,"12c2c85",42,1
"4424",0,0,384,1,1,3,"12c2c85",43,1
"4524",0,1,426,1,6,3,"12c2c85",44,1
"4624",1,0,544,1,4,3,"12c2c85",45,1
"4724",1,1,420,4,4,3,"12c2c85",46,1
"4824",0,1,260,1,2,3,"12c2c85",47,1
"4924",1,0,312,1,6,3,"12c2c85",48,1
"5024",1,1,347,3,3,3,"12c2c85",49,1
"5128",1,1,384,6,6,3,"12c2c85",50,1
"5226",1,1,589,2,2,3,"12c2c85",51,1
"5324",0,0,326,1,1,3,"12c2c85",52,1
"5424",0,1,1017,5,1,3,"12c2c85",53,1
"5523",1,0,1028,3,1,3,"12c2c85",54,1
"5623",0,0,356,5,5,3,"12c2c85",55,1
"5723",1,1,345,3,3,3,"12c2c85",56,1
"5823",0,1,177,1,6,3,"12c2c85",57,1
"5923",0,0,324,4,4,3,"12c2c85",58,1
"6023",1,0,282,1,5,3,"12c2c85",59,1
"6127",0,0,392,2,2,3,"12c2c85",60,1
"6225",0,0,420,6,6,3,"12c2c85",61,1
"6323",0,1,272,2,1,3,"12c2c85",62,1
"6423",0,0,414,5,5,3,"12c2c85",63,1
"6523",1,0,552,4,1,3,"12c2c85",64,1
"6623",0,1,284,3,1,3,"12c2c85",65,1
"6723",1,1,311,1,1,3,"12c2c85",66,1
"6823",0,0,204,1,1,3,"12c2c85",67,1
"6923",1,1,175,6,6,3,"12c2c85",68,1
"7023",1,1,164,3,3,3,"12c2c85",69,1
"7127",1,1,965,4,4,3,"12c2c85",70,1
"7224",0,1,328,1,5,3,"12c2c85",71,1
"7323",0,1,350,6,1,3,"12c2c85",72,1
"7423",1,0,767,1,4,3,"12c2c85",73,1
"7523",1,1,228,2,2,3,"12c2c85",74,1
"7623",1,0,410,3,1,3,"12c2c85",75,1
"7723",0,0,342,5,5,3,"12c2c85",76,1
"7823",0,1,638,1,2,3,"12c2c85",77,1
"2109",1,1,356,3,3,3,"12d5120",1,1
"3109",0,1,339,6,1,3,"12d5120",2,1
"4109",1,1,305,4,4,3,"12d5120",3,1
"5109",0,1,314,1,3,3,"12d5120",4,1
"6109",0,1,410,5,1,3,"12d5120",5,1
"7100",1,1,305,2,2,3,"12d5120",6,1
"825",0,1,317,1,4,3,"12d5120",7,1
"925",1,1,357,1,1,3,"12d5120",8,1
"1025",1,1,286,6,6,3,"12d5120",9,1
"1125",1,1,339,5,5,3,"12d5120",10,1
"1225",1,0,452,2,1,3,"12d5120",11,1
"1325",0,1,657,6,1,3,"12d5120",12,1
"1425",1,1,320,5,5,3,"12d5120",13,1
"1525",1,0,328,2,1,3,"12d5120",14,1
"1625",1,1,250,4,4,3,"12d5120",15,1
"1725",1,1,280,1,1,3,"12d5120",16,1
"1825",1,1,290,6,6,3,"12d5120",17,1
"1925",0,1,309,1,5,3,"12d5120",18,1
"2025",1,1,335,2,2,3,"12d5120",19,1
"2129",0,1,357,1,3,3,"12d5120",20,1
"2227",1,1,572,3,3,3,"12d5120",21,1
"2325",0,1,301,4,1,3,"12d5120",22,1
"2425",1,1,378,3,3,3,"12d5120",23,1
"2525",0,1,372,1,5,3,"12d5120",24,1
"2625",0,1,350,1,3,3,"12d5120",25,1
"2725",1,0,291,1,2,3,"12d5120",26,1
"2825",1,1,337,5,5,3,"12d5120",27,1
"2925",1,1,323,1,1,3,"12d5120",28,1
"3025",1,1,312,6,6,3,"12d5120",29,1
"3129",1,1,525,4,4,3,"12d5120",30,1
"3227",0,1,290,6,1,3,"12d5120",31,1
"3325",0,1,290,1,4,3,"12d5120",32,1
"3425",1,1,385,2,2,3,"12d5120",33,1
"3525",0,1,369,5,1,3,"12d5120",34,1
"3625",0,1,339,1,3,3,"12d5120",35,1
"3725",1,1,301,4,4,3,"12d5120",36,1
"3825",0,1,358,4,1,3,"12d5120",37,1
"3925",1,1,420,5,5,3,"12d5120",38,1
"4025",1,1,338,6,6,3,"12d5120",39,1
"4129",0,1,283,1,6,3,"12d5120",40,1
"4227",1,1,379,3,3,3,"12d5120",41,1
"4325",1,0,303,2,1,3,"12d5120",42,1
"4425",1,1,340,2,2,3,"12d5120",43,1
"4525",1,1,316,1,1,3,"12d5120",44,1
"4625",1,1,345,3,3,3,"12d5120",45,1
"4725",0,1,360,1,4,3,"12d5120",46,1
"4825",0,0,309,4,4,3,"12d5120",47,1
"4925",0,1,353,5,1,3,"12d5120",48,1
"5025",1,0,349,2,1,3,"12d5120",49,1
"5129",1,1,391,5,5,3,"12d5120",50,1
"5227",0,1,332,6,1,3,"12d5120",51,1
"5325",1,1,415,2,2,3,"12d5120",52,1
"5425",1,1,424,6,6,3,"12d5120",53,1
"5524",1,1,317,1,1,3,"12d5120",54,1
"5624",0,1,301,3,1,3,"12d5120",55,1
"5724",1,0,284,1,2,3,"12d5120",56,1
"5824",1,1,317,4,4,3,"12d5120",57,1
"5924",1,1,274,1,1,3,"12d5120",58,1
"6024",0,1,379,6,1,3,"12d5120",59,1
"6128",0,1,389,1,3,3,"12d5120",60,1
"6226",1,1,310,5,5,3,"12d5120",61,1
"6324",0,1,306,1,5,3,"12d5120",62,1
"6424",1,1,308,3,3,3,"12d5120",63,1
"6524",0,1,390,4,1,3,"12d5120",64,1
"6624",1,1,332,6,6,3,"12d5120",65,1
"6724",1,1,334,2,2,3,"12d5120",66,1
"6824",1,1,287,3,3,3,"12d5120",67,1
"6924",0,1,432,1,6,3,"12d5120",68,1
"7024",1,1,290,4,4,3,"12d5120",69,1
"7128",1,1,278,6,6,3,"12d5120",70,1
"7225",1,1,246,2,2,3,"12d5120",71,1
"7324",0,1,329,1,5,3,"12d5120",72,1
"7424",1,0,268,1,2,3,"12d5120",73,1
"7524",1,1,318,1,1,3,"12d5120",74,1
"7624",1,1,409,5,5,3,"12d5120",75,1
"7724",1,0,272,1,3,3,"12d5120",76,1
"7824",0,1,350,1,4,3,"12d5120",77,1
"2130",1,0,1731,1,3,3,"10649da",1,1
"3130",0,1,1012,1,4,3,"10649da",2,1
"4130",0,0,438,3,3,3,"10649da",3,1
"5130",0,0,476,6,6,3,"10649da",4,1
"6129",1,1,679,1,1,3,"10649da",5,1
"7101",1,0,685,2,1,3,"10649da",6,1
"826",1,1,601,2,2,3,"10649da",7,1
"926",0,1,416,5,1,3,"10649da",8,1
"1026",0,0,374,4,4,3,"10649da",9,1
"1126",-1,-1,0,6,1,3,"10649da",10,1
"1226",-1,-1,0,5,5,3,"10649da",11,1
"1326",0,1,317,1,6,3,"10649da",12,1
"1426",1,1,1240,3,3,3,"10649da",13,1
"1526",0,0,926,4,4,3,"10649da",14,1
"1626",1,0,314,3,1,3,"10649da",15,1
"1726",1,1,232,6,6,3,"10649da",16,1
"1826",1,1,368,2,2,3,"10649da",17,1
"1926",0,1,736,1,4,3,"10649da",18,1
"2026",1,1,1173,5,5,3,"10649da",19,1
"2131",0,1,338,1,5,3,"10649da",20,1
"2228",0,0,303,1,1,3,"10649da",21,1
"2326",0,1,274,2,1,3,"10649da",22,1
"2426",1,1,606,5,5,3,"10649da",23,1
"2526",0,1,672,1,6,3,"10649da",24,1
"2626",0,0,426,4,4,3,"10649da",25,1
"2726",1,1,496,3,3,3,"10649da",26,1
"2826",1,1,1064,2,2,3,"10649da",27,1
"2926",-1,-1,0,1,4,3,"10649da",28,1
"3026",1,1,684,6,6,3,"10649da",29,1
"3131",0,1,253,1,2,3,"10649da",30,1
"3228",0,1,74,1,5,3,"10649da",31,1
"3326",1,1,166,1,1,3,"10649da",32,1
"3426",0,1,1326,3,1,3,"10649da",33,1
"3526",0,1,294,4,1,3,"10649da",34,1
"3626",1,1,532,5,5,3,"10649da",35,1
"3726",1,0,91,1,2,3,"10649da",36,1
"3826",1,1,1367,4,4,3,"10649da",37,1
"3926",1,1,474,3,3,3,"10649da",38,1
"4026",1,1,359,2,2,3,"10649da",39,1
"4131",0,0,101,1,1,3,"10649da",40,1
"4228",1,1,816,6,6,3,"10649da",41,1
"4326",0,1,183,3,1,3,"10649da",42,1
"4426",0,1,612,5,1,3,"10649da",43,1
"4526",0,1,290,6,1,3,"10649da",44,1
"4626",0,0,275,4,4,3,"10649da",45,1
"4726",1,1,265,5,5,3,"10649da",46,1
"4826",1,1,431,1,1,3,"10649da",47,1
"4926",1,1,510,3,3,3,"10649da",48,1
"5026",0,1,270,1,6,3,"10649da",49,1
"5131",1,0,1292,3,1,3,"10649da",50,1
"5228",1,1,1826,6,6,3,"10649da",51,1
"5326",1,0,800,4,1,3,"10649da",52,1
"5426",0,1,526,5,1,3,"10649da",53,1
"5525",0,0,113,2,2,3,"10649da",54,1
"5625",1,0,495,1,2,3,"10649da",55,1
"5725",0,1,1056,4,1,3,"10649da",56,1
"5825",1,1,249,1,1,3,"10649da",57,1
"5925",1,0,367,2,1,3,"10649da",58,1
"6025",1,1,424,5,5,3,"10649da",59,1
"6130",1,1,321,4,4,3,"10649da",60,1
"6227",0,1,326,6,1,3,"10649da",61,1
"6325",0,1,560,3,1,3,"10649da",62,1
"6425",0,1,390,1,5,3,"10649da",63,1
"6525",0,0,297,6,6,3,"10649da",64,1
"6625",0,0,214,3,3,3,"10649da",65,1
"6725",1,1,1573,2,2,3,"10649da",66,1
"6825",1,0,592,1,4,3,"10649da",67,1
"6925",1,0,221,2,1,3,"10649da",68,1
"7025",-1,-1,0,4,4,3,"10649da",69,1
"7129",0,1,543,1,3,3,"10649da",70,1
"7226",0,0,1530,5,5,3,"10649da",71,1
"7325",1,1,262,2,2,3,"10649da",72,1
"7425",0,0,398,6,6,3,"10649da",73,1
"7525",1,1,468,3,3,3,"10649da",74,1
"7625",1,0,409,5,1,3,"10649da",75,1
"7725",1,0,1424,6,1,3,"10649da",76,1
"7825",0,0,699,1,1,3,"10649da",77,1
"2132",1,1,1243,2,2,3,"6682a5e",1,1
"3132",1,0,370,1,6,3,"6682a5e",2,1
"4132",0,1,536,5,1,3,"6682a5e",3,1
"5132",1,1,269,1,1,3,"6682a5e",4,1
"6131",1,1,231,3,3,3,"6682a5e",5,1
"7102",1,0,601,1,4,3,"6682a5e",6,1
"827",1,1,346,5,5,3,"6682a5e",7,1
"927",0,0,395,6,6,3,"6682a5e",8,1
"1027",1,1,362,4,4,3,"6682a5e",9,1
"1127",1,0,352,2,1,3,"6682a5e",10,1
"1227",1,0,490,1,3,3,"6682a5e",11,1
"1327",0,0,959,1,1,3,"6682a5e",12,1
"1427",1,1,229,6,6,3,"6682a5e",13,1
"1527",1,0,381,5,1,3,"6682a5e",14,1
"1627",1,1,295,3,3,3,"6682a5e",15,1
"1727",1,0,423,1,2,3,"6682a5e",16,1
"1827",1,0,375,1,4,3,"6682a5e",17,1
"1927",0,1,630,3,1,3,"6682a5e",18,1
"2027",1,1,745,2,2,3,"6682a5e",19,1
"2133",1,0,450,6,1,3,"6682a5e",20,1
"2229",1,1,345,4,4,3,"6682a5e",21,1
"2327",1,1,349,5,5,3,"6682a5e",22,1
"2427",0,0,355,4,4,3,"6682a5e",23,1
"2527",1,0,390,5,1,3,"6682a5e",24,1
"2627",1,1,255,1,1,3,"6682a5e",25,1
"2727",1,1,324,2,2,3,"6682a5e",26,1
"2827",1,0,526,6,1,3,"6682a5e",27,1
"2927",0,1,952,1,4,3,"6682a5e",28,1
"3027",1,1,453,5,5,3,"6682a5e",29,1
"3133",1,0,439,2,1,3,"6682a5e",30,1
"3229",1,1,395,6,6,3,"6682a5e",31,1
"3327",1,1,434,3,3,3,"6682a5e",32,1
"3427",0,1,1159,3,1,3,"6682a5e",33,1
"3527",1,0,1052,1,4,3,"6682a5e",34,1
"3627",0,0,587,3,3,3,"6682a5e",35,1
"3727",1,1,526,6,6,3,"6682a5e",36,1
"3827",1,0,459,1,5,3,"6682a5e",37,1
"3927",0,0,476,1,1,3,"6682a5e",38,1
"4027",1,0,531,1,2,3,"6682a5e",39,1
"4133",1,0,332,1,3,3,"6682a5e",40,1
"4229",0,1,248,6,1,3,"6682a5e",41,1
"4327",1,1,481,4,4,3,"6682a5e",42,1
"4427",1,1,987,2,2,3,"6682a5e",43,1
"4527",1,1,548,5,5,3,"6682a5e",44,1
"4627",1,1,291,5,5,3,"6682a5e",45,1
"4727",0,1,1004,3,1,3,"6682a5e",46,1
"4827",0,1,353,2,1,3,"6682a5e",47,1
"4927",0,0,308,4,4,3,"6682a5e",48,1
"5027",0,0,478,2,2,3,"6682a5e",49,1
"5133",1,0,424,4,1,3,"6682a5e",50,1
"5229",1,1,320,1,1,3,"6682a5e",51,1
"5327",1,1,496,6,6,3,"6682a5e",52,1
"5427",1,0,1020,5,1,3,"6682a5e",53,1
"5526",1,0,393,1,6,3,"6682a5e",54,1
"5626",1,1,492,3,3,3,"6682a5e",55,1
"5726",1,0,416,2,1,3,"6682a5e",56,1
"5826",0,0,422,4,4,3,"6682a5e",57,1
"5926",0,0,673,1,1,3,"6682a5e",58,1
"6026",0,0,619,3,3,3,"6682a5e",59,1
"6132",1,0,518,1,5,3,"6682a5e",60,1
"6228",0,0,510,2,2,3,"6682a5e",61,1
"6326",1,1,528,5,5,3,"6682a5e",62,1
"6426",1,0,352,1,6,3,"6682a5e",63,1
"6526",0,1,306,1,3,3,"6682a5e",64,1
"6626",0,0,286,6,6,3,"6682a5e",65,1
"6726",1,0,287,4,1,3,"6682a5e",66,1
"6826",0,0,459,1,1,3,"6682a5e",67,1
"6926",0,0,286,4,4,3,"6682a5e",68,1
"7026",1,0,851,1,2,3,"6682a5e",69,1
"7130",-1,-1,0,3,1,3,"6682a5e",70,1
"7227",0,0,350,3,3,3,"6682a5e",71,1
"7326",1,0,395,1,5,3,"6682a5e",72,1
"7426",0,1,434,6,1,3,"6682a5e",73,1
"7526",1,1,611,6,6,3,"6682a5e",74,1
"7626",0,0,241,2,2,3,"6682a5e",75,1
"7726",1,1,1439,5,5,3,"6682a5e",76,1
"7826",1,0,537,4,1,3,"6682a5e",77,1
"2134",1,1,596,2,2,2,"1eda8f9",1,1
"3134",1,1,340,4,4,2,"1eda8f9",2,1
"4134",1,1,311,6,6,2,"1eda8f9",3,1
"5134",1,1,272,3,3,2,"1eda8f9",4,1
"6133",1,0,263,1,3,2,"1eda8f9",5,1
"7103",1,0,229,1,6,2,"1eda8f9",6,1
"828",0,1,258,1,4,2,"1eda8f9",7,1
"928",1,1,344,1,1,2,"1eda8f9",8,1
"1028",1,0,248,1,2,2,"1eda8f9",9,1
"1128",0,0,150,5,5,2,"1eda8f9",10,1
"1228",0,1,235,1,5,2,"1eda8f9",11,1
"1328",0,1,91,4,1,2,"1eda8f9",12,1
"1428",0,1,204,1,3,2,"1eda8f9",13,1
"1528",1,0,35,1,2,2,"1eda8f9",14,1
"1628",1,1,219,3,3,2,"1eda8f9",15,1
"1728",1,1,444,6,6,2,"1eda8f9",16,1
"1828",1,1,166,5,5,2,"1eda8f9",17,1
"1928",1,1,406,2,2,2,"1eda8f9",18,1
"2028",1,1,285,1,1,2,"1eda8f9",19,1
"2135",0,1,235,1,6,2,"1eda8f9",20,1
"2230",0,1,253,1,5,2,"1eda8f9",21,1
"2328",1,1,390,4,4,2,"1eda8f9",22,1
"2428",1,1,268,4,4,2,"1eda8f9",23,1
"2528",1,1,202,6,6,2,"1eda8f9",24,1
"2628",1,1,554,1,1,2,"1eda8f9",25,1
"2728",-1,-1,0,3,3,2,"1eda8f9",26,1
"2828",0,1,236,1,4,2,"1eda8f9",27,1
"2928",1,1,227,2,2,2,"1eda8f9",28,1
"3028",0,1,234,6,1,2,"1eda8f9",29,1
"3135",1,0,136,2,1,2,"1eda8f9",30,1
"3230",-1,-1,0,5,5,2,"1eda8f9",31,1
"3328",0,1,241,1,3,2,"1eda8f9",32,1
"3428",0,1,149,5,1,2,"1eda8f9",33,1
"3528",0,0,543,5,5,2,"1eda8f9",34,1
"3628",1,0,429,1,3,2,"1eda8f9",35,1
"3728",1,1,215,4,4,2,"1eda8f9",36,1
"3828",0,1,227,5,1,2,"1eda8f9",37,1
"3928",1,1,259,3,3,2,"1eda8f9",38,1
"4028",1,1,246,2,2,2,"1eda8f9",39,1
"4135",1,1,246,1,1,2,"1eda8f9",40,1
"4230",0,1,261,1,6,2,"1eda8f9",41,1
"4328",0,1,262,1,4,2,"1eda8f9",42,1
"4428",1,0,597,1,2,2,"1eda8f9",43,1
"4528",1,1,255,6,6,2,"1eda8f9",44,1
"4628",1,1,272,3,3,2,"1eda8f9",45,1
"4728",1,1,339,4,4,2,"1eda8f9",46,1
"4828",0,1,628,1,4,2,"1eda8f9",47,1
"4928",1,1,1029,5,5,2,"1eda8f9",48,1
"5028",1,1,238,6,6,2,"1eda8f9",49,1
"5135",0,1,233,1,6,2,"1eda8f9",50,1
"5230",1,1,137,1,1,2,"1eda8f9",51,1
"5328",0,1,248,3,1,2,"1eda8f9",52,1
"5428",1,0,271,2,1,2,"1eda8f9",53,1
"5527",0,1,193,5,1,2,"1eda8f9",54,1
"5627",1,1,235,2,2,2,"1eda8f9",55,1
"5727",0,1,695,3,1,2,"1eda8f9",56,1
"5827",1,0,473,1,2,2,"1eda8f9",57,1
"5927",0,1,285,1,6,2,"1eda8f9",58,1
"6027",1,1,236,2,2,2,"1eda8f9",59,1
"6134",1,1,251,3,3,2,"1eda8f9",60,1
"6229",0,1,256,4,1,2,"1eda8f9",61,1
"6327",1,1,301,4,4,2,"1eda8f9",62,1
"6427",1,1,260,6,6,2,"1eda8f9",63,1
"6527",1,1,319,1,1,2,"1eda8f9",64,1
"6627",0,1,292,1,5,2,"1eda8f9",65,1
"6727",1,1,249,5,5,2,"1eda8f9",66,1
"6827",1,1,383,5,5,2,"1eda8f9",67,1
"6927",1,1,144,4,4,2,"1eda8f9",68,1
"7027",1,1,387,2,2,2,"1eda8f9",69,1
"7131",1,1,141,6,6,2,"1eda8f9",70,1
"7228",0,1,77,3,1,2,"1eda8f9",71,1
"7327",0,1,281,4,1,2,"1eda8f9",72,1
"7427",0,1,655,1,6,2,"1eda8f9",73,1
"7527",0,1,290,5,1,2,"1eda8f9",74,1
"7627",1,0,262,1,2,2,"1eda8f9",75,1
"7727",1,1,243,1,1,2,"1eda8f9",76,1
"7827",1,1,137,3,3,2,"1eda8f9",77,1
"2136",1,1,894,2,2,1,"1775634",1,2
"3136",1,0,545,2,1,1,"1775634",2,2
"4136",1,1,1444,6,6,1,"1775634",3,2
"5136",0,1,288,5,1,1,"1775634",4,2
"6135",1,1,424,1,1,1,"1775634",5,2
"7104",0,1,325,6,1,1,"1775634",6,2
"829",1,1,318,5,5,1,"1775634",7,2
"929",0,1,383,3,1,1,"1775634",8,2
"1029",0,1,279,1,4,1,"1775634",9,2
"1129",1,1,471,4,4,1,"1775634",10,2
"1229",1,1,279,3,3,1,"1775634",11,2
"1329",0,1,430,1,5,1,"1775634",12,2
"1429",1,0,414,3,1,1,"1775634",13,2
"1529",0,1,393,1,4,1,"1775634",14,2
"1629",0,1,331,6,1,1,"1775634",15,2
"1729",1,1,298,4,4,1,"1775634",16,2
"1829",1,1,364,6,6,1,"1775634",17,2
"1929",1,0,255,2,1,1,"1775634",18,2
"2029",1,1,314,5,5,1,"1775634",19,2
"2137",1,1,316,1,1,1,"1775634",20,2
"2231",1,1,493,3,3,1,"1775634",21,2
"2329",1,1,483,2,2,1,"1775634",22,2
"2429",0,1,87,1,4,1,"1775634",23,2
"2529",1,0,382,3,1,1,"1775634",24,2
"2629",0,1,584,6,1,1,"1775634",25,2
"2729",1,1,1187,2,2,1,"1775634",26,2
"2829",1,0,361,1,2,1,"1775634",27,2
"2929",1,1,1176,1,1,1,"1775634",28,2
"3029",1,1,790,3,3,1,"1775634",29,2
"3137",1,1,295,4,4,1,"1775634",30,2
"3231",1,0,46,1,5,1,"1775634",31,2
"3329",1,1,280,5,5,1,"1775634",32,2
"3429",1,1,301,6,6,1,"1775634",33,2
"3529",0,1,403,2,1,1,"1775634",34,2
"3629",1,1,254,5,5,1,"1775634",35,2
"3729",1,1,366,6,6,1,"1775634",36,2
"3829",0,1,66,1,5,1,"1775634",37,2
"3929",0,0,306,3,3,1,"1775634",38,2
"4029",0,1,426,6,1,1,"1775634",39,2
"4137",0,1,263,3,1,1,"1775634",40,2
"4231",0,1,281,4,1,1,"1775634",41,2
"4329",1,1,308,1,1,1,"1775634",42,2
"4429",1,1,383,2,2,1,"1775634",43,2
"4529",1,1,326,4,4,1,"1775634",44,2
"4629",1,1,331,1,1,1,"1775634",45,2
"4729",0,1,501,6,1,1,"1775634",46,2
"4829",1,1,772,4,4,1,"1775634",47,2
"4929",1,1,654,3,3,1,"1775634",48,2
"5029",1,0,295,1,3,1,"1775634",49,2
"5137",0,1,284,1,2,1,"1775634",50,2
"5231",1,1,481,6,6,1,"1775634",51,2
"5329",0,0,1362,2,2,1,"1775634",52,2
"5429",0,1,942,4,1,1,"1775634",53,2
"5528",0,1,496,5,1,1,"1775634",54,2
"5628",1,1,339,5,5,1,"1775634",55,2
"5728",0,1,308,1,3,1,"1775634",56,2
"5828",1,1,1052,6,6,1,"1775634",57,2
"5928",1,0,687,2,1,1,"1775634",58,2
"6028",0,1,314,5,1,1,"1775634",59,2
"6136",1,1,384,3,3,1,"1775634",60,2
"6230",1,1,1340,4,4,1,"1775634",61,2
"6328",1,1,303,5,5,1,"1775634",62,2
"6428",1,1,297,2,2,1,"1775634",63,2
"6528",0,1,507,1,4,1,"1775634",64,2
"6628",1,1,481,1,1,1,"1775634",65,2
"6728",0,1,138,6,1,1,"1775634",66,2
"6828",1,1,328,1,1,1,"1775634",67,2
"6928",0,1,289,5,1,1,"1775634",68,2
"7028",0,1,299,1,2,1,"1775634",69,2
"7132",1,1,320,3,3,1,"1775634",70,2
"7229",0,1,289,3,1,1,"1775634",71,2
"7328",0,1,311,1,4,1,"1775634",72,2
"7428",1,1,456,6,6,1,"1775634",73,2
"7528",1,1,490,4,4,1,"1775634",74,2
"7628",0,1,284,6,1,1,"1775634",75,2
"7728",1,1,597,2,2,1,"1775634",76,2
"7828",1,1,906,5,5,1,"1775634",77,2
"2138",0,1,387,1,5,2,"1566cef",1,2
"3138",0,1,513,1,4,2,"1566cef",2,2
"4138",1,1,311,3,3,2,"1566cef",3,2
"5138",1,1,461,6,6,2,"1566cef",4,2
"6137",1,1,292,2,2,2,"1566cef",5,2
"7105",1,1,320,4,4,2,"1566cef",6,2
"830",0,1,294,3,1,2,"1566cef",7,2
"930",1,1,388,1,1,2,"1566cef",8,2
"1030",0,1,411,6,1,2,"1566cef",9,2
"1130",1,1,271,5,5,2,"1566cef",10,2
"1230",0,1,408,1,2,2,"1566cef",11,2
"1330",0,1,437,1,5,2,"1566cef",12,2
"1430",1,1,1018,1,1,2,"1566cef",13,2
"1530",1,1,552,6,6,2,"1566cef",14,2
"1630",0,1,350,3,1,2,"1566cef",15,2
"1730",1,1,444,5,5,2,"1566cef",16,2
"1830",1,1,306,2,2,2,"1566cef",17,2
"1930",0,1,346,1,4,2,"1566cef",18,2
"2030",1,1,343,4,4,2,"1566cef",19,2
"2139",0,1,335,1,6,2,"1566cef",20,2
"2232",1,1,692,3,3,2,"1566cef",21,2
"2330",0,1,310,1,2,2,"1566cef",22,2
"2430",1,1,339,4,4,2,"1566cef",23,2
"2530",0,1,402,6,1,2,"1566cef",24,2
"2630",0,1,304,5,1,2,"1566cef",25,2
"2730",1,1,327,3,3,2,"1566cef",26,2
"2830",0,1,374,1,3,2,"1566cef",27,2
"2930",0,1,342,2,1,2,"1566cef",28,2
"3030",0,1,396,1,4,2,"1566cef",29,2
"3139",1,1,308,1,1,2,"1566cef",30,2
"3232",1,1,417,2,2,2,"1566cef",31,2
"3330",0,0,589,6,6,2,"1566cef",32,2
"3430",1,1,635,5,5,2,"1566cef",33,2
"3530",1,1,381,5,5,2,"1566cef",34,2
"3630",0,1,618,6,1,2,"1566cef",35,2
"3730",0,1,451,4,1,2,"1566cef",36,2
"3830",0,1,481,2,1,2,"1566cef",37,2
"3930",0,1,440,1,3,2,"1566cef",38,2
"4030",1,1,391,3,3,2,"1566cef",39,2
"4139",0,1,609,5,1,2,"1566cef",40,2
"4232",1,1,498,4,4,2,"1566cef",41,2
"4330",1,1,692,1,1,2,"1566cef",42,2
"4430",1,1,319,2,2,2,"1566cef",43,2
"4530",1,1,527,6,6,2,"1566cef",44,2
"4630",0,1,1341,1,2,2,"1566cef",45,2
"4730",0,1,427,1,6,2,"1566cef",46,2
"4830",1,1,637,6,6,2,"1566cef",47,2
"4930",0,1,543,3,1,2,"1566cef",48,2
"5030",1,1,562,1,1,2,"1566cef",49,2
"5139",1,1,523,4,4,2,"1566cef",50,2
"5232",1,1,564,2,2,2,"1566cef",51,2
"5330",0,1,601,1,5,2,"1566cef",52,2
"5430",1,1,442,3,3,2,"1566cef",53,2
"5529",1,1,553,5,5,2,"1566cef",54,2
"5629",0,1,380,1,4,2,"1566cef",55,2
"5729",1,1,763,6,6,2,"1566cef",56,2
"5829",0,1,516,1,4,2,"1566cef",57,2
"5929",1,1,485,3,3,2,"1566cef",58,2
"6029",0,1,416,1,2,2,"1566cef",59,2
"6138",1,1,564,4,4,2,"1566cef",60,2
"6231",1,1,478,1,1,2,"1566cef",61,2
"6329",0,1,336,6,1,2,"1566cef",62,2
"6429",0,1,564,1,3,2,"1566cef",63,2
"6529",1,1,478,5,5,2,"1566cef",64,2
"6629",0,1,463,5,1,2,"1566cef",65,2
"6729",1,1,348,2,2,2,"1566cef",66,2
"6829",1,1,388,3,3,2,"1566cef",67,2
"6929",1,1,595,5,5,2,"1566cef",68,2
"7029",1,1,378,1,1,2,"1566cef",69,2
"7133",1,1,360,6,6,2,"1566cef",70,2
"7230",0,1,738,1,3,2,"1566cef",71,2
"7329",0,1,383,1,6,2,"1566cef",72,2
"7429",0,1,457,2,1,2,"1566cef",73,2
"7529",0,1,445,1,4,2,"1566cef",74,2
"7629",1,1,627,4,4,2,"1566cef",75,2
"7729",1,1,330,2,2,2,"1566cef",76,2
"7829",0,1,736,5,1,2,"1566cef",77,2
"2140",0,1,55,6,1,2,"14c5dbb",1,2
"3140",1,1,296,3,3,2,"14c5dbb",2,2
"4140",0,1,526,4,1,2,"14c5dbb",3,2
"5140",1,1,156,1,1,2,"14c5dbb",4,2
"6139",1,1,86,2,2,2,"14c5dbb",5,2
"7106",0,1,45,1,2,2,"14c5dbb",6,2
"831",1,1,148,4,4,2,"14c5dbb",7,2
"931",0,1,148,3,1,2,"14c5dbb",8,2
"1031",0,1,341,1,5,2,"14c5dbb",9,2
"1131",1,1,122,6,6,2,"14c5dbb",10,2
"1231",1,1,622,5,5,2,"14c5dbb",11,2
"1331",0,1,498,5,1,2,"14c5dbb",12,2
"1431",1,1,233,6,6,2,"14c5dbb",13,2
"1531",1,1,445,2,2,2,"14c5dbb",14,2
"1631",1,1,6,1,1,2,"14c5dbb",15,2
"1731",1,1,136,3,3,2,"14c5dbb",16,2
"1831",1,1,260,5,5,2,"14c5dbb",17,2
"1931",0,0,170,4,4,2,"14c5dbb",18,2
"2031",1,0,192,2,1,2,"14c5dbb",19,2
"2141",0,1,159,3,1,2,"14c5dbb",20,2
"2233",0,1,168,6,1,2,"14c5dbb",21,2
"2331",0,1,208,1,4,2,"14c5dbb",22,2
"2431",0,1,323,1,2,2,"14c5dbb",23,2
"2531",0,1,148,1,3,2,"14c5dbb",24,2
"2631",1,1,533,5,5,2,"14c5dbb",25,2
"2731",0,1,345,1,5,2,"14c5dbb",26,2
"2831",0,1,171,4,1,2,"14c5dbb",27,2
"2931",1,1,889,2,2,2,"14c5dbb",28,2
"3031",1,1,894,4,4,2,"14c5dbb",29,2
"3141",1,1,169,6,6,2,"14c5dbb",30,2
"3233",1,1,257,3,3,2,"14c5dbb",31,2
"3331",1,1,459,1,1,2,"14c5dbb",32,2
"3431",0,1,232,6,1,2,"14c5dbb",33,2
"3531",0,0,232,3,3,2,"14c5dbb",34,2
"3631",1,1,35,5,5,2,"14c5dbb",35,2
"3731",1,1,706,6,6,2,"14c5dbb",36,2
"3831",1,1,243,4,4,2,"14c5dbb",37,2
"3931",0,1,18,1,4,2,"14c5dbb",38,2
"4031",0,1,350,1,2,2,"14c5dbb",39,2
"4141",0,1,429,1,3,2,"14c5dbb",40,2
"4233",0,1,275,5,1,2,"14c5dbb",41,2
"4331",1,1,281,1,1,2,"14c5dbb",42,2
"4431",1,1,662,2,2,2,"14c5dbb",43,2
"4531",0,1,708,6,1,2,"14c5dbb",44,2
"4631",1,1,10,1,1,2,"14c5dbb",45,2
"4731",1,1,302,3,3,2,"14c5dbb",46,2
"4831",0,1,76,4,1,2,"14c5dbb",47,2
"4931",1,1,448,2,2,2,"14c5dbb",48,2
"5031",0,1,180,3,1,2,"14c5dbb",49,2
"5141",1,1,267,6,6,2,"14c5dbb",50,2
"5233",1,0,211,2,1,2,"14c5dbb",51,2
"5331",0,1,221,1,5,2,"14c5dbb",52,2
"5431",0,0,21,5,5,2,"14c5dbb",53,2
"5530",0,1,324,6,1,2,"14c5dbb",54,2
"5630",1,1,290,4,4,2,"14c5dbb",55,2
"5730",0,1,147,4,1,2,"14c5dbb",56,2
"5830",1,1,559,3,3,2,"14c5dbb",57,2
"5930",1,1,173,5,5,2,"14c5dbb",58,2
"6030",0,1,259,5,1,2,"14c5dbb",59,2
"6140",0,0,365,1,1,2,"14c5dbb",60,2
"6232",1,1,385,4,4,2,"14c5dbb",61,2
"6330",1,1,843,6,6,2,"14c5dbb",62,2
"6430",1,1,449,2,2,2,"14c5dbb",63,2
"6530",1,0,236,3,1,2,"14c5dbb",64,2
"6630",0,1,259,1,6,2,"14c5dbb",65,2
"6730",1,0,102,1,2,2,"14c5dbb",66,2
"6830",0,1,196,1,3,2,"14c5dbb",67,2
"6930",1,1,161,2,2,2,"14c5dbb",68,2
"7030",0,1,341,1,4,2,"14c5dbb",69,2
"7134",0,1,351,6,1,2,"14c5dbb",70,2
"7231",1,1,214,5,5,2,"14c5dbb",71,2
"7330",1,1,133,4,4,2,"14c5dbb",72,2
"7430",1,1,59,3,3,2,"14c5dbb",73,2
"7530",1,0,200,1,2,2,"14c5dbb",74,2
"7630",1,1,82,1,1,2,"14c5dbb",75,2
"7730",0,1,56,5,1,2,"14c5dbb",76,2
"7830",1,1,304,6,6,2,"14c5dbb",77,2
"2142",1,1,286,3,3,3,"16f8599",1,2
"3142",1,1,313,4,4,3,"16f8599",2,2
"4142",1,1,225,6,6,3,"16f8599",3,2
"5142",1,0,271,1,5,3,"16f8599",4,2
"6141",1,0,91,1,6,3,"16f8599",5,2
"7107",1,0,673,2,1,3,"16f8599",6,2
"832",0,0,472,5,5,3,"16f8599",7,2
"932",1,1,682,2,2,3,"16f8599",8,2
"1032",1,0,576,1,3,3,"16f8599",9,2
"1132",1,1,335,1,1,3,"16f8599",10,2
"1232",0,1,386,1,4,3,"16f8599",11,2
"1332",1,1,270,1,1,3,"16f8599",12,2
"1432",1,1,285,4,4,3,"16f8599",13,2
"1532",1,1,244,3,3,3,"16f8599",14,2
"1632",1,1,343,5,5,3,"16f8599",15,2
"1732",0,1,482,1,2,3,"16f8599",16,2
"1832",1,0,611,1,6,3,"16f8599",17,2
"1932",1,1,1569,6,6,3,"16f8599",18,2
"2032",0,1,361,1,4,3,"16f8599",19,2
"2143",1,0,268,3,1,3,"16f8599",20,2
"2234",1,1,420,2,2,3,"16f8599",21,2
"2332",0,1,786,1,5,3,"16f8599",22,2
"2432",1,0,475,1,2,3,"16f8599",23,2
"2532",0,0,571,3,3,3,"16f8599",24,2
"2632",0,1,511,6,1,3,"16f8599",25,2
"2732",1,1,325,5,5,3,"16f8599",26,2
"2832",-1,-1,0,1,3,3,"16f8599",27,2
"2932",0,0,793,4,4,3,"16f8599",28,2
"3032",1,1,335,6,6,3,"16f8599",29,2
"3143",1,1,414,1,1,3,"16f8599",30,2
"3234",1,0,973,5,1,3,"16f8599",31,2
"3332",1,0,1229,1,4,3,"16f8599",32,2
"3432",1,1,789,2,2,3,"16f8599",33,2
"3532",1,1,442,5,5,3,"16f8599",34,2
"3632",0,0,177,1,1,3,"16f8599",35,2
"3732",0,0,562,3,3,3,"16f8599",36,2
"3832",1,0,390,2,1,3,"16f8599",37,2
"3932",-1,-1,0,1,4,3,"16f8599",38,2
"4032",1,1,85,4,4,3,"16f8599",39,2
"4143",-1,-1,0,6,1,3,"16f8599",40,2
"4234",1,0,820,1,5,3,"16f8599",41,2
"4332",-1,-1,0,6,6,3,"16f8599",42,2
"4432",0,0,745,2,2,3,"16f8599",43,2
"4532",0,1,1036,3,1,3,"16f8599",44,2
"4632",1,1,965,4,4,3,"16f8599",45,2
"4732",-1,-1,0,3,3,3,"16f8599",46,2
"4832",0,1,742,4,1,3,"16f8599",47,2
"4932",0,1,931,1,6,3,"16f8599",48,2
"5032",1,1,1191,6,6,3,"16f8599",49,2
"5143",0,1,1033,3,1,3,"16f8599",50,2
"5234",1,1,1202,2,2,3,"16f8599",51,2
"5332",1,1,946,5,5,3,"16f8599",52,2
"5432",-1,-1,0,2,1,3,"16f8599",53,2
"5531",1,1,818,1,1,3,"16f8599",54,2
"5631",-1,-1,0,5,1,3,"16f8599",55,2
"5731",1,1,1053,5,5,3,"16f8599",56,2
"5831",0,1,536,6,1,3,"16f8599",57,2
"5931",0,1,1285,1,2,3,"16f8599",58,2
"6031",1,1,1009,3,3,3,"16f8599",59,2
"6142",-1,-1,0,2,2,3,"16f8599",60,2
"6233",1,0,379,5,1,3,"16f8599",61,2
"6331",0,1,374,3,1,3,"16f8599",62,2
"6431",1,1,329,1,1,3,"16f8599",63,2
"6531",1,1,791,4,4,3,"16f8599",64,2
"6631",1,1,736,6,6,3,"16f8599",65,2
"6731",0,1,1216,4,1,3,"16f8599",66,2
"6831",0,1,1352,5,1,3,"16f8599",67,2
"6931",1,1,866,4,4,3,"16f8599",68,2
"7031",1,1,1756,5,5,3,"16f8599",69,2
"7135",0,1,335,1,2,3,"16f8599",70,2
"7232",1,1,337,2,2,3,"16f8599",71,2
"7331",1,1,486,1,1,3,"16f8599",72,2
"7431",0,1,363,4,1,3,"16f8599",73,2
"7531",1,1,638,3,3,3,"16f8599",74,2
"7631",1,1,915,6,6,3,"16f8599",75,2
"7731",0,1,1235,6,1,3,"16f8599",76,2
"7831",0,1,260,1,3,3,"16f8599",77,2
"2144",1,0,229,1,2,1,"1fdd1c0",1,2
"3144",0,1,288,1,5,1,"1fdd1c0",2,2
"4144",0,1,216,4,1,1,"1fdd1c0",3,2
"5144",0,1,238,6,1,1,"1fdd1c0",4,2
"6143",1,1,253,6,6,1,"1fdd1c0",5,2
"7108",1,1,228,4,4,1,"1fdd1c0",6,2
"833",1,1,302,3,3,1,"1fdd1c0",7,2
"933",0,1,213,1,3,1,"1fdd1c0",8,2
"1033",1,1,214,1,1,1,"1fdd1c0",9,2
"1133",1,1,369,5,5,1,"1fdd1c0",10,2
"1233",1,1,465,2,2,1,"1fdd1c0",11,2
"1333",0,1,268,4,1,1,"1fdd1c0",12,2
"1433",1,1,408,1,1,1,"1fdd1c0",13,2
"1533",0,1,226,6,1,1,"1fdd1c0",14,2
"1633",1,0,229,2,1,1,"1fdd1c0",15,2
"1733",0,1,241,1,3,1,"1fdd1c0",16,2
"1833",1,1,269,4,4,1,"1fdd1c0",17,2
"1933",0,1,205,1,5,1,"1fdd1c0",18,2
"2033",1,1,418,5,5,1,"1fdd1c0",19,2
"2145",1,1,251,2,2,1,"1fdd1c0",20,2
"2235",1,1,220,3,3,1,"1fdd1c0",21,2
"2333",1,1,388,6,6,1,"1fdd1c0",22,2
"2433",0,1,280,1,6,1,"1fdd1c0",23,2
"2533",0,1,238,4,1,1,"1fdd1c0",24,2
"2633",1,1,222,6,6,1,"1fdd1c0",25,2
"2733",1,1,236,1,1,1,"1fdd1c0",26,2
"2833",1,1,252,4,4,1,"1fdd1c0",27,2
"2933",1,1,474,5,5,1,"1fdd1c0",28,2
"3033",0,1,221,1,2,1,"1fdd1c0",29,2
"3145",0,1,186,1,5,1,"1fdd1c0",30,2
"3235",0,1,225,1,3,1,"1fdd1c0",31,2
"3333",1,1,405,2,2,1,"1fdd1c0",32,2
"3433",1,1,253,3,3,1,"1fdd1c0",33,2
"3533",1,1,187,2,2,1,"1fdd1c0",34,2
"3633",1,1,222,6,6,1,"1fdd1c0",35,2
"3733",1,0,197,2,1,1,"1fdd1c0",36,2
"3833",0,1,230,3,1,1,"1fdd1c0",37,2
"3933",1,1,242,4,4,1,"1fdd1c0",38,2
"4033",1,1,225,5,5,1,"1fdd1c0",39,2
"4145",1,1,169,3,3,1,"1fdd1c0",40,2
"4235",1,1,301,1,1,1,"1fdd1c0",41,2
"4333",0,1,63,1,5,1,"1fdd1c0",42,2
"4433",0,1,250,4,1,1,"1fdd1c0",43,2
"4533",0,1,225,6,1,1,"1fdd1c0",44,2
"4633",0,1,229,1,6,1,"1fdd1c0",45,2
"4733",1,1,295,6,6,1,"1fdd1c0",46,2
"4833",1,0,306,1,2,1,"1fdd1c0",47,2
"4933",1,1,218,5,5,1,"1fdd1c0",48,2
"5033",0,1,224,3,1,1,"1fdd1c0",49,2
"5145",1,1,404,3,3,1,"1fdd1c0",50,2
"5235",1,1,229,4,4,1,"1fdd1c0",51,2
"5333",0,1,210,5,1,1,"1fdd1c0",52,2
"5433",0,1,174,1,4,1,"1fdd1c0",53,2
"5532",1,1,324,1,1,1,"1fdd1c0",54,2
"5632",1,1,288,2,2,1,"1fdd1c0",55,2
"5732",1,1,223,1,1,1,"1fdd1c0",56,2
"5832",1,1,240,5,5,1,"1fdd1c0",57,2
"5932",1,1,266,2,2,1,"1fdd1c0",58,2
"6032",0,1,210,1,5,1,"1fdd1c0",59,2
"6144",0,1,259,1,4,1,"1fdd1c0",60,2
"6234",0,1,237,1,2,1,"1fdd1c0",61,2
"6332",0,1,244,1,3,1,"1fdd1c0",62,2
"6432",1,1,220,6,6,1,"1fdd1c0",63,2
"6532",1,1,370,3,3,1,"1fdd1c0",64,2
"6632",0,1,205,6,1,1,"1fdd1c0",65,2
"6732",1,1,217,4,4,1,"1fdd1c0",66,2
"6832",1,1,230,4,4,1,"1fdd1c0",67,2
"6932",1,1,256,3,3,1,"1fdd1c0",68,2
"7032",0,1,102,5,1,1,"1fdd1c0",69,2
"7136",0,1,250,6,1,1,"1fdd1c0",70,2
"7233",1,1,183,6,6,1,"1fdd1c0",71,2
"7332",1,1,156,5,5,1,"1fdd1c0",72,2
"7432",1,1,244,1,1,1,"1fdd1c0",73,2
"7532",0,1,216,3,1,1,"1fdd1c0",74,2
"7632",1,1,239,2,2,1,"1fdd1c0",75,2
"7732",1,0,250,2,1,1,"1fdd1c0",76,2
"7832",0,1,289,4,1,1,"1fdd1c0",77,2
"2146",1,1,429,6,6,1,"aada38f",1,2
"3146",1,1,280,1,1,1,"aada38f",2,2
"4146",0,1,1019,1,2,1,"aada38f",3,2
"5146",1,1,369,3,3,1,"aada38f",4,2
"6145",0,1,557,6,1,1,"aada38f",5,2
"7109",0,1,1586,5,1,1,"aada38f",6,2
"834",1,1,1026,5,5,1,"aada38f",7,2
"934",1,1,388,4,4,1,"aada38f",8,2
"1034",1,1,636,2,2,1,"aada38f",9,2
"1134",0,1,418,1,4,1,"aada38f",10,2
"1234",0,1,1401,1,3,1,"aada38f",11,2
"1334",1,0,1250,1,4,1,"aada38f",12,2
"1434",1,1,425,6,6,1,"aada38f",13,2
"1534",1,1,594,2,2,1,"aada38f",14,2
"1634",0,1,631,3,1,1,"aada38f",15,2
"1734",0,0,487,5,5,1,"aada38f",16,2
"1834",1,1,1676,4,4,1,"aada38f",17,2
"1934",0,1,1213,1,5,1,"aada38f",18,2
"2034",0,1,516,1,6,1,"aada38f",19,2
"2147",1,1,831,1,1,1,"aada38f",20,2
"2236",1,1,580,3,3,1,"aada38f",21,2
"2334",1,0,423,2,1,1,"aada38f",22,2
"2434",1,1,412,5,5,1,"aada38f",23,2
"2534",1,1,417,4,4,1,"aada38f",24,2
"2634",1,1,456,3,3,1,"aada38f",25,2
"2734",0,1,390,1,4,1,"aada38f",26,2
"2834",1,1,581,2,2,1,"aada38f",27,2
"2934",0,1,672,3,1,1,"aada38f",28,2
"3034",0,0,424,6,6,1,"aada38f",29,2
"3147",0,1,362,2,1,1,"aada38f",30,2
"3236",0,1,722,6,1,1,"aada38f",31,2
"3334",1,1,378,1,1,1,"aada38f",32,2
"3434",0,1,522,1,5,1,"aada38f",33,2
"3534",1,1,475,6,6,1,"aada38f",34,2
"3634",0,1,426,5,1,1,"aada38f",35,2
"3734",1,1,792,2,2,1,"aada38f",36,2
"3834",0,1,497,1,6,1,"aada38f",37,2
"3934",1,1,528,1,1,1,"aada38f",38,2
"4034",1,1,597,5,5,1,"aada38f",39,2
"4147",1,0,617,1,2,1,"aada38f",40,2
"4236",1,1,886,3,3,1,"aada38f",41,2
"4334",0,1,794,1,3,1,"aada38f",42,2
"4434",0,1,678,1,4,1,"aada38f",43,2
"4534",1,1,629,4,4,1,"aada38f",44,2
"4634",0,1,813,1,6,1,"aada38f",45,2
"4734",1,1,1139,2,2,1,"aada38f",46,2
"4834",1,0,861,1,2,1,"aada38f",47,2
"4934",1,1,649,1,1,1,"aada38f",48,2
"5034",0,1,1147,3,1,1,"aada38f",49,2
"5147",1,0,837,4,1,1,"aada38f",50,2
"5236",1,1,765,6,6,1,"aada38f",51,2
"5334",0,1,780,1,5,1,"aada38f",52,2
"5434",0,0,710,5,5,1,"aada38f",53,2
"5533",0,0,1412,4,4,1,"aada38f",54,2
"5633",1,1,541,3,3,1,"aada38f",55,2
"5733",1,1,992,4,4,1,"aada38f",56,2
"5833",1,1,442,3,3,1,"aada38f",57,2
"5933",0,1,788,3,1,1,"aada38f",58,2
"6033",1,1,904,2,2,1,"aada38f",59,2
"6146",1,1,481,5,5,1,"aada38f",60,2
"6235",1,1,728,6,6,1,"aada38f",61,2
"6333",0,1,442,1,2,1,"aada38f",62,2
"6433",0,1,902,6,1,1,"aada38f",63,2
"6533",1,1,616,1,1,1,"aada38f",64,2
"6633",0,1,778,5,1,1,"aada38f",65,2
"6733",0,1,637,4,1,1,"aada38f",66,2
"6833",1,1,741,3,3,1,"aada38f",67,2
"6933",0,1,773,2,1,1,"aada38f",68,2
"7033",1,1,993,5,5,1,"aada38f",69,2
"7137",0,1,658,6,1,1,"aada38f",70,2
"7234",0,1,827,1,5,1,"aada38f",71,2
"7333",0,1,1057,1,4,1,"aada38f",72,2
"7433",1,1,382,4,4,1,"aada38f",73,2
"7533",0,1,724,3,1,1,"aada38f",74,2
"7633",1,1,465,1,1,1,"aada38f",75,2
"7733",0,0,1927,6,6,1,"aada38f",76,2
"7833",1,1,515,2,2,1,"aada38f",77,2
"2148",0,1,1982,1,4,2,"11c388d",1,2
"3148",0,1,2001,1,2,2,"11c388d",2,2
"4148",0,1,1881,1,3,2,"11c388d",3,2
"5148",0,1,1893,6,1,2,"11c388d",4,2
"6147",0,0,1909,3,3,2,"11c388d",5,2
"7138",0,0,1928,6,6,2,"11c388d",6,2
"835",0,0,1947,5,5,2,"11c388d",7,2
"935",0,0,1954,2,2,2,"11c388d",8,2
"1035",0,1,1970,5,1,2,"11c388d",9,2
"1135",0,0,1987,4,4,2,"11c388d",10,2
"1235",0,0,1859,1,1,2,"11c388d",11,2
"1335",0,1,1881,3,1,2,"11c388d",12,2
"1435",0,0,1891,5,5,2,"11c388d",13,2
"1535",0,0,1911,4,4,2,"11c388d",14,2
"1635",0,1,1931,4,1,2,"11c388d",15,2
"1735",0,0,1939,3,3,2,"11c388d",16,2
"1835",0,0,1955,6,6,2,"11c388d",17,2
"1935",0,0,1976,2,2,2,"11c388d",18,2
"2035",0,1,1987,6,1,2,"11c388d",19,2
"2149",0,0,1893,1,1,2,"11c388d",20,2
"2237",0,1,1917,5,1,2,"11c388d",21,2
"2335",0,1,1929,1,2,2,"11c388d",22,2
"2435",0,0,1950,4,4,2,"11c388d",23,2
"2535",0,1,1958,1,2,2,"11c388d",24,2
"2635",0,0,1992,3,3,2,"11c388d",25,2
"2735",0,1,1863,4,1,2,"11c388d",26,2
"2835",0,0,1887,2,2,2,"11c388d",27,2
"2935",0,1,1893,1,5,2,"11c388d",28,2
"3035",0,1,1909,1,3,2,"11c388d",29,2
"3149",0,0,1933,1,1,2,"11c388d",30,2
"3237",0,1,1949,1,6,2,"11c388d",31,2
"3335",0,0,1961,6,6,2,"11c388d",32,2
"3435",0,0,1974,5,5,2,"11c388d",33,2
"3535",0,0,1992,5,5,2,"11c388d",34,2
"3635",0,0,1869,6,6,2,"11c388d",35,2
"3735",0,1,1883,4,1,2,"11c388d",36,2
"3835",0,1,1899,3,1,2,"11c388d",37,2
"3935",0,0,1915,3,3,2,"11c388d",38,2
"4035",0,1,1942,1,5,2,"11c388d",39,2
"4149",0,0,1950,1,1,2,"11c388d",40,2
"4237",0,1,1971,1,6,2,"11c388d",41,2
"4335",0,0,1979,2,2,2,"11c388d",42,2
"4435",0,0,1997,4,4,2,"11c388d",43,2
"4535",0,1,1876,1,2,2,"11c388d",44,2
"4635",0,0,1887,5,5,2,"11c388d",45,2
"4735",0,1,1910,4,1,2,"11c388d",46,2
"4835",0,1,1917,6,1,2,"11c388d",47,2
"4935",0,0,1934,1,1,2,"11c388d",48,2
"5035",0,0,1947,6,6,2,"11c388d",49,2
"5149",0,0,1970,3,3,2,"11c388d",50,2
"5237",0,0,2000,2,2,2,"11c388d",51,2
"5335",0,1,1873,2,1,2,"11c388d",52,2
"5435",0,1,1889,5,1,2,"11c388d",53,2
"5534",0,1,1905,3,1,2,"11c388d",54,2
"5634",0,0,1915,4,4,2,"11c388d",55,2
"5734",0,1,1930,1,5,2,"11c388d",56,2
"5834",0,0,1945,6,6,2,"11c388d",57,2
"5934",0,0,1967,3,3,2,"11c388d",58,2
"6034",0,1,1994,6,1,2,"11c388d",59,2
"6148",0,1,1872,1,3,2,"11c388d",60,2
"6236",0,0,1893,2,2,2,"11c388d",61,2
"6334",0,1,1906,1,2,2,"11c388d",62,2
"6434",0,1,1925,1,4,2,"11c388d",63,2
"6534",0,0,1932,5,5,2,"11c388d",64,2
"6634",0,0,1948,4,4,2,"11c388d",65,2
"6734",0,0,1968,1,1,2,"11c388d",66,2
"6834",0,0,1982,2,2,2,"11c388d",67,2
"6934",0,1,1861,1,3,2,"11c388d",68,2
"7034",0,1,1876,6,1,2,"11c388d",69,2
"7139",0,0,1897,6,6,2,"11c388d",70,2
"7235",0,0,1905,5,5,2,"11c388d",71,2
"7334",0,0,1929,4,4,2,"11c388d",72,2
"7434",0,0,1941,3,3,2,"11c388d",73,2
"7534",0,0,1959,1,1,2,"11c388d",74,2
"7634",0,1,1968,4,1,2,"11c388d",75,2
"7734",0,1,1981,1,2,2,"11c388d",76,2
"7834",0,1,1858,1,5,2,"11c388d",77,2
"2150",0,0,626,3,3,2,"13eb09d",1,2
"3150",0,1,467,3,1,2,"13eb09d",2,2
"4150",1,1,501,6,6,2,"13eb09d",3,2
"5150",1,1,393,5,5,2,"13eb09d",4,2
"6149",0,1,380,1,4,2,"13eb09d",5,2
"7140",0,0,516,2,2,2,"13eb09d",6,2
"836",0,1,302,5,1,2,"13eb09d",7,2
"936",0,1,1102,1,6,2,"13eb09d",8,2
"1036",1,1,593,1,1,2,"13eb09d",9,2
"1136",1,0,646,1,2,2,"13eb09d",10,2
"1236",1,1,375,4,4,2,"13eb09d",11,2
"1336",0,1,601,3,1,2,"13eb09d",12,2
"1436",1,1,486,5,5,2,"13eb09d",13,2
"1536",0,1,250,1,6,2,"13eb09d",14,2
"1636",0,1,492,1,5,2,"13eb09d",15,2
"1736",1,1,1375,3,3,2,"13eb09d",16,2
"1836",1,1,491,4,4,2,"13eb09d",17,2
"1936",1,1,1136,6,6,2,"13eb09d",18,2
"2036",0,1,436,1,2,2,"13eb09d",19,2
"2151",0,1,452,1,4,2,"13eb09d",20,2
"2238",1,1,1615,1,1,2,"13eb09d",21,2
"2336",0,0,439,2,2,2,"13eb09d",22,2
"2436",1,1,460,5,5,2,"13eb09d",23,2
"2536",1,1,554,6,6,2,"13eb09d",24,2
"2636",1,1,541,2,2,2,"13eb09d",25,2
"2736",0,1,518,1,6,2,"13eb09d",26,2
"2836",0,1,422,1,5,2,"13eb09d",27,2
"2936",1,1,294,3,3,2,"13eb09d",28,2
"3036",1,1,1093,1,1,2,"13eb09d",29,2
"3151",1,1,375,4,4,2,"13eb09d",30,2
"3238",1,0,318,1,2,2,"13eb09d",31,2
"3336",0,1,319,4,1,2,"13eb09d",32,2
"3436",0,1,395,1,3,2,"13eb09d",33,2
"3536",0,1,381,6,1,2,"13eb09d",34,2
"3636",1,1,440,1,1,2,"13eb09d",35,2
"3736",0,1,324,2,1,2,"13eb09d",36,2
"3836",0,1,560,1,5,2,"13eb09d",37,2
"3936",1,1,556,6,6,2,"13eb09d",38,2
"4036",0,1,547,1,4,2,"13eb09d",39,2
"4151",0,0,391,4,4,2,"13eb09d",40,2
"4238",0,0,371,3,3,2,"13eb09d",41,2
"4336",1,1,288,5,5,2,"13eb09d",42,2
"4436",0,0,539,2,2,2,"13eb09d",43,2
"4536",0,1,362,3,1,2,"13eb09d",44,2
"4636",1,1,612,3,3,2,"13eb09d",45,2
"4736",1,1,530,2,2,2,"13eb09d",46,2
"4836",1,1,333,5,5,2,"13eb09d",47,2
"4936",1,1,972,6,6,2,"13eb09d",48,2
"5036",1,1,412,4,4,2,"13eb09d",49,2
"5151",1,1,350,1,1,2,"13eb09d",50,2
"5238",0,1,479,1,5,2,"13eb09d",51,2
"5336",0,1,490,4,1,2,"13eb09d",52,2
"5436",1,0,633,1,2,2,"13eb09d",53,2
"5535",0,1,1258,6,1,2,"13eb09d",54,2
"5635",0,1,559,3,1,2,"13eb09d",55,2
