"","keys","accuracy","rt","Fimg","Simg","feature_index","subID","trialNum","run"
"2",1,0,609,1,4,1,"1fb6b59",1,1
"3",0,1,416,5,1,1,"1fb6b59",2,1
"4",0,0,355,5,5,1,"1fb6b59",3,1
"5",1,1,378,2,2,1,"1fb6b59",4,1
"6",0,0,345,4,4,1,"1fb6b59",5,1
"7",1,0,388,1,3,1,"1fb6b59",6,1
"8",0,0,421,6,6,1,"1fb6b59",7,1
"9",1,0,324,1,2,1,"1fb6b59",8,1
"10",1,1,336,1,1,1,"1fb6b59",9,1
"11",0,1,373,1,6,1,"1fb6b59",10,1
"12",1,1,396,3,3,1,"1fb6b59",11,1
"13",1,0,292,1,3,1,"1fb6b59",12,1
"14",1,1,343,6,6,1,"1fb6b59",13,1
"15",1,1,362,2,2,1,"1fb6b59",14,1
"16",1,1,298,5,5,1,"1fb6b59",15,1
"17",1,1,390,1,1,1,"1fb6b59",16,1
"18",1,0,364,1,6,1,"1fb6b59",17,1
"19",1,1,479,4,4,1,"1fb6b59",18,1
"20",0,1,313,1,5,1,"1fb6b59",19,1
"21",1,1,415,3,3,1,"1fb6b59",20,1
"22",1,0,356,1,4,1,"1fb6b59",21,1
"23",0,1,459,2,1,1,"1fb6b59",22,1
"24",0,0,369,3,3,1,"1fb6b59",23,1
"25",1,1,405,6,6,1,"1fb6b59",24,1
"26",1,0,331,1,2,1,"1fb6b59",25,1
"27",0,0,343,4,4,1,"1fb6b59",26,1
"28",0,1,354,6,1,1,"1fb6b59",27,1
"29",0,1,393,4,1,1,"1fb6b59",28,1
"30",1,0,1865,3,1,1,"1fb6b59",29,1
"31",1,1,283,5,5,1,"1fb6b59",30,1
"32",1,1,346,1,1,1,"1fb6b59",31,1
"33",0,1,354,1,5,1,"1fb6b59",32,1
"34",1,1,409,2,2,1,"1fb6b59",33,1
"35",0,1,382,4,1,1,"1fb6b59",34,1
"36",0,1,411,5,1,1,"1fb6b59",35,1
"37",0,1,357,6,1,1,"1fb6b59",36,1
"38",1,1,427,3,3,1,"1fb6b59",37,1
"39",1,1,396,1,1,1,"1fb6b59",38,1
"40",1,0,338,1,2,1,"1fb6b59",39,1
"41",1,1,296,2,2,1,"1fb6b59",40,1
"42",0,1,318,1,3,1,"1fb6b59",41,1
"43",1,1,362,6,6,1,"1fb6b59",42,1
"44",1,1,321,5,5,1,"1fb6b59",43,1
"45",1,1,473,4,4,1,"1fb6b59",44,1
"46",1,1,407,1,1,1,"1fb6b59",45,1
"47",1,1,395,2,2,1,"1fb6b59",46,1
"48",1,1,561,4,4,1,"1fb6b59",47,1
"49",0,1,339,1,3,1,"1fb6b59",48,1
"50",1,1,315,5,5,1,"1fb6b59",49,1
"51",1,1,340,3,3,1,"1fb6b59",50,1
"52",1,0,361,2,1,1,"1fb6b59",51,1
"53",1,1,293,6,6,1,"1fb6b59",52,1
"54",0,1,396,1,6,1,"1fb6b59",53,1
"55",0,1,356,1,4,1,"1fb6b59",54,1
"56",0,1,385,5,1,1,"1fb6b59",55,1
"57",1,1,951,4,4,1,"1fb6b59",56,1
"58",1,1,348,2,2,1,"1fb6b59",57,1
"59",0,1,378,1,4,1,"1fb6b59",58,1
"60",1,1,225,1,1,1,"1fb6b59",59,1
"61",0,1,392,1,6,1,"1fb6b59",60,1
"62",0,0,301,6,6,1,"1fb6b59",61,1
"63",1,1,404,5,5,1,"1fb6b59",62,1
"64",1,1,1703,3,3,1,"1fb6b59",63,1
"65",0,1,371,1,3,1,"1fb6b59",64,1
"66",0,1,394,1,5,1,"1fb6b59",65,1
"67",1,0,397,2,1,1,"1fb6b59",66,1
"68",0,1,323,5,1,1,"1fb6b59",67,1
"69",0,1,365,2,1,1,"1fb6b59",68,1
"70",0,1,261,1,4,1,"1fb6b59",69,1
"71",0,0,338,3,3,1,"1fb6b59",70,1
"72",1,1,308,4,4,1,"1fb6b59",71,1
"73",1,1,355,2,2,1,"1fb6b59",72,1
"74",1,1,386,1,1,1,"1fb6b59",73,1
"75",1,1,424,6,6,1,"1fb6b59",74,1
"76",0,1,209,3,1,1,"1fb6b59",75,1
"77",1,1,389,5,5,1,"1fb6b59",76,1
"78",0,1,475,1,6,1,"1fb6b59",77,1
"210",1,1,384,4,4,3,"154f8af",1,1
"310",0,0,448,1,1,3,"154f8af",2,1
"410",0,1,327,3,1,3,"154f8af",3,1
"510",1,1,364,6,6,3,"154f8af",4,1
"610",0,0,325,3,3,3,"154f8af",5,1
"79",1,0,250,5,1,3,"154f8af",6,1
"81",0,0,275,5,5,3,"154f8af",7,1
"91",1,0,250,1,2,3,"154f8af",8,1
"101",0,1,136,1,4,3,"154f8af",9,1
"111",0,1,90,6,1,3,"154f8af",10,1
"121",0,0,202,2,2,3,"154f8af",11,1
"131",1,1,157,6,6,3,"154f8af",12,1
"141",0,1,243,1,5,3,"154f8af",13,1
"151",0,0,368,3,3,3,"154f8af",14,1
"161",1,1,289,5,5,3,"154f8af",15,1
"171",1,1,58,2,2,3,"154f8af",16,1
"181",0,1,193,1,4,3,"154f8af",17,1
"191",0,1,229,1,6,3,"154f8af",18,1
"201",1,0,379,3,1,3,"154f8af",19,1
"211",1,1,371,1,1,3,"154f8af",20,1
"221",1,1,247,4,4,3,"154f8af",21,1
"231",1,0,354,1,2,3,"154f8af",22,1
"241",0,1,183,1,6,3,"154f8af",23,1
"251",1,0,241,1,3,3,"154f8af",24,1
"261",0,1,237,4,1,3,"154f8af",25,1
"271",0,1,155,2,1,3,"154f8af",26,1
"281",1,1,144,5,5,3,"154f8af",27,1
"291",1,1,41,1,1,3,"154f8af",28,1
"301",1,1,84,3,3,3,"154f8af",29,1
"311",1,1,212,2,2,3,"154f8af",30,1
"321",1,1,369,6,6,3,"154f8af",31,1
"331",0,0,205,4,4,3,"154f8af",32,1
"341",0,1,211,1,5,3,"154f8af",33,1
"351",1,1,422,2,2,3,"154f8af",34,1
"361",1,1,416,5,5,3,"154f8af",35,1
"371",0,0,541,3,3,3,"154f8af",36,1
"381",0,1,56,1,4,3,"154f8af",37,1
"391",1,1,295,4,4,3,"154f8af",38,1
"401",1,0,488,1,2,3,"154f8af",39,1
"411",0,1,40,6,1,3,"154f8af",40,1
"421",1,1,107,1,1,3,"154f8af",41,1
"431",1,1,369,6,6,3,"154f8af",42,1
"441",0,1,585,5,1,3,"154f8af",43,1
"451",1,0,13,1,3,3,"154f8af",44,1
"461",1,1,258,3,3,3,"154f8af",45,1
"471",0,1,447,1,5,3,"154f8af",46,1
"481",0,1,213,4,1,3,"154f8af",47,1
"491",1,1,57,2,2,3,"154f8af",48,1
"501",1,1,320,5,5,3,"154f8af",49,1
"511",0,1,298,6,1,3,"154f8af",50,1
"521",1,0,513,2,1,3,"154f8af",51,1
"531",0,0,384,4,4,3,"154f8af",52,1
"541",-1,-1,0,1,1,3,"154f8af",53,1
"551",0,1,703,3,1,3,"154f8af",54,1
"561",1,1,216,6,6,3,"154f8af",55,1
"571",1,1,356,3,3,3,"154f8af",56,1
"581",1,0,1470,1,2,3,"154f8af",57,1
"591",0,0,327,6,6,3,"154f8af",58,1
"601",0,1,325,1,6,3,"154f8af",59,1
"611",1,0,259,4,1,3,"154f8af",60,1
"621",1,1,223,2,2,3,"154f8af",61,1
"631",0,1,108,5,1,3,"154f8af",62,1
"641",0,1,7,3,1,3,"154f8af",63,1
"651",1,1,97,5,5,3,"154f8af",64,1
"661",1,1,91,1,1,3,"154f8af",65,1
"671",1,1,281,4,4,3,"154f8af",66,1
"681",0,1,129,1,6,3,"154f8af",67,1
"691",1,1,193,6,6,3,"154f8af",68,1
"701",1,0,172,1,2,3,"154f8af",69,1
"711",1,1,115,3,3,3,"154f8af",70,1
"721",1,1,231,4,4,3,"154f8af",71,1
"731",0,1,275,1,4,3,"154f8af",72,1
"741",1,1,272,2,2,3,"154f8af",73,1
"751",0,1,615,5,1,3,"154f8af",74,1
"761",1,1,350,1,1,3,"154f8af",75,1
"771",1,1,101,5,5,3,"154f8af",76,1
"781",0,1,150,3,1,3,"154f8af",77,1
"212",1,0,655,1,3,3,"1b9533d",1,1
"312",1,1,524,1,1,3,"1b9533d",2,1
"412",1,0,496,6,1,3,"1b9533d",3,1
"512",0,0,368,6,6,3,"1b9533d",4,1
"612",0,0,462,2,2,3,"1b9533d",5,1
"710",1,0,452,2,1,3,"1b9533d",6,1
"82",1,0,319,4,1,3,"1b9533d",7,1
"92",1,1,83,5,5,3,"1b9533d",8,1
"102",1,0,950,5,1,3,"1b9533d",9,1
"112",1,1,1038,3,3,3,"1b9533d",10,1
"122",0,0,458,4,4,3,"1b9533d",11,1
"132",1,0,272,1,6,3,"1b9533d",12,1
"142",1,1,596,3,3,3,"1b9533d",13,1
"152",1,0,311,3,1,3,"1b9533d",14,1
"162",1,1,400,5,5,3,"1b9533d",15,1
"172",1,1,535,2,2,3,"1b9533d",16,1
"182",1,0,293,2,1,3,"1b9533d",17,1
"192",1,1,518,1,1,3,"1b9533d",18,1
"202",1,0,576,1,4,3,"1b9533d",19,1
"213",0,0,335,4,4,3,"1b9533d",20,1
"222",1,0,418,1,5,3,"1b9533d",21,1
"232",1,1,208,6,6,3,"1b9533d",22,1
"242",1,1,438,2,2,3,"1b9533d",23,1
"252",1,0,586,1,2,3,"1b9533d",24,1
"262",0,1,661,5,1,3,"1b9533d",25,1
"272",1,1,78,6,6,3,"1b9533d",26,1
"282",1,0,526,1,3,3,"1b9533d",27,1
"292",0,1,619,1,6,3,"1b9533d",28,1
"302",1,1,844,3,3,3,"1b9533d",29,1
"313",0,0,538,4,4,3,"1b9533d",30,1
"322",0,1,378,4,1,3,"1b9533d",31,1
"332",0,0,595,1,1,3,"1b9533d",32,1
"342",1,1,393,5,5,3,"1b9533d",33,1
"352",0,1,368,1,3,3,"1b9533d",34,1
"362",0,1,167,1,2,3,"1b9533d",35,1
"372",1,0,472,1,4,3,"1b9533d",36,1
"382",1,0,479,1,6,3,"1b9533d",37,1
"392",1,1,603,2,2,3,"1b9533d",38,1
"402",1,1,484,3,3,3,"1b9533d",39,1
"413",1,1,1243,1,1,3,"1b9533d",40,1
"422",0,1,518,1,5,3,"1b9533d",41,1
"432",0,0,642,6,6,3,"1b9533d",42,1
"442",1,1,553,4,4,3,"1b9533d",43,1
"452",1,1,313,5,5,3,"1b9533d",44,1
"462",1,1,479,2,2,3,"1b9533d",45,1
"472",0,0,331,5,5,3,"1b9533d",46,1
"482",1,1,484,3,3,3,"1b9533d",47,1
"492",1,0,288,4,1,3,"1b9533d",48,1
"502",1,1,957,6,6,3,"1b9533d",49,1
"513",1,0,464,3,1,3,"1b9533d",50,1
"522",1,0,347,5,1,3,"1b9533d",51,1
"532",1,1,486,4,4,3,"1b9533d",52,1
"542",1,0,525,6,1,3,"1b9533d",53,1
"552",0,1,435,1,2,3,"1b9533d",54,1
"562",0,0,299,1,1,3,"1b9533d",55,1
"572",1,1,289,3,3,3,"1b9533d",56,1
"582",1,0,525,2,1,3,"1b9533d",57,1
"592",0,0,526,4,4,3,"1b9533d",58,1
"602",1,1,314,5,5,3,"1b9533d",59,1
"613",1,1,449,6,6,3,"1b9533d",60,1
"622",1,0,263,1,4,3,"1b9533d",61,1
"632",-1,-1,0,1,5,3,"1b9533d",62,1
"642",1,0,411,3,1,3,"1b9533d",63,1
"652",0,0,349,1,1,3,"1b9533d",64,1
"662",1,0,421,1,6,3,"1b9533d",65,1
"672",1,1,352,2,2,3,"1b9533d",66,1
"682",1,0,418,2,1,3,"1b9533d",67,1
"692",1,1,742,1,1,3,"1b9533d",68,1
"702",1,1,381,6,6,3,"1b9533d",69,1
"712",0,1,362,1,4,3,"1b9533d",70,1
"722",1,0,309,1,3,3,"1b9533d",71,1
"732",1,1,878,3,3,3,"1b9533d",72,1
"742",1,0,332,1,5,3,"1b9533d",73,1
"752",1,1,322,5,5,3,"1b9533d",74,1
"762",1,1,570,2,2,3,"1b9533d",75,1
"772",1,1,399,4,4,3,"1b9533d",76,1
"782",1,0,808,1,6,3,"1b9533d",77,1
"214",1,1,749,2,2,2,"1426285",1,1
"314",1,0,662,6,1,2,"1426285",2,1
"414",1,1,311,1,1,2,"1426285",3,1
"514",1,1,550,6,6,2,"1426285",4,1
"614",1,0,250,1,2,2,"1426285",5,1
"713",0,1,250,1,4,2,"1426285",6,1
"83",1,1,250,5,5,2,"1426285",7,1
"93",0,1,402,5,1,2,"1426285",8,1
"103",1,1,242,4,4,2,"1426285",9,1
"113",0,1,327,3,1,2,"1426285",10,1
"123",1,1,249,3,3,2,"1426285",11,1
"133",1,1,208,6,6,2,"1426285",12,1
"143",1,1,207,4,4,2,"1426285",13,1
"153",1,1,195,2,2,2,"1426285",14,1
"163",0,1,223,4,1,2,"1426285",15,1
"173",0,1,319,1,6,2,"1426285",16,1
"183",1,1,339,1,1,2,"1426285",17,1
"193",1,1,290,3,3,2,"1426285",18,1
"203",0,1,243,3,1,2,"1426285",19,1
"215",0,1,250,5,1,2,"1426285",20,1
"223",0,1,171,1,2,2,"1426285",21,1
"233",1,1,228,5,5,2,"1426285",22,1
"243",1,1,185,4,4,2,"1426285",23,1
"253",0,1,339,1,5,2,"1426285",24,1
"263",0,1,262,1,4,2,"1426285",25,1
"273",0,1,225,1,2,2,"1426285",26,1
"283",1,1,192,3,3,2,"1426285",27,1
"293",1,1,201,5,5,2,"1426285",28,1
"303",0,1,399,3,1,2,"1426285",29,1
"315",1,1,221,1,1,2,"1426285",30,1
"323",1,1,201,2,2,2,"1426285",31,1
"333",0,1,426,6,1,2,"1426285",32,1
"343",1,1,290,6,6,2,"1426285",33,1
"353",1,1,173,3,3,2,"1426285",34,1
"363",0,1,172,3,1,2,"1426285",35,1
"373",0,1,246,1,5,2,"1426285",36,1
"383",1,1,194,1,1,2,"1426285",37,1
"393",0,1,237,2,1,2,"1426285",38,1
"403",0,1,332,6,1,2,"1426285",39,1
"415",1,1,175,2,2,2,"1426285",40,1
"423",1,1,187,4,4,2,"1426285",41,1
"433",0,1,397,4,1,2,"1426285",42,1
"443",1,1,237,5,5,2,"1426285",43,1
"453",1,1,531,6,6,2,"1426285",44,1
"463",1,1,719,2,2,2,"1426285",45,1
"473",0,1,257,1,5,2,"1426285",46,1
"483",0,1,342,1,2,2,"1426285",47,1
"493",1,1,547,6,6,2,"1426285",48,1
"503",1,1,856,3,3,2,"1426285",49,1
"515",1,1,341,1,1,2,"1426285",50,1
"523",1,1,114,4,4,2,"1426285",51,1
"533",0,1,620,6,1,2,"1426285",52,1
"543",0,1,254,1,4,2,"1426285",53,1
"553",0,1,247,1,3,2,"1426285",54,1
"563",1,1,221,5,5,2,"1426285",55,1
"573",0,1,301,1,4,2,"1426285",56,1
"583",0,1,291,2,1,2,"1426285",57,1
"593",0,1,259,6,1,2,"1426285",58,1
"603",1,1,221,1,1,2,"1426285",59,1
"615",0,1,208,3,1,2,"1426285",60,1
"623",0,0,214,6,6,2,"1426285",61,1
"633",1,1,100,5,5,2,"1426285",62,1
"643",1,1,432,3,3,2,"1426285",63,1
"653",1,1,425,2,2,2,"1426285",64,1
"663",1,1,167,4,4,2,"1426285",65,1
"673",0,1,238,1,5,2,"1426285",66,1
"683",0,1,167,1,6,2,"1426285",67,1
"693",1,1,168,6,6,2,"1426285",68,1
"703",0,1,180,3,1,2,"1426285",69,1
"714",0,1,47,1,5,2,"1426285",70,1
"723",0,1,310,2,1,2,"1426285",71,1
"733",1,1,151,2,2,2,"1426285",72,1
"743",0,1,498,1,4,2,"1426285",73,1
"753",1,1,8,5,5,2,"1426285",74,1
"763",1,1,222,3,3,2,"1426285",75,1
"773",1,1,204,4,4,2,"1426285",76,1
"783",1,1,239,1,1,2,"1426285",77,1
"216",1,1,1329,4,4,3,"11c51fc",1,1
"316",1,1,326,3,3,3,"11c51fc",2,1
"416",1,0,326,3,1,3,"11c51fc",3,1
"516",1,0,295,5,1,3,"11c51fc",4,1
"616",0,1,217,1,2,3,"11c51fc",5,1
"715",0,0,482,1,1,3,"11c51fc",6,1
"84",0,1,50,1,4,3,"11c51fc",7,1
"94",1,1,348,5,5,3,"11c51fc",8,1
"104",1,0,789,6,1,3,"11c51fc",9,1
"114",1,1,111,2,2,3,"11c51fc",10,1
"124",0,0,1025,6,6,3,"11c51fc",11,1
"134",1,1,90,5,5,3,"11c51fc",12,1
"144",0,1,273,1,6,3,"11c51fc",13,1
"154",1,0,1067,1,2,3,"11c51fc",14,1
"164",1,1,216,3,3,3,"11c51fc",15,1
"174",1,1,376,2,2,3,"11c51fc",16,1
"184",1,1,320,6,6,3,"11c51fc",17,1
"194",0,1,540,1,4,3,"11c51fc",18,1
"204",1,1,646,1,1,3,"11c51fc",19,1
"217",0,1,286,3,1,3,"11c51fc",20,1
"224",0,0,190,4,4,3,"11c51fc",21,1
"234",1,0,177,1,5,3,"11c51fc",22,1
"244",1,1,809,5,5,3,"11c51fc",23,1
"254",1,0,162,1,3,3,"11c51fc",24,1
"264",1,0,1895,1,2,3,"11c51fc",25,1
"274",1,0,1064,4,1,3,"11c51fc",26,1
"284",0,0,322,3,3,3,"11c51fc",27,1
"294",1,1,378,4,4,3,"11c51fc",28,1
"304",0,1,614,6,1,3,"11c51fc",29,1
"317",0,0,10,1,1,3,"11c51fc",30,1
"324",1,1,130,2,2,3,"11c51fc",31,1
"334",1,1,482,6,6,3,"11c51fc",32,1
"344",0,1,159,5,1,3,"11c51fc",33,1
"354",1,1,345,6,6,3,"11c51fc",34,1
"364",0,1,265,3,1,3,"11c51fc",35,1
"374",1,1,434,3,3,3,"11c51fc",36,1
"384",0,1,308,1,6,3,"11c51fc",37,1
"394",1,1,140,5,5,3,"11c51fc",38,1
"404",1,1,1405,2,2,3,"11c51fc",39,1
"417",1,0,1551,1,5,3,"11c51fc",40,1
"424",1,1,480,1,1,3,"11c51fc",41,1
"434",1,1,1676,4,4,3,"11c51fc",42,1
"444",1,0,766,2,1,3,"11c51fc",43,1
"454",0,1,536,1,4,3,"11c51fc",44,1
"464",1,1,496,6,6,3,"11c51fc",45,1
"474",1,1,610,5,5,3,"11c51fc",46,1
"484",1,0,121,1,5,3,"11c51fc",47,1
"494",1,0,147,1,6,3,"11c51fc",48,1
"504",1,0,147,2,1,3,"11c51fc",49,1
"517",1,1,213,4,4,3,"11c51fc",50,1
"524",1,1,118,1,1,3,"11c51fc",51,1
"534",1,0,1522,1,3,3,"11c51fc",52,1
"544",1,1,270,3,3,3,"11c51fc",53,1
"554",1,0,117,4,1,3,"11c51fc",54,1
"564",1,1,214,2,2,3,"11c51fc",55,1
"574",1,1,70,4,4,3,"11c51fc",56,1
"584",0,1,39,4,1,3,"11c51fc",57,1
"594",0,1,406,1,6,3,"11c51fc",58,1
"604",1,1,307,5,5,3,"11c51fc",59,1
"617",1,0,645,2,1,3,"11c51fc",60,1
"624",1,1,645,6,6,3,"11c51fc",61,1
"634",0,1,214,3,1,3,"11c51fc",62,1
"644",1,1,605,1,1,3,"11c51fc",63,1
"654",1,1,341,2,2,3,"11c51fc",64,1
"664",1,1,173,3,3,3,"11c51fc",65,1
"674",0,1,183,1,5,3,"11c51fc",66,1
"684",1,1,144,1,1,3,"11c51fc",67,1
"694",1,1,417,6,6,3,"11c51fc",68,1
"704",1,0,298,5,1,3,"11c51fc",69,1
"716",0,1,510,4,1,3,"11c51fc",70,1
"724",1,1,351,2,2,3,"11c51fc",71,1
"734",1,1,334,5,5,3,"11c51fc",72,1
"744",1,0,544,1,2,3,"11c51fc",73,1
"754",1,0,97,1,3,3,"11c51fc",74,1
"764",0,1,209,6,1,3,"11c51fc",75,1
"774",1,1,658,4,4,3,"11c51fc",76,1
"784",1,1,562,3,3,3,"11c51fc",77,1
"218",1,1,813,6,6,2,"1a559eb",1,1
"318",1,1,727,1,1,2,"1a559eb",2,1
"418",1,0,659,1,4,2,"1a559eb",3,1
"518",1,0,1531,2,1,2,"1a559eb",4,1
"618",-1,-1,0,3,3,2,"1a559eb",5,1
"717",1,1,1141,5,5,2,"1a559eb",6,1
"85",-1,-1,0,1,5,2,"1a559eb",7,1
"95",1,0,444,6,1,2,"1a559eb",8,1
"105",0,1,435,1,3,2,"1a559eb",9,1
"115",1,1,327,2,2,2,"1a559eb",10,1
"125",1,1,673,4,4,2,"1a559eb",11,1
"135",1,0,518,6,1,2,"1a559eb",12,1
"145",1,0,391,2,1,2,"1a559eb",13,1
"155",1,1,513,3,3,2,"1a559eb",14,1
"165",0,1,1557,4,1,2,"1a559eb",15,1
"175",1,1,398,6,6,2,"1a559eb",16,1
"185",1,1,502,2,2,2,"1a559eb",17,1
"195",1,0,558,1,3,2,"1a559eb",18,1
"205",1,1,414,1,1,2,"1a559eb",19,1
"219",1,1,385,4,4,2,"1a559eb",20,1
"225",1,0,477,5,1,2,"1a559eb",21,1
"235",1,1,1645,5,5,2,"1a559eb",22,1
"245",1,1,393,6,6,2,"1a559eb",23,1
"255",1,0,406,1,3,2,"1a559eb",24,1
"265",1,0,1225,1,2,2,"1a559eb",25,1
"275",0,1,583,6,1,2,"1a559eb",26,1
"285",0,1,1295,1,5,2,"1a559eb",27,1
"295",0,0,734,3,3,2,"1a559eb",28,1
"305",1,1,707,2,2,2,"1a559eb",29,1
"319",1,1,691,1,1,2,"1a559eb",30,1
"325",1,1,836,4,4,2,"1a559eb",31,1
"335",1,1,879,5,5,2,"1a559eb",32,1
"345",1,0,915,1,4,2,"1a559eb",33,1
"355",0,1,375,6,1,2,"1a559eb",34,1
"365",1,1,740,5,5,2,"1a559eb",35,1
"375",1,0,921,1,2,2,"1a559eb",36,1
"385",1,1,968,2,2,2,"1a559eb",37,1
"395",1,1,1053,6,6,2,"1a559eb",38,1
"405",1,1,846,1,1,2,"1a559eb",39,1
"419",1,1,1099,4,4,2,"1a559eb",40,1
"425",1,1,790,3,3,2,"1a559eb",41,1
"435",0,1,476,1,4,2,"1a559eb",42,1
"445",0,1,487,5,1,2,"1a559eb",43,1
"455",1,0,420,1,3,2,"1a559eb",44,1
"465",1,1,634,4,4,2,"1a559eb",45,1
"475",0,1,720,4,1,2,"1a559eb",46,1
"485",0,1,449,3,1,2,"1a559eb",47,1
"495",0,1,861,5,1,2,"1a559eb",48,1
"505",1,1,628,2,2,2,"1a559eb",49,1
"519",1,1,959,5,5,2,"1a559eb",50,1
"525",0,1,576,6,1,2,"1a559eb",51,1
"535",1,1,984,1,1,2,"1a559eb",52,1
"545",1,1,566,3,3,2,"1a559eb",53,1
"555",1,0,566,2,1,2,"1a559eb",54,1
"565",1,1,544,6,6,2,"1a559eb",55,1
"575",0,1,576,4,1,2,"1a559eb",56,1
"585",0,1,530,1,5,2,"1a559eb",57,1
"595",0,0,1450,5,5,2,"1a559eb",58,1
"605",1,1,1122,6,6,2,"1a559eb",59,1
"619",1,1,1109,1,1,2,"1a559eb",60,1
"625",1,0,1158,2,1,2,"1a559eb",61,1
"635",1,1,591,3,3,2,"1a559eb",62,1
"645",1,1,622,2,2,2,"1a559eb",63,1
"655",0,1,423,1,6,2,"1a559eb",64,1
"665",1,1,651,4,4,2,"1a559eb",65,1
"675",0,1,459,3,1,2,"1a559eb",66,1
"685",0,1,681,6,1,2,"1a559eb",67,1
"695",1,1,529,5,5,2,"1a559eb",68,1
"705",0,1,926,1,4,2,"1a559eb",69,1
"718",0,1,437,3,1,2,"1a559eb",70,1
"725",0,1,836,1,5,2,"1a559eb",71,1
"735",1,1,701,6,6,2,"1a559eb",72,1
"745",1,1,736,4,4,2,"1a559eb",73,1
"755",1,1,468,1,1,2,"1a559eb",74,1
"765",1,1,609,3,3,2,"1a559eb",75,1
"775",1,1,501,2,2,2,"1a559eb",76,1
"785",1,0,512,2,1,2,"1a559eb",77,1
"220",1,1,566,3,3,1,"12b7ed6",1,1
"320",1,0,630,1,4,1,"12b7ed6",2,1
"420",0,0,493,2,2,1,"12b7ed6",3,1
"520",1,1,405,1,1,1,"12b7ed6",4,1
"620",1,0,514,1,3,1,"12b7ed6",5,1
"719",0,0,583,5,5,1,"12b7ed6",6,1
"86",0,1,530,1,2,1,"12b7ed6",7,1
"96",1,0,766,1,5,1,"12b7ed6",8,1
"106",0,1,552,1,6,1,"12b7ed6",9,1
"116",1,1,375,4,4,1,"12b7ed6",10,1
"126",1,1,936,6,6,1,"12b7ed6",11,1
"136",1,1,645,2,2,1,"12b7ed6",12,1
"146",0,1,357,1,2,1,"12b7ed6",13,1
"156",1,0,398,1,4,1,"12b7ed6",14,1
"166",1,0,485,3,1,1,"12b7ed6",15,1
"176",0,1,397,6,1,1,"12b7ed6",16,1
"186",1,1,353,3,3,1,"12b7ed6",17,1
"196",1,1,781,6,6,1,"12b7ed6",18,1
"206",1,1,395,1,1,1,"12b7ed6",19,1
"2110",1,0,424,1,5,1,"12b7ed6",20,1
"226",1,1,372,5,5,1,"12b7ed6",21,1
"236",0,0,266,4,4,1,"12b7ed6",22,1
"246",1,1,315,5,5,1,"12b7ed6",23,1
"256",1,1,429,6,6,1,"12b7ed6",24,1
"266",1,0,1889,6,1,1,"12b7ed6",25,1
"276",0,1,330,1,2,1,"12b7ed6",26,1
"286",1,1,435,2,2,1,"12b7ed6",27,1
"296",1,1,400,1,1,1,"12b7ed6",28,1
"306",1,0,413,3,1,1,"12b7ed6",29,1
"3110",0,0,865,3,3,1,"12b7ed6",30,1
"326",1,0,645,1,4,1,"12b7ed6",31,1
"336",1,0,373,5,1,1,"12b7ed6",32,1
"346",1,1,361,4,4,1,"12b7ed6",33,1
"356",0,0,436,2,2,1,"12b7ed6",34,1
"366",0,0,343,4,4,1,"12b7ed6",35,1
"376",0,1,317,3,1,1,"12b7ed6",36,1
"386",1,1,437,3,3,1,"12b7ed6",37,1
"396",0,0,491,5,5,1,"12b7ed6",38,1
"406",1,0,336,2,1,1,"12b7ed6",39,1
"4110",0,1,450,5,1,1,"12b7ed6",40,1
"426",0,1,440,4,1,1,"12b7ed6",41,1
"436",1,1,450,1,1,1,"12b7ed6",42,1
"446",1,1,545,6,6,1,"12b7ed6",43,1
"456",0,1,477,1,6,1,"12b7ed6",44,1
"466",0,1,385,1,5,1,"12b7ed6",45,1
"476",1,1,478,4,4,1,"12b7ed6",46,1
"486",0,1,1141,1,3,1,"12b7ed6",47,1
"496",1,1,367,3,3,1,"12b7ed6",48,1
"506",1,1,287,6,6,1,"12b7ed6",49,1
"5110",0,1,310,1,4,1,"12b7ed6",50,1
"526",1,1,351,5,5,1,"12b7ed6",51,1
"536",1,1,422,1,1,1,"12b7ed6",52,1
"546",1,1,403,2,2,1,"12b7ed6",53,1
"556",0,1,551,1,6,1,"12b7ed6",54,1
"566",0,1,536,1,2,1,"12b7ed6",55,1
"576",1,1,352,1,1,1,"12b7ed6",56,1
"586",0,1,367,1,6,1,"12b7ed6",57,1
"596",1,1,385,3,3,1,"12b7ed6",58,1
"606",0,1,297,1,3,1,"12b7ed6",59,1
"6110",0,1,514,1,4,1,"12b7ed6",60,1
"626",1,1,508,4,4,1,"12b7ed6",61,1
"636",1,1,319,6,6,1,"12b7ed6",62,1
"646",1,0,359,1,2,1,"12b7ed6",63,1
"656",1,1,1211,5,5,1,"12b7ed6",64,1
"666",0,1,326,1,5,1,"12b7ed6",65,1
"676",1,1,357,2,2,1,"12b7ed6",66,1
"686",1,1,410,2,2,1,"12b7ed6",67,1
"696",1,1,347,5,5,1,"12b7ed6",68,1
"706",0,1,304,1,4,1,"12b7ed6",69,1
"7110",1,1,385,6,6,1,"12b7ed6",70,1
"726",1,1,302,1,1,1,"12b7ed6",71,1
"736",0,1,307,2,1,1,"12b7ed6",72,1
"746",0,1,313,5,1,1,"12b7ed6",73,1
"756",1,1,288,4,4,1,"12b7ed6",74,1
"766",1,1,392,3,3,1,"12b7ed6",75,1
"776",0,1,466,3,1,1,"12b7ed6",76,1
"786",0,1,454,6,1,1,"12b7ed6",77,1
"227",-1,-1,0,6,6,3,"5811e8d",1,1
"327",1,1,847,5,5,3,"5811e8d",2,1
"427",1,1,345,2,2,3,"5811e8d",3,1
"527",1,0,324,1,5,3,"5811e8d",4,1
"627",0,1,425,3,1,3,"5811e8d",5,1
"720",1,1,298,4,4,3,"5811e8d",6,1
"87",1,0,325,1,2,3,"5811e8d",7,1
"97",1,0,330,1,6,3,"5811e8d",8,1
"107",1,1,414,3,3,3,"5811e8d",9,1
"117",0,1,364,4,1,3,"5811e8d",10,1
"127",1,1,528,1,1,3,"5811e8d",11,1
"137",1,0,352,3,1,3,"5811e8d",12,1
"147",0,0,359,4,4,3,"5811e8d",13,1
"157",0,1,383,1,4,3,"5811e8d",14,1
"167",1,0,336,1,5,3,"5811e8d",15,1
"177",1,0,302,2,1,3,"5811e8d",16,1
"187",0,0,447,3,3,3,"5811e8d",17,1
"197",1,1,300,2,2,3,"5811e8d",18,1
"207",0,0,1088,1,1,3,"5811e8d",19,1
"2111",1,1,441,6,6,3,"5811e8d",20,1
"228",0,1,438,1,6,3,"5811e8d",21,1
"237",0,0,309,5,5,3,"5811e8d",22,1
"247",1,1,309,2,2,3,"5811e8d",23,1
"257",0,1,321,4,1,3,"5811e8d",24,1
"267",1,1,480,3,3,3,"5811e8d",25,1
"277",0,0,359,5,5,3,"5811e8d",26,1
"287",0,1,633,1,5,3,"5811e8d",27,1
"297",1,0,315,1,2,3,"5811e8d",28,1
"307",1,1,417,4,4,3,"5811e8d",29,1
"3111",1,1,351,1,1,3,"5811e8d",30,1
"328",0,1,357,1,6,3,"5811e8d",31,1
"337",1,0,557,1,3,3,"5811e8d",32,1
"347",0,0,301,6,6,3,"5811e8d",33,1
"357",0,1,304,1,2,3,"5811e8d",34,1
"367",0,0,355,4,4,3,"5811e8d",35,1
"377",1,0,310,5,1,3,"5811e8d",36,1
"387",1,0,358,4,1,3,"5811e8d",37,1
"397",1,0,372,1,3,3,"5811e8d",38,1
"407",1,0,427,6,1,3,"5811e8d",39,1
"4111",1,1,342,2,2,3,"5811e8d",40,1
"428",1,1,236,6,6,3,"5811e8d",41,1
"437",1,1,394,1,1,3,"5811e8d",42,1
"447",1,1,383,5,5,3,"5811e8d",43,1
"457",0,0,294,3,3,3,"5811e8d",44,1
"467",0,1,280,1,4,3,"5811e8d",45,1
"477",1,1,348,6,6,3,"5811e8d",46,1
"487",1,1,348,3,3,3,"5811e8d",47,1
"497",0,0,407,5,5,3,"5811e8d",48,1
"507",1,1,228,4,4,3,"5811e8d",49,1
"5111",0,1,472,6,1,3,"5811e8d",50,1
"528",1,0,391,2,1,3,"5811e8d",51,1
"537",1,0,383,1,3,3,"5811e8d",52,1
"547",0,0,317,1,1,3,"5811e8d",53,1
"557",1,0,724,1,5,3,"5811e8d",54,1
"567",1,1,288,2,2,3,"5811e8d",55,1
"577",1,0,265,1,5,3,"5811e8d",56,1
"587",1,0,313,1,4,3,"5811e8d",57,1
"597",1,1,324,1,1,3,"5811e8d",58,1
"607",1,1,411,4,4,3,"5811e8d",59,1
"6111",1,1,291,6,6,3,"5811e8d",60,1
"628",0,0,267,2,2,3,"5811e8d",61,1
"637",1,1,331,5,5,3,"5811e8d",62,1
"647",1,0,372,6,1,3,"5811e8d",63,1
"657",0,1,313,1,3,3,"5811e8d",64,1
"667",1,0,294,2,1,3,"5811e8d",65,1
"677",1,1,302,3,3,3,"5811e8d",66,1
"687",1,1,286,3,3,3,"5811e8d",67,1
"697",0,1,387,6,1,3,"5811e8d",68,1
"707",1,1,352,2,2,3,"5811e8d",69,1
"7111",1,0,320,2,1,3,"5811e8d",70,1
"727",1,1,366,4,4,3,"5811e8d",71,1
"737",0,1,299,3,1,3,"5811e8d",72,1
"747",1,1,434,5,5,3,"5811e8d",73,1
"757",0,1,313,5,1,3,"5811e8d",74,1
"767",1,1,611,1,1,3,"5811e8d",75,1
"777",1,0,312,4,1,3,"5811e8d",76,1
"787",0,0,400,6,6,3,"5811e8d",77,1
"229",0,0,270,5,5,2,"1697f84",1,1
"329",1,1,280,4,4,2,"1697f84",2,1
"429",1,1,230,3,3,2,"1697f84",3,1
"529",1,0,221,4,1,2,"1697f84",4,1
"629",0,1,439,5,1,2,"1697f84",5,1
"728",0,0,770,6,6,2,"1697f84",6,1
"88",1,1,162,2,2,2,"1697f84",7,1
"98",0,1,76,1,2,2,"1697f84",8,1
"108",0,1,288,3,1,2,"1697f84",9,1
"118",0,1,178,1,6,2,"1697f84",10,1
"128",1,1,442,1,1,2,"1697f84",11,1
"138",0,0,1761,4,4,2,"1697f84",12,1
"148",1,1,183,2,2,2,"1697f84",13,1
"158",1,0,221,1,2,2,"1697f84",14,1
"168",0,1,277,1,6,2,"1697f84",15,1
"178",0,1,85,1,5,2,"1697f84",16,1
"188",1,1,288,6,6,2,"1697f84",17,1
"198",1,1,280,5,5,2,"1697f84",18,1
"208",0,0,370,1,1,2,"1697f84",19,1
"2112",1,1,574,3,3,2,"1697f84",20,1
"2210",1,0,902,4,1,2,"1697f84",21,1
"238",1,0,655,3,1,2,"1697f84",22,1
"248",1,0,309,1,2,2,"1697f84",23,1
"258",1,0,1329,6,1,2,"1697f84",24,1
"268",1,1,670,3,3,2,"1697f84",25,1
"278",1,0,316,3,1,2,"1697f84",26,1
"288",1,1,321,1,1,2,"1697f84",27,1
"298",1,1,250,6,6,2,"1697f84",28,1
"308",1,1,307,5,5,2,"1697f84",29,1
"3112",1,0,533,4,1,2,"1697f84",30,1
"3210",0,1,687,1,5,2,"1697f84",31,1
"338",1,1,555,2,2,2,"1697f84",32,1
"348",1,1,517,4,4,2,"1697f84",33,1
"358",0,1,334,4,1,2,"1697f84",34,1
"368",1,1,262,5,5,2,"1697f84",35,1
"378",1,1,111,2,2,2,"1697f84",36,1
"388",1,1,172,6,6,2,"1697f84",37,1
"398",0,1,408,5,1,2,"1697f84",38,1
"408",0,0,1284,1,1,2,"1697f84",39,1
"4112",0,1,195,2,1,2,"1697f84",40,1
"4210",0,1,912,1,6,2,"1697f84",41,1
"438",1,0,501,3,1,2,"1697f84",42,1
"448",1,1,567,4,4,2,"1697f84",43,1
"458",1,1,566,3,3,2,"1697f84",44,1
"468",1,0,607,1,6,2,"1697f84",45,1
"478",1,1,527,1,1,2,"1697f84",46,1
"488",1,1,624,4,4,2,"1697f84",47,1
"498",0,0,633,5,5,2,"1697f84",48,1
"508",0,1,495,1,4,2,"1697f84",49,1
"5112",1,1,1369,6,6,2,"1697f84",50,1
"5210",1,1,306,2,2,2,"1697f84",51,1
"538",-1,-1,0,1,2,2,"1697f84",52,1
"548",1,1,753,3,3,2,"1697f84",53,1
"558",0,1,483,3,1,2,"1697f84",54,1
"568",1,0,234,5,1,2,"1697f84",55,1
"578",0,0,812,6,6,2,"1697f84",56,1
"588",1,0,508,1,2,2,"1697f84",57,1
"598",1,1,75,2,2,2,"1697f84",58,1
"608",1,1,35,3,3,2,"1697f84",59,1
"6112",0,1,141,4,1,2,"1697f84",60,1
"6210",0,1,455,1,5,2,"1697f84",61,1
"638",1,1,62,1,1,2,"1697f84",62,1
"648",1,1,1432,5,5,2,"1697f84",63,1
"658",0,0,532,4,4,2,"1697f84",64,1
"668",1,0,176,1,3,2,"1697f84",65,1
"678",0,1,338,6,1,2,"1697f84",66,1
"688",0,1,560,1,4,2,"1697f84",67,1
"698",1,0,769,3,1,2,"1697f84",68,1
"708",1,1,545,6,6,2,"1697f84",69,1
"7112",0,0,720,2,2,2,"1697f84",70,1
"729",1,0,482,6,1,2,"1697f84",71,1
"738",1,1,482,5,5,2,"1697f84",72,1
"748",1,1,690,1,1,2,"1697f84",73,1
"758",0,0,274,3,3,2,"1697f84",74,1
"768",1,1,414,4,4,2,"1697f84",75,1
"778",1,0,556,2,1,2,"1697f84",76,1
"788",0,1,219,5,1,2,"1697f84",77,1
"230",1,1,747,5,5,2,"184d2a9",1,1
"330",1,0,642,1,5,2,"184d2a9",2,1
"430",0,1,518,2,1,2,"184d2a9",3,1
"530",0,1,491,1,4,2,"184d2a9",4,1
"630",1,1,350,3,3,2,"184d2a9",5,1
"730",1,1,452,6,6,2,"184d2a9",6,1
"89",0,1,418,6,1,2,"184d2a9",7,1
"99",1,1,1273,2,2,2,"184d2a9",8,1
"109",1,1,445,4,4,2,"184d2a9",9,1
"119",0,0,461,1,1,2,"184d2a9",10,1
"129",1,0,294,3,1,2,"184d2a9",11,1
"139",1,1,422,4,4,2,"184d2a9",12,1
"149",0,0,530,1,1,2,"184d2a9",13,1
"159",0,1,347,5,1,2,"184d2a9",14,1
"169",0,1,1280,1,2,2,"184d2a9",15,1
"179",1,1,349,5,5,2,"184d2a9",16,1
"189",1,0,295,1,6,2,"184d2a9",17,1
"199",1,1,562,2,2,2,"184d2a9",18,1
"209",0,0,378,6,6,2,"184d2a9",19,1
"2113",0,1,402,4,1,2,"184d2a9",20,1
"2211",0,1,1889,3,1,2,"184d2a9",21,1
"239",1,1,430,3,3,2,"184d2a9",22,1
"249",1,1,412,4,4,2,"184d2a9",23,1
"259",0,1,347,3,1,2,"184d2a9",24,1
"269",1,1,322,2,2,2,"184d2a9",25,1
"279",0,1,431,1,5,2,"184d2a9",26,1
"289",1,1,340,3,3,2,"184d2a9",27,1
"299",0,0,426,1,1,2,"184d2a9",28,1
"309",0,1,444,1,2,2,"184d2a9",29,1
"3113",1,1,466,5,5,2,"184d2a9",30,1
"3211",1,1,427,6,6,2,"184d2a9",31,1
"339",0,1,431,4,1,2,"184d2a9",32,1
"349",0,1,687,6,1,2,"184d2a9",33,1
"359",1,0,373,2,1,2,"184d2a9",34,1
"369",0,1,523,3,1,2,"184d2a9",35,1
"379",0,1,368,1,4,2,"184d2a9",36,1
"389",1,1,566,2,2,2,"184d2a9",37,1
"399",0,1,389,1,6,2,"184d2a9",38,1
"409",1,1,299,4,4,2,"184d2a9",39,1
"4113",0,0,406,5,5,2,"184d2a9",40,1
"4211",1,0,326,1,5,2,"184d2a9",41,1
"439",-1,-1,0,6,6,2,"184d2a9",42,1
"449",1,1,1247,1,1,2,"184d2a9",43,1
"459",-1,-1,0,3,3,2,"184d2a9",44,1
"469",1,1,1056,6,6,2,"184d2a9",45,1
"479",0,0,617,3,3,2,"184d2a9",46,1
"489",0,1,1583,5,1,2,"184d2a9",47,1
"499",0,1,1643,6,1,2,"184d2a9",48,1
"509",1,1,1546,1,1,2,"184d2a9",49,1
"5113",1,1,711,2,2,2,"184d2a9",50,1
"5211",0,0,661,5,5,2,"184d2a9",51,1
"539",1,0,454,1,2,2,"184d2a9",52,1
"549",1,1,409,4,4,2,"184d2a9",53,1
"559",1,0,974,1,3,2,"184d2a9",54,1
"569",1,0,406,4,1,2,"184d2a9",55,1
"579",1,0,1791,3,1,2,"184d2a9",56,1
"589",0,1,1496,4,1,2,"184d2a9",57,1
"599",0,0,302,1,1,2,"184d2a9",58,1
"609",1,0,538,6,1,2,"184d2a9",59,1
"6113",1,1,457,3,3,2,"184d2a9",60,1
"6211",1,1,583,2,2,2,"184d2a9",61,1
"639",0,1,1265,1,5,2,"184d2a9",62,1
"649",0,0,783,5,5,2,"184d2a9",63,1
"659",1,1,499,4,4,2,"184d2a9",64,1
"669",1,1,408,6,6,2,"184d2a9",65,1
"679",0,1,412,1,2,2,"184d2a9",66,1
"689",1,1,419,5,5,2,"184d2a9",67,1
"699",0,1,408,6,1,2,"184d2a9",68,1
"709",1,1,428,6,6,2,"184d2a9",69,1
"7113",1,1,358,1,1,2,"184d2a9",70,1
"7210",0,1,1424,1,2,2,"184d2a9",71,1
"739",1,1,1213,2,2,2,"184d2a9",72,1
"749",0,1,1043,5,1,2,"184d2a9",73,1
"759",0,1,314,1,4,2,"184d2a9",74,1
"769",1,1,505,4,4,2,"184d2a9",75,1
"779",1,1,907,3,3,2,"184d2a9",76,1
"789",1,0,1677,3,1,2,"184d2a9",77,1
"240",1,1,495,4,4,1,"103c98d",1,1
"340",1,0,318,1,4,1,"103c98d",2,1
"440",1,1,467,6,6,1,"103c98d",3,1
"540",1,1,259,5,5,1,"103c98d",4,1
"640",0,1,310,1,3,1,"103c98d",5,1
"740",1,1,416,2,2,1,"103c98d",6,1
"810",1,0,266,2,1,1,"103c98d",7,1
"910",1,1,326,3,3,1,"103c98d",8,1
"1010",0,1,320,5,1,1,"103c98d",9,1
"1110",0,1,588,6,1,1,"103c98d",10,1
"1210",1,1,367,1,1,1,"103c98d",11,1
"1310",1,1,376,6,6,1,"103c98d",12,1
"1410",0,1,406,1,5,1,"103c98d",13,1
"1510",1,1,389,4,4,1,"103c98d",14,1
"1610",1,1,326,2,2,1,"103c98d",15,1
"1710",0,1,512,6,1,1,"103c98d",16,1
"1810",1,1,476,5,5,1,"103c98d",17,1
"1910",0,1,338,1,3,1,"103c98d",18,1
"2010",0,1,365,4,1,1,"103c98d",19,1
"2114",1,0,309,1,2,1,"103c98d",20,1
"2212",1,1,319,3,3,1,"103c98d",21,1
"2310",1,1,709,1,1,1,"103c98d",22,1
"2410",1,1,419,2,2,1,"103c98d",23,1
"2510",1,1,350,4,4,1,"103c98d",24,1
"2610",0,1,420,4,1,1,"103c98d",25,1
"2710",0,1,478,1,3,1,"103c98d",26,1
"2810",1,1,371,1,1,1,"103c98d",27,1
"2910",1,1,300,3,3,1,"103c98d",28,1
"3010",1,0,584,2,1,1,"103c98d",29,1
"3114",1,0,1431,1,6,1,"103c98d",30,1
"3212",1,1,293,6,6,1,"103c98d",31,1
"3310",1,1,523,5,5,1,"103c98d",32,1
"3410",0,1,662,5,1,1,"103c98d",33,1
"3510",1,1,675,4,4,1,"103c98d",34,1
"3610",1,0,279,2,1,1,"103c98d",35,1
"3710",0,1,938,1,6,1,"103c98d",36,1
"3810",0,1,445,1,3,1,"103c98d",37,1
"3910",0,0,394,2,2,1,"103c98d",38,1
"4010",1,1,287,1,1,1,"103c98d",39,1
"4114",0,1,292,5,1,1,"103c98d",40,1
"4212",0,1,599,1,4,1,"103c98d",41,1
"4310",1,1,342,5,5,1,"103c98d",42,1
"4410",1,1,363,6,6,1,"103c98d",43,1
"4510",1,1,341,3,3,1,"103c98d",44,1
"4610",1,1,286,1,1,1,"103c98d",45,1
"4710",1,1,456,6,6,1,"103c98d",46,1
"4810",0,1,377,4,1,1,"103c98d",47,1
"4910",0,1,402,3,1,1,"103c98d",48,1
"5010",1,1,400,5,5,1,"103c98d",49,1
"5114",0,1,352,6,1,1,"103c98d",50,1
"5212",1,1,457,4,4,1,"103c98d",51,1
"5310",1,1,586,2,2,1,"103c98d",52,1
"5410",1,1,322,3,3,1,"103c98d",53,1
"5510",0,1,334,1,5,1,"103c98d",54,1
"5610",1,0,275,2,1,1,"103c98d",55,1
"5710",1,1,407,4,4,1,"103c98d",56,1
"5810",1,0,399,2,1,1,"103c98d",57,1
"5910",0,1,392,1,5,1,"103c98d",58,1
"6010",1,1,315,3,3,1,"103c98d",59,1
"6114",0,1,244,4,1,1,"103c98d",60,1
"6212",1,1,386,5,5,1,"103c98d",61,1
"6310",1,1,311,2,2,1,"103c98d",62,1
"6410",0,1,249,6,1,1,"103c98d",63,1
"6510",1,1,114,1,1,1,"103c98d",64,1
"6610",0,1,583,1,3,1,"103c98d",65,1
"6710",1,1,283,6,6,1,"103c98d",66,1
"6810",1,1,323,3,3,1,"103c98d",67,1
"6910",1,1,283,6,6,1,"103c98d",68,1
"7010",1,0,258,1,2,1,"103c98d",69,1
"7114",1,1,313,4,4,1,"103c98d",70,1
"7211",0,1,262,5,1,1,"103c98d",71,1
"7310",0,1,298,3,1,1,"103c98d",72,1
"7410",1,1,389,5,5,1,"103c98d",73,1
"7510",0,1,390,1,4,1,"103c98d",74,1
"7610",0,1,305,6,1,1,"103c98d",75,1
"7710",1,1,462,2,2,1,"103c98d",76,1
"7810",1,1,367,1,1,1,"103c98d",77,1
"250",-1,-1,0,2,2,3,"17ac431",1,1
"350",-1,NA,NA,NA,NA,NA,"17ac431",2,1
"260",0,1,428,4,1,3,"1df625b",1,1
"360",-1,0,1868,5,5,3,"1df625b",2,1
"450",0,0,518,1,1,3,"1df625b",3,1
"550",-1,0,422,6,6,3,"1df625b",4,1
"650",0,1,1375,6,1,3,"1df625b",5,1
"750",0,0,425,4,4,3,"1df625b",6,1
"811",0,1,1026,1,2,3,"1df625b",7,1
"911",0,1,883,5,1,3,"1df625b",8,1
"1011",0,1,1734,1,3,3,"1df625b",9,1
"1111",-1,0,7,3,3,3,"1df625b",10,1
"1211",0,0,120,2,2,3,"1df625b",11,1
"1311",-1,0,266,1,1,3,"1df625b",12,1
"1411",0,1,714,1,2,3,"1df625b",13,1
"1511",0,1,619,1,4,3,"1df625b",14,1
"1611",0,0,1565,2,2,3,"1df625b",15,1
"1711",0,1,199,1,3,3,"1df625b",16,1
"1811",0,1,1909,1,5,3,"1df625b",17,1
"1911",-1,0,346,1,6,3,"1df625b",18,1
"2011",0,0,730,5,5,3,"1df625b",19,1
"2115",0,0,651,4,4,3,"1df625b",20,1
"2213",-1,0,452,6,6,3,"1df625b",21,1
"2311",0,0,750,3,3,3,"1df625b",22,1
"2411",0,0,391,5,5,3,"1df625b",23,1
"2511",1,0,112,1,3,3,"1df625b",24,1
"2611",1,1,147,1,1,3,"1df625b",25,1
"2711",1,0,1206,1,6,3,"1df625b",26,1
"2811",1,1,239,3,3,3,"1df625b",27,1
"2911",1,0,928,4,1,3,"1df625b",28,1
"3011",1,1,609,4,4,3,"1df625b",29,1
"3115",-1,-1,0,5,1,3,"1df625b",30,1
"3213",1,1,300,6,6,3,"1df625b",31,1
"3311",1,1,962,2,2,3,"1df625b",32,1
"3411",1,0,435,1,2,3,"1df625b",33,1
"3511",0,1,133,1,5,3,"1df625b",34,1
"3611",1,1,327,3,3,3,"1df625b",35,1
"3711",1,1,329,2,2,3,"1df625b",36,1
"3811",1,1,146,1,1,3,"1df625b",37,1
"3911",1,1,343,4,4,3,"1df625b",38,1
"4011",1,1,272,5,5,3,"1df625b",39,1
"4115",1,0,309,3,1,3,"1df625b",40,1
"4213",1,0,167,6,1,3,"1df625b",41,1
"4311",1,0,87,1,4,3,"1df625b",42,1
"4411",1,0,984,2,1,3,"1df625b",43,1
"4511",1,1,257,6,6,3,"1df625b",44,1
"4611",1,1,3,6,6,3,"1df625b",45,1
"4711",1,1,87,5,5,3,"1df625b",46,1
"4811",1,0,16,1,2,3,"1df625b",47,1
"4911",1,1,855,3,3,3,"1df625b",48,1
"5011",1,0,925,1,5,3,"1df625b",49,1
"5115",1,1,261,2,2,3,"1df625b",50,1
"5213",1,1,129,1,1,3,"1df625b",51,1
"5311",0,1,556,1,3,3,"1df625b",52,1
"5411",1,0,571,4,1,3,"1df625b",53,1
"5511",1,1,315,4,4,3,"1df625b",54,1
"5611",1,0,205,6,1,3,"1df625b",55,1
"5711",1,1,132,2,2,3,"1df625b",56,1
"5811",1,1,368,4,4,3,"1df625b",57,1
"5911",0,0,379,5,5,3,"1df625b",58,1
"6011",1,0,115,1,5,3,"1df625b",59,1
"6115",1,0,353,3,1,3,"1df625b",60,1
"6213",1,1,534,6,6,3,"1df625b",61,1
"6311",1,0,704,2,1,3,"1df625b",62,1
"6411",1,1,597,3,3,3,"1df625b",63,1
"6511",1,0,119,1,6,3,"1df625b",64,1
"6611",1,1,1121,1,1,3,"1df625b",65,1
"6711",1,0,379,4,1,3,"1df625b",66,1
"6811",1,0,599,6,1,3,"1df625b",67,1
"6911",1,1,228,5,5,3,"1df625b",68,1
"7011",1,0,365,1,4,3,"1df625b",69,1
"7115",1,0,284,1,2,3,"1df625b",70,1
"7212",0,1,170,5,1,3,"1df625b",71,1
"7311",0,1,437,1,3,3,"1df625b",72,1
"7411",1,1,638,6,6,3,"1df625b",73,1
"7511",0,0,72,3,3,3,"1df625b",74,1
"7611",1,1,143,4,4,3,"1df625b",75,1
"7711",1,1,192,1,1,3,"1df625b",76,1
"7811",1,1,268,2,2,3,"1df625b",77,1
"270",-1,-1,0,2,2,2,"1876e7b",1,1
"370",1,1,353,1,1,2,"1876e7b",2,1
"460",0,0,282,3,3,2,"1876e7b",3,1
"560",1,1,235,4,4,2,"1876e7b",4,1
"660",1,0,469,1,3,2,"1876e7b",5,1
"760",0,1,579,2,1,2,"1876e7b",6,1
"812",1,0,421,1,4,2,"1876e7b",7,1
"912",1,1,308,6,6,2,"1876e7b",8,1
"1012",1,0,441,6,1,2,"1876e7b",9,1
"1112",1,0,405,1,5,2,"1876e7b",10,1
"1212",1,1,323,5,5,2,"1876e7b",11,1
"1312",0,1,468,6,1,2,"1876e7b",12,1
"1412",0,0,827,3,3,2,"1876e7b",13,1
"1512",1,1,914,1,1,2,"1876e7b",14,1
"1612",1,1,23,6,6,2,"1876e7b",15,1
"1712",0,1,264,5,1,2,"1876e7b",16,1
"1812",1,0,836,2,1,2,"1876e7b",17,1
"1912",1,0,1657,1,4,2,"1876e7b",18,1
"2012",0,1,685,3,1,2,"1876e7b",19,1
"2116",-1,-1,0,5,5,2,"1876e7b",20,1
"2214",0,0,446,2,2,2,"1876e7b",21,1
"2312",0,0,590,4,4,2,"1876e7b",22,1
"2412",-1,-1,0,1,4,2,"1876e7b",23,1
"2512",0,0,588,4,4,2,"1876e7b",24,1
"2612",1,0,528,1,6,2,"1876e7b",25,1
"2712",1,1,1381,3,3,2,"1876e7b",26,1
"2812",-1,-1,0,2,2,2,"1876e7b",27,1
"2912",1,0,568,2,1,2,"1876e7b",28,1
"3012",0,0,1084,6,6,2,"1876e7b",29,1
"3116",1,0,1542,1,3,2,"1876e7b",30,1
"3214",0,0,640,5,5,2,"1876e7b",31,1
"3312",1,1,470,1,1,2,"1876e7b",32,1
"3412",0,1,378,1,5,2,"1876e7b",33,1
"3512",0,1,376,1,3,2,"1876e7b",34,1
"3612",0,1,666,1,6,2,"1876e7b",35,1
"3712",1,1,844,1,1,2,"1876e7b",36,1
"3812",1,1,1606,3,3,2,"1876e7b",37,1
"3912",0,1,1021,1,5,2,"1876e7b",38,1
"4012",1,0,1414,1,4,2,"1876e7b",39,1
"4116",0,0,1019,6,6,2,"1876e7b",40,1
"4214",1,1,566,5,5,2,"1876e7b",41,1
"4312",1,0,744,1,2,2,"1876e7b",42,1
"4412",0,0,1282,2,2,2,"1876e7b",43,1
"4512",1,1,605,4,4,2,"1876e7b",44,1
"4612",1,1,873,4,4,2,"1876e7b",45,1
"4712",0,1,453,6,1,2,"1876e7b",46,1
"4812",1,1,1847,6,6,2,"1876e7b",47,1
"4912",1,0,281,3,1,2,"1876e7b",48,1
"5012",0,0,998,2,2,2,"1876e7b",49,1
"5116",-1,-1,0,1,2,2,"1876e7b",50,1
"5214",1,0,727,4,1,2,"1876e7b",51,1
"5312",0,1,435,1,5,2,"1876e7b",52,1
"5412",-1,-1,0,1,1,2,"1876e7b",53,1
"5512",1,1,905,5,5,2,"1876e7b",54,1
"5612",0,0,746,3,3,2,"1876e7b",55,1
"5712",1,1,1060,2,2,2,"1876e7b",56,1
"5812",1,0,922,1,5,2,"1876e7b",57,1
"5912",0,1,777,6,1,2,"1876e7b",58,1
"6012",0,0,1416,4,4,2,"1876e7b",59,1
"6116",1,0,1200,2,1,2,"1876e7b",60,1
"6214",1,1,1063,1,1,2,"1876e7b",61,1
"6312",-1,-1,0,3,1,2,"1876e7b",62,1
"6412",1,1,1746,6,6,2,"1876e7b",63,1
"6512",1,1,948,5,5,2,"1876e7b",64,1
"6612",1,1,991,3,3,2,"1876e7b",65,1
"6712",0,1,450,1,4,2,"1876e7b",66,1
"6812",1,0,1012,1,2,2,"1876e7b",67,1
"6912",-1,-1,0,2,2,2,"1876e7b",68,1
"7012",0,0,614,5,5,2,"1876e7b",69,1
"7116",1,1,545,4,4,2,"1876e7b",70,1
"7213",-1,-1,0,6,6,2,"1876e7b",71,1
"7312",0,1,936,4,1,2,"1876e7b",72,1
"7412",0,1,1519,5,1,2,"1876e7b",73,1
"7512",0,0,1374,3,3,2,"1876e7b",74,1
"7612",1,0,876,1,6,2,"1876e7b",75,1
"7712",0,0,559,1,1,2,"1876e7b",76,1
"7812",1,0,1075,3,1,2,"1876e7b",77,1
"280",1,0,392,1,4,1,"1538d17",1,1
"380",0,1,326,1,5,1,"1538d17",2,1
"470",0,0,572,2,2,1,"1538d17",3,1
"570",1,1,238,3,3,1,"1538d17",4,1
"670",1,1,343,1,1,1,"1538d17",5,1
"770",1,0,310,3,1,1,"1538d17",6,1
"813",1,1,304,5,5,1,"1538d17",7,1
"913",1,1,262,6,6,1,"1538d17",8,1
"1013",1,0,292,2,1,1,"1538d17",9,1
"1113",0,1,407,6,1,1,"1538d17",10,1
"1213",1,1,374,4,4,1,"1538d17",11,1
"1313",0,0,320,3,3,1,"1538d17",12,1
"1413",0,1,372,1,6,1,"1538d17",13,1
"1513",0,1,277,3,1,1,"1538d17",14,1
"1613",0,1,326,4,1,1,"1538d17",15,1
"1713",0,0,226,2,2,1,"1538d17",16,1
"1813",1,1,425,4,4,1,"1538d17",17,1
"1913",0,0,335,5,5,1,"1538d17",18,1
"2013",1,1,317,6,6,1,"1538d17",19,1
"2117",1,0,340,2,1,1,"1538d17",20,1
"2215",0,1,491,5,1,1,"1538d17",21,1
"2313",1,1,310,1,1,1,"1538d17",22,1
"2413",1,1,345,6,6,1,"1538d17",23,1
"2513",1,1,508,2,2,1,"1538d17",24,1
"2613",1,1,287,4,4,1,"1538d17",25,1
"2713",1,1,365,3,3,1,"1538d17",26,1
"2813",0,1,373,1,4,1,"1538d17",27,1
"2913",1,0,387,1,3,1,"1538d17",28,1
"3013",1,0,331,1,2,1,"1538d17",29,1
"3117",0,1,271,5,1,1,"1538d17",30,1
"3215",1,1,243,1,1,1,"1538d17",31,1
"3313",0,1,356,1,6,1,"1538d17",32,1
"3413",1,1,422,5,5,1,"1538d17",33,1
"3513",1,1,333,2,2,1,"1538d17",34,1
"3613",0,1,375,1,5,1,"1538d17",35,1
"3713",1,1,271,4,4,1,"1538d17",36,1
"3813",1,1,519,3,3,1,"1538d17",37,1
"3913",1,1,454,6,6,1,"1538d17",38,1
"4013",0,1,393,1,6,1,"1538d17",39,1
"4117",1,0,468,1,2,1,"1538d17",40,1
"4215",1,0,380,1,3,1,"1538d17",41,1
"4313",0,1,283,1,4,1,"1538d17",42,1
"4413",1,1,284,5,5,1,"1538d17",43,1
"4513",1,1,430,1,1,1,"1538d17",44,1
"4613",0,0,294,4,4,1,"1538d17",45,1
"4713",0,1,298,1,4,1,"1538d17",46,1
"4813",1,1,307,5,5,1,"1538d17",47,1
"4913",1,1,393,2,2,1,"1538d17",48,1
"5013",0,1,379,1,3,1,"1538d17",49,1
"5117",0,0,306,6,6,1,"1538d17",50,1
"5215",1,1,257,3,3,1,"1538d17",51,1
"5313",0,1,298,6,1,1,"1538d17",52,1
"5413",0,1,356,1,5,1,"1538d17",53,1
"5513",1,0,298,1,2,1,"1538d17",54,1
"5613",1,1,308,1,1,1,"1538d17",55,1
"5713",0,0,366,1,1,1,"1538d17",56,1
"5813",0,1,262,4,1,1,"1538d17",57,1
"5913",0,1,388,2,1,1,"1538d17",58,1
"6013",0,1,245,3,1,1,"1538d17",59,1
"6117",0,1,319,5,1,1,"1538d17",60,1
"6215",1,1,355,5,5,1,"1538d17",61,1
"6313",1,1,472,6,6,1,"1538d17",62,1
"6413",1,1,287,4,4,1,"1538d17",63,1
"6513",0,1,207,6,1,1,"1538d17",64,1
"6613",1,1,451,2,2,1,"1538d17",65,1
"6713",1,1,434,3,3,1,"1538d17",66,1
"6813",0,1,393,1,5,1,"1538d17",67,1
"6913",1,0,384,1,2,1,"1538d17",68,1
"7013",0,0,124,4,4,1,"1538d17",69,1
"7117",0,1,385,1,4,1,"1538d17",70,1
"7214",0,1,267,1,3,1,"1538d17",71,1
"7313",0,1,307,6,1,1,"1538d17",72,1
"7413",1,1,382,2,2,1,"1538d17",73,1
"7513",1,1,288,5,5,1,"1538d17",74,1
"7613",1,1,295,3,3,1,"1538d17",75,1
"7713",1,1,293,1,1,1,"1538d17",76,1
"7813",1,1,287,6,6,1,"1538d17",77,1
"290",1,0,568,5,1,2,"174b1ec",1,1
"390",1,0,241,1,6,2,"174b1ec",2,1
"480",1,1,316,5,5,2,"174b1ec",3,1
"580",0,1,257,1,2,2,"174b1ec",4,1
"680",1,0,240,3,1,2,"174b1ec",5,1
"780",0,0,372,1,1,2,"174b1ec",6,1
"814",0,0,736,6,6,2,"174b1ec",7,1
"914",0,0,297,4,4,2,"174b1ec",8,1
"1014",0,0,615,2,2,2,"174b1ec",9,1
"1114",0,0,282,3,3,2,"174b1ec",10,1
"1214",1,0,252,1,4,2,"174b1ec",11,1
"1314",1,1,463,5,5,2,"174b1ec",12,1
"1414",0,1,224,1,6,2,"174b1ec",13,1
"1514",0,1,1204,1,3,2,"174b1ec",14,1
"1614",0,0,236,6,6,2,"174b1ec",15,1
"1714",0,1,253,2,1,2,"174b1ec",16,1
"1814",0,0,371,4,4,2,"174b1ec",17,1
"1914",1,0,263,5,1,2,"174b1ec",18,1
"2014",0,1,370,4,1,2,"174b1ec",19,1
"2118",0,0,319,2,2,2,"174b1ec",20,1
"2216",1,1,268,1,1,2,"174b1ec",21,1
"2314",0,0,502,3,3,2,"174b1ec",22,1
"2414",1,0,314,3,1,2,"174b1ec",23,1
"2514",0,1,251,2,1,2,"174b1ec",24,1
"2614",1,1,255,1,1,2,"174b1ec",25,1
"2714",0,1,224,1,5,2,"174b1ec",26,1
"2814",1,1,283,2,2,2,"174b1ec",27,1
"2914",0,1,300,4,1,2,"174b1ec",28,1
"3014",1,1,242,3,3,2,"174b1ec",29,1
"3118",1,1,324,6,6,2,"174b1ec",30,1
"3216",0,1,336,6,1,2,"174b1ec",31,1
"3314",1,1,285,5,5,2,"174b1ec",32,1
"3414",1,1,356,4,4,2,"174b1ec",33,1
"3514",0,1,845,1,5,2,"174b1ec",34,1
"3614",1,0,232,1,2,2,"174b1ec",35,1
"3714",1,1,247,3,3,2,"174b1ec",36,1
"3814",0,1,390,1,3,2,"174b1ec",37,1
"3914",1,1,288,2,2,2,"174b1ec",38,1
"4014",0,0,296,1,1,2,"174b1ec",39,1
"4118",1,1,235,4,4,2,"174b1ec",40,1
"4216",0,1,242,1,4,2,"174b1ec",41,1
"4314",0,1,708,1,6,2,"174b1ec",42,1
"4414",1,1,412,6,6,2,"174b1ec",43,1
"4514",1,1,302,5,5,2,"174b1ec",44,1
"4614",0,1,298,1,4,2,"174b1ec",45,1
"4714",0,1,295,1,5,2,"174b1ec",46,1
"4814",1,0,240,3,1,2,"174b1ec",47,1
"4914",0,1,261,2,1,2,"174b1ec",48,1
"5014",1,1,294,6,6,2,"174b1ec",49,1
"5118",1,1,287,5,5,2,"174b1ec",50,1
"5216",1,1,194,2,2,2,"174b1ec",51,1
"5314",1,1,345,1,1,2,"174b1ec",52,1
"5414",1,1,227,4,4,2,"174b1ec",53,1
"5514",1,1,383,3,3,2,"174b1ec",54,1
"5614",0,1,862,1,6,2,"174b1ec",55,1
"5714",0,0,292,3,3,2,"174b1ec",56,1
"5814",1,1,279,4,4,2,"174b1ec",57,1
"5914",1,1,167,5,5,2,"174b1ec",58,1
"6014",0,1,548,4,1,2,"174b1ec",59,1
"6118",0,1,190,3,1,2,"174b1ec",60,1
"6216",1,0,299,2,1,2,"174b1ec",61,1
"6314",0,1,483,1,6,2,"174b1ec",62,1
"6414",0,1,389,5,1,2,"174b1ec",63,1
"6514",1,1,274,6,6,2,"174b1ec",64,1
"6614",1,1,537,1,1,2,"174b1ec",65,1
"6714",1,1,299,2,2,2,"174b1ec",66,1
"6814",0,1,207,5,1,2,"174b1ec",67,1
"6914",1,1,230,3,3,2,"174b1ec",68,1
"7014",1,1,248,1,1,2,"174b1ec",69,1
"7118",1,1,741,6,6,2,"174b1ec",70,1
"7215",1,1,1490,2,2,2,"174b1ec",71,1
"7314",1,0,237,1,2,2,"174b1ec",72,1
"7414",0,1,761,1,6,2,"174b1ec",73,1
"7514",1,1,553,4,4,2,"174b1ec",74,1
"7614",1,1,273,5,5,2,"174b1ec",75,1
"7714",0,1,415,4,1,2,"174b1ec",76,1
"7814",0,1,284,1,3,2,"174b1ec",77,1
"2100",0,1,1093,5,1,1,"172043d",1,1
"3100",1,1,561,3,3,1,"172043d",2,1
"490",1,0,415,1,3,1,"172043d",3,1
"590",1,0,359,1,4,1,"172043d",4,1
"690",1,1,358,4,4,1,"172043d",5,1
"790",1,1,412,5,5,1,"172043d",6,1
"815",1,0,416,1,2,1,"172043d",7,1
"915",1,1,355,1,1,1,"172043d",8,1
"1015",0,0,372,2,2,1,"172043d",9,1
"1115",0,1,312,6,1,1,"172043d",10,1
"1215",1,1,301,6,6,1,"172043d",11,1
"1315",1,1,439,3,3,1,"172043d",12,1
"1415",1,1,375,4,4,1,"172043d",13,1
"1515",1,1,296,2,2,1,"172043d",14,1
"1615",0,1,353,5,1,1,"172043d",15,1
"1715",1,1,340,5,5,1,"172043d",16,1
"1815",1,1,302,6,6,1,"172043d",17,1
"1915",1,0,434,1,3,1,"172043d",18,1
"2015",0,1,448,1,4,1,"172043d",19,1
"2119",1,0,349,1,2,1,"172043d",20,1
"2217",1,1,291,1,1,1,"172043d",21,1
"2315",0,1,329,6,1,1,"172043d",22,1
"2415",0,1,403,2,1,1,"172043d",23,1
"2515",1,1,714,3,3,1,"172043d",24,1
"2615",0,1,398,3,1,1,"172043d",25,1
"2715",1,1,423,6,6,1,"172043d",26,1
"2815",1,1,519,1,1,1,"172043d",27,1
"2915",0,1,459,1,4,1,"172043d",28,1
"3015",1,1,411,5,5,1,"172043d",29,1
"3119",0,1,316,5,1,1,"172043d",30,1
"3217",0,1,370,6,1,1,"172043d",31,1
"3315",1,1,449,2,2,1,"172043d",32,1
"3415",1,1,331,4,4,1,"172043d",33,1
"3515",1,1,412,5,5,1,"172043d",34,1
"3615",1,1,540,2,2,1,"172043d",35,1
"3715",0,1,454,3,1,1,"172043d",36,1
"3815",0,1,472,5,1,1,"172043d",37,1
"3915",1,0,624,2,1,1,"172043d",38,1
"4015",0,1,473,4,1,1,"172043d",39,1
"4119",1,1,521,6,6,1,"172043d",40,1
"4217",1,1,487,4,4,1,"172043d",41,1
"4315",1,1,468,1,1,1,"172043d",42,1
"4415",0,1,480,1,6,1,"172043d",43,1
"4515",1,1,503,3,3,1,"172043d",44,1
"4615",1,1,445,6,6,1,"172043d",45,1
"4715",0,1,357,2,1,1,"172043d",46,1
"4815",1,1,345,5,5,1,"172043d",47,1
"4915",1,1,412,2,2,1,"172043d",48,1
"5015",1,1,429,1,1,1,"172043d",49,1
"5119",0,1,290,4,1,1,"172043d",50,1
"5217",0,1,482,1,3,1,"172043d",51,1
"5315",1,1,306,4,4,1,"172043d",52,1
"5415",0,1,518,1,5,1,"172043d",53,1
"5515",0,1,469,6,1,1,"172043d",54,1
"5615",1,1,524,3,3,1,"172043d",55,1
"5715",0,1,310,3,1,1,"172043d",56,1
"5815",1,1,413,5,5,1,"172043d",57,1
"5915",0,1,288,6,1,1,"172043d",58,1
"6015",1,1,390,3,3,1,"172043d",59,1
"6119",0,1,471,5,1,1,"172043d",60,1
"6217",0,1,469,1,4,1,"172043d",61,1
"6315",1,1,454,4,4,1,"172043d",62,1
"6415",1,1,562,6,6,1,"172043d",63,1
"6515",1,0,819,2,1,1,"172043d",64,1
"6615",1,1,384,1,1,1,"172043d",65,1
"6715",1,1,576,2,2,1,"172043d",66,1
"6815",0,1,520,6,1,1,"172043d",67,1
"6915",1,1,543,5,5,1,"172043d",68,1
"7015",1,1,595,3,3,1,"172043d",69,1
"7119",1,1,580,4,4,1,"172043d",70,1
"7216",0,1,320,1,3,1,"172043d",71,1
"7315",1,0,603,2,1,1,"172043d",72,1
"7415",0,1,372,4,1,1,"172043d",73,1
"7515",1,1,208,1,1,1,"172043d",74,1
"7615",1,1,353,6,6,1,"172043d",75,1
"7715",0,1,270,1,5,1,"172043d",76,1
"7815",1,1,473,2,2,1,"172043d",77,1
"2101",1,1,627,3,3,1,"1d93c98",1,1
"3101",0,0,617,6,6,1,"1d93c98",2,1
"4100",1,1,462,1,1,1,"1d93c98",3,1
"5100",0,1,522,1,2,1,"1d93c98",4,1
"6100",0,1,609,1,3,1,"1d93c98",5,1
"791",0,1,590,5,1,1,"1d93c98",6,1
"816",0,1,468,1,6,1,"1d93c98",7,1
"916",1,0,483,1,4,1,"1d93c98",8,1
"1016",1,1,534,2,2,1,"1d93c98",9,1
"1116",0,0,478,4,4,1,"1d93c98",10,1
"1216",1,1,529,5,5,1,"1d93c98",11,1
"1316",0,1,497,1,3,1,"1d93c98",12,1
"1416",1,1,429,6,6,1,"1d93c98",13,1
"1516",1,1,442,5,5,1,"1d93c98",14,1
"1616",1,0,469,2,1,1,"1d93c98",15,1
"1716",0,0,496,4,4,1,"1d93c98",16,1
"1816",0,1,404,6,1,1,"1d93c98",17,1
"1916",1,0,456,5,1,1,"1d93c98",18,1
"2016",1,0,291,1,4,1,"1d93c98",19,1
"2120",1,1,471,3,3,1,"1d93c98",20,1
"2218",0,0,494,2,2,1,"1d93c98",21,1
"2316",1,1,448,1,1,1,"1d93c98",22,1
"2416",1,0,404,4,1,1,"1d93c98",23,1
"2516",1,1,509,2,2,1,"1d93c98",24,1
"2616",0,1,276,1,3,1,"1d93c98",25,1
"2716",1,1,608,4,4,1,"1d93c98",26,1
"2816",0,0,474,1,1,1,"1d93c98",27,1
"2916",0,1,576,6,1,1,"1d93c98",28,1
"3016",1,0,471,2,1,1,"1d93c98",29,1
"3120",1,0,567,5,1,1,"1d93c98",30,1
"3218",0,0,519,5,5,1,"1d93c98",31,1
"3316",1,1,448,6,6,1,"1d93c98",32,1
"3416",0,0,402,3,3,1,"1d93c98",33,1
"3516",1,1,491,5,5,1,"1d93c98",34,1
"3616",0,1,385,6,1,1,"1d93c98",35,1
"3716",1,1,447,4,4,1,"1d93c98",36,1
"3816",0,1,450,1,5,1,"1d93c98",37,1
"3916",1,1,122,6,6,1,"1d93c98",38,1
"4016",0,1,490,1,3,1,"1d93c98",39,1
"4120",1,1,471,1,1,1,"1d93c98",40,1
"4218",1,1,496,3,3,1,"1d93c98",41,1
"4316",0,1,1064,1,4,1,"1d93c98",42,1
"4416",0,1,409,1,2,1,"1d93c98",43,1
"4516",1,1,401,2,2,1,"1d93c98",44,1
"4616",0,1,410,5,1,1,"1d93c98",45,1
"4716",0,0,452,5,5,1,"1d93c98",46,1
"4816",1,1,477,3,3,1,"1d93c98",47,1
"4916",1,1,470,1,1,1,"1d93c98",48,1
"5016",1,1,352,4,4,1,"1d93c98",49,1
"5120",1,1,497,6,6,1,"1d93c98",50,1
"5218",1,1,248,2,2,1,"1d93c98",51,1
"5316",0,1,425,1,3,1,"1d93c98",52,1
"5416",0,1,245,6,1,1,"1d93c98",53,1
"5516",0,1,457,1,2,1,"1d93c98",54,1
"5616",0,1,429,4,1,1,"1d93c98",55,1
"5716",0,1,451,1,6,1,"1d93c98",56,1
"5816",1,1,361,1,1,1,"1d93c98",57,1
"5916",1,1,410,3,3,1,"1d93c98",58,1
"6016",0,1,357,1,4,1,"1d93c98",59,1
"6120",0,1,249,1,3,1,"1d93c98",60,1
"6218",0,1,458,5,1,1,"1d93c98",61,1
"6316",1,1,489,4,4,1,"1d93c98",62,1
"6416",1,1,450,2,2,1,"1d93c98",63,1
"6516",1,1,371,5,5,1,"1d93c98",64,1
"6616",0,1,471,2,1,1,"1d93c98",65,1
"6716",1,1,247,6,6,1,"1d93c98",66,1
"6816",0,1,369,1,4,1,"1d93c98",67,1
"6916",0,1,324,1,6,1,"1d93c98",68,1
"7016",0,1,375,1,3,1,"1d93c98",69,1
"7120",1,1,46,2,2,1,"1d93c98",70,1
"7217",1,1,492,4,4,1,"1d93c98",71,1
"7316",0,1,478,5,1,1,"1d93c98",72,1
"7416",1,1,448,6,6,1,"1d93c98",73,1
"7516",1,1,508,1,1,1,"1d93c98",74,1
"7616",1,1,385,3,3,1,"1d93c98",75,1
"7716",1,0,452,1,2,1,"1d93c98",76,1
"7816",1,1,444,5,5,1,"1d93c98",77,1
"2102",1,1,915,5,5,3,"1ca3881",1,1
"3102",1,1,661,3,3,3,"1ca3881",2,1
"4101",0,1,481,1,5,3,"1ca3881",3,1
"5101",1,0,253,4,1,3,"1ca3881",4,1
"6101",1,0,288,3,1,3,"1ca3881",5,1
"792",1,1,488,2,2,3,"1ca3881",6,1
"817",1,1,258,4,4,3,"1ca3881",7,1
"917",1,1,272,1,1,3,"1ca3881",8,1
"1017",0,1,845,6,1,3,"1ca3881",9,1
"1117",1,0,236,1,2,3,"1ca3881",10,1
"1217",1,1,488,6,6,3,"1ca3881",11,1
"1317",0,0,202,2,2,3,"1ca3881",12,1
"1417",1,1,240,6,6,3,"1ca3881",13,1
"1517",0,1,320,1,3,3,"1ca3881",14,1
"1617",1,1,349,4,4,3,"1ca3881",15,1
"1717",1,0,611,1,2,3,"1ca3881",16,1
"1817",0,1,397,4,1,3,"1ca3881",17,1
"1917",0,0,204,3,3,3,"1ca3881",18,1
"2017",1,1,264,1,1,3,"1ca3881",19,1
"2121",0,1,248,1,5,3,"1ca3881",20,1
"2219",0,1,286,6,1,3,"1ca3881",21,1
"2317",0,0,272,5,5,3,"1ca3881",22,1
"2417",1,0,251,1,3,3,"1ca3881",23,1
"2517",1,1,811,6,6,3,"1ca3881",24,1
"2617",0,1,187,1,5,3,"1ca3881",25,1
"2717",1,1,206,4,4,3,"1ca3881",26,1
"2817",1,1,223,3,3,3,"1ca3881",27,1
"2917",0,1,94,1,4,3,"1ca3881",28,1
"3017",1,1,299,5,5,3,"1ca3881",29,1
"3121",1,1,412,2,2,3,"1ca3881",30,1
"3219",1,0,548,6,1,3,"1ca3881",31,1
"3317",0,1,292,1,2,3,"1ca3881",32,1
"3417",1,1,86,1,1,3,"1ca3881",33,1
"3517",1,1,260,5,5,3,"1ca3881",34,1
"3617",0,0,179,2,2,3,"1ca3881",35,1
"3717",0,1,364,1,5,3,"1ca3881",36,1
"3817",1,0,40,2,1,3,"1ca3881",37,1
"3917",1,0,160,1,4,3,"1ca3881",38,1
"4017",0,0,439,6,6,3,"1ca3881",39,1
"4121",1,0,220,1,6,3,"1ca3881",40,1
"4219",0,1,496,3,1,3,"1ca3881",41,1
"4317",0,0,51,3,3,3,"1ca3881",42,1
"4417",0,0,33,4,4,3,"1ca3881",43,1
"4517",0,0,264,1,1,3,"1ca3881",44,1
"4617",1,0,236,1,4,3,"1ca3881",45,1
"4717",0,1,227,1,2,3,"1ca3881",46,1
"4817",0,0,241,6,6,3,"1ca3881",47,1
"4917",0,0,220,1,1,3,"1ca3881",48,1
"5017",1,0,169,6,1,3,"1ca3881",49,1
"5121",0,0,148,2,2,3,"1ca3881",50,1
"5219",1,1,217,5,5,3,"1ca3881",51,1
"5317",0,1,317,3,1,3,"1ca3881",52,1
"5417",1,0,241,1,5,3,"1ca3881",53,1
"5517",0,0,332,4,4,3,"1ca3881",54,1
"5617",0,0,255,3,3,3,"1ca3881",55,1
"5717",1,0,232,1,3,3,"1ca3881",56,1
"5817",1,1,240,1,1,3,"1ca3881",57,1
"5917",0,0,1025,3,3,3,"1ca3881",58,1
"6017",1,1,11,4,4,3,"1ca3881",59,1
"6121",1,1,195,5,5,3,"1ca3881",60,1
"6219",0,0,239,2,2,3,"1ca3881",61,1
"6317",1,0,108,4,1,3,"1ca3881",62,1
"6417",1,0,197,1,6,3,"1ca3881",63,1
"6517",0,0,185,6,6,3,"1ca3881",64,1
"6617",0,1,180,1,5,3,"1ca3881",65,1
"6717",0,1,43,2,1,3,"1ca3881",66,1
"6817",1,0,201,1,4,3,"1ca3881",67,1
"6917",1,1,57,6,6,3,"1ca3881",68,1
"7017",1,1,205,5,5,3,"1ca3881",69,1
"7121",1,1,133,4,4,3,"1ca3881",70,1
"7218",0,1,201,1,5,3,"1ca3881",71,1
"7317",1,1,96,3,3,3,"1ca3881",72,1
"7417",1,1,61,1,1,3,"1ca3881",73,1
"7517",1,0,576,3,1,3,"1ca3881",74,1
"7617",1,1,464,2,2,3,"1ca3881",75,1
"7717",1,0,253,6,1,3,"1ca3881",76,1
"7817",1,0,481,1,2,3,"1ca3881",77,1
"2103",1,0,1080,2,1,2,"1ff97fd",1,1
"3103",1,0,956,1,5,2,"1ff97fd",2,1
"4102",0,0,914,2,2,2,"1ff97fd",3,1
"5102",0,1,836,4,1,2,"1ff97fd",4,1
"6102",0,1,1311,1,6,2,"1ff97fd",5,1
"793",1,1,583,4,4,2,"1ff97fd",6,1
"818",1,1,421,3,3,2,"1ff97fd",7,1
"918",0,0,390,1,1,2,"1ff97fd",8,1
"1018",1,1,659,6,6,2,"1ff97fd",9,1
"1118",1,1,846,5,5,2,"1ff97fd",10,1
"1218",1,0,748,3,1,2,"1ff97fd",11,1
"1318",1,1,823,1,1,2,"1ff97fd",12,1
"1418",1,1,776,3,3,2,"1ff97fd",13,1
"1518",0,0,741,6,6,2,"1ff97fd",14,1
"1618",1,0,686,2,1,2,"1ff97fd",15,1
"1718",1,0,617,1,5,2,"1ff97fd",16,1
"1818",0,1,524,6,1,2,"1ff97fd",17,1
"1918",1,1,549,4,4,2,"1ff97fd",18,1
"2018",1,1,723,2,2,2,"1ff97fd",19,1
"2122",1,0,754,1,3,2,"1ff97fd",20,1
"2220",1,1,864,5,5,2,"1ff97fd",21,1
"2318",0,1,671,4,1,2,"1ff97fd",22,1
"2418",1,0,687,2,1,2,"1ff97fd",23,1
"2518",1,1,910,3,3,2,"1ff97fd",24,1
"2618",1,1,1223,6,6,2,"1ff97fd",25,1
"2718",0,1,731,1,6,2,"1ff97fd",26,1
"2818",1,1,626,2,2,2,"1ff97fd",27,1
"2918",1,1,682,5,5,2,"1ff97fd",28,1
"3018",1,1,886,1,1,2,"1ff97fd",29,1
"3122",0,1,693,4,1,2,"1ff97fd",30,1
"3220",0,1,726,1,5,2,"1ff97fd",31,1
"3318",1,1,567,4,4,2,"1ff97fd",32,1
"3418",0,1,659,1,3,2,"1ff97fd",33,1
"3518",0,1,158,1,5,2,"1ff97fd",34,1
"3618",1,1,288,2,2,2,"1ff97fd",35,1
"3718",1,1,367,1,1,2,"1ff97fd",36,1
"3818",1,1,458,5,5,2,"1ff97fd",37,1
"3918",1,0,534,1,2,2,"1ff97fd",38,1
"4018",0,1,513,6,1,2,"1ff97fd",39,1
"4122",0,1,834,4,1,2,"1ff97fd",40,1
"4220",0,1,1014,3,1,2,"1ff97fd",41,1
"4318",0,0,508,3,3,2,"1ff97fd",42,1
"4418",1,1,589,6,6,2,"1ff97fd",43,1
"4518",1,1,578,4,4,2,"1ff97fd",44,1
"4618",1,1,494,1,1,2,"1ff97fd",45,1
"4718",0,1,323,1,6,2,"1ff97fd",46,1
"4818",1,1,273,6,6,2,"1ff97fd",47,1
"4918",1,1,289,5,5,2,"1ff97fd",48,1
"5018",0,1,432,3,1,2,"1ff97fd",49,1
"5122",0,1,433,5,1,2,"1ff97fd",50,1
"5220",1,1,309,3,3,2,"1ff97fd",51,1
"5318",0,1,204,2,1,2,"1ff97fd",52,1
"5418",1,1,420,2,2,2,"1ff97fd",53,1
"5518",0,0,380,4,4,2,"1ff97fd",54,1
"5618",0,1,576,1,4,2,"1ff97fd",55,1
"5718",1,1,459,2,2,2,"1ff97fd",56,1
"5818",1,1,106,3,3,2,"1ff97fd",57,1
"5918",1,1,445,5,5,2,"1ff97fd",58,1
"6018",0,1,437,1,6,2,"1ff97fd",59,1
"6122",1,0,527,3,1,2,"1ff97fd",60,1
"6220",1,1,444,6,6,2,"1ff97fd",61,1
"6318",1,1,42,1,1,2,"1ff97fd",62,1
"6418",1,0,338,2,1,2,"1ff97fd",63,1
"6518",1,1,330,4,4,2,"1ff97fd",64,1
"6618",0,1,674,4,1,2,"1ff97fd",65,1
"6718",0,1,276,1,5,2,"1ff97fd",66,1
"6818",1,1,288,1,1,2,"1ff97fd",67,1
"6918",0,1,471,1,3,2,"1ff97fd",68,1
"7018",1,1,334,4,4,2,"1ff97fd",69,1
"7122",0,1,407,5,1,2,"1ff97fd",70,1
"7219",0,0,423,2,2,2,"1ff97fd",71,1
"7318",0,1,1288,1,6,2,"1ff97fd",72,1
"7418",1,1,415,5,5,2,"1ff97fd",73,1
"7518",0,1,1236,4,1,2,"1ff97fd",74,1
"7618",1,1,533,3,3,2,"1ff97fd",75,1
"7718",1,1,407,6,6,2,"1ff97fd",76,1
"7818",1,0,264,1,2,2,"1ff97fd",77,1
"2104",1,1,482,5,5,3,"19055f2",1,1
"3104",0,1,348,6,1,3,"19055f2",2,1
"4103",0,0,386,2,2,3,"19055f2",3,1
"5103",1,1,397,4,4,3,"19055f2",4,1
"6103",0,1,376,3,1,3,"19055f2",5,1
"794",1,1,330,6,6,3,"19055f2",6,1
"819",1,1,427,3,3,3,"19055f2",7,1
"919",0,1,383,4,1,3,"19055f2",8,1
"1019",0,1,1517,1,2,3,"19055f2",9,1
"1119",0,1,369,1,5,3,"19055f2",10,1
"1219",1,1,362,1,1,3,"19055f2",11,1
"1319",1,1,1436,6,6,3,"19055f2",12,1
"1419",1,1,751,5,5,3,"19055f2",13,1
"1519",1,0,309,1,2,3,"19055f2",14,1
"1619",1,1,309,4,4,3,"19055f2",15,1
"1719",1,1,326,1,1,3,"19055f2",16,1
"1819",0,1,353,1,6,3,"19055f2",17,1
"1919",0,1,1592,1,4,3,"19055f2",18,1
"2019",1,1,360,2,2,3,"19055f2",19,1
"2123",0,1,377,3,1,3,"19055f2",20,1
"2221",0,1,327,5,1,3,"19055f2",21,1
"2319",1,1,382,3,3,3,"19055f2",22,1
"2419",1,1,576,4,4,3,"19055f2",23,1
"2519",0,1,325,3,1,3,"19055f2",24,1
"2619",1,1,278,5,5,3,"19055f2",25,1
"2719",1,1,538,1,1,3,"19055f2",26,1
"2819",0,1,1352,6,1,3,"19055f2",27,1
"2919",0,1,299,5,1,3,"19055f2",28,1
"3019",1,1,347,2,2,3,"19055f2",29,1
"3123",0,1,609,2,1,3,"19055f2",30,1
"3221",0,1,316,1,4,3,"19055f2",31,1
"3319",1,1,331,3,3,3,"19055f2",32,1
"3419",1,1,355,6,6,3,"19055f2",33,1
"3519",1,1,324,4,4,3,"19055f2",34,1
"3619",0,1,594,1,6,3,"19055f2",35,1
"3719",1,0,324,2,1,3,"19055f2",36,1
"3819",1,1,322,5,5,3,"19055f2",37,1
"3919",0,1,401,1,5,3,"19055f2",38,1
"4019",1,1,1041,3,3,3,"19055f2",39,1
"4123",1,1,537,1,1,3,"19055f2",40,1
"4221",0,1,383,1,3,3,"19055f2",41,1
"4319",0,1,646,4,1,3,"19055f2",42,1
"4419",1,1,343,6,6,3,"19055f2",43,1
"4519",1,1,325,2,2,3,"19055f2",44,1
"4619",1,1,334,4,4,3,"19055f2",45,1
"4719",1,1,799,5,5,3,"19055f2",46,1
"4819",0,1,323,3,1,3,"19055f2",47,1
"4919",1,1,333,3,3,3,"19055f2",48,1
"5019",1,1,526,2,2,3,"19055f2",49,1
"5123",0,1,1211,1,6,3,"19055f2",50,1
"5221",0,1,914,5,1,3,"19055f2",51,1
"5319",1,0,438,1,4,3,"19055f2",52,1
"5419",1,1,271,1,1,3,"19055f2",53,1
"5519",1,1,353,6,6,3,"19055f2",54,1
"5619",1,0,672,1,2,3,"19055f2",55,1
"5719",1,0,809,6,1,3,"19055f2",56,1
"5819",1,1,832,3,3,3,"19055f2",57,1
"5919",1,0,336,2,1,3,"19055f2",58,1
"6019",1,1,383,2,2,3,"19055f2",59,1
"6123",0,1,293,4,1,3,"19055f2",60,1
"6221",1,1,350,1,1,3,"19055f2",61,1
"6319",0,1,315,5,1,3,"19055f2",62,1
"6419",0,1,344,3,1,3,"19055f2",63,1
"6519",1,1,296,4,4,3,"19055f2",64,1
"6619",1,1,298,5,5,3,"19055f2",65,1
"6719",1,1,431,6,6,3,"19055f2",66,1
"6819",1,1,274,2,2,3,"19055f2",67,1
"6919",1,1,522,6,6,3,"19055f2",68,1
"7019",0,1,329,1,6,3,"19055f2",69,1
"7123",0,1,350,4,1,3,"19055f2",70,1
"7220",1,1,311,3,3,3,"19055f2",71,1
"7319",0,1,310,1,5,3,"19055f2",72,1
"7419",1,0,288,1,2,3,"19055f2",73,1
"7519",1,1,249,5,5,3,"19055f2",74,1
"7619",1,1,285,1,1,3,"19055f2",75,1
"7719",1,1,308,4,4,3,"19055f2",76,1
"7819",0,1,351,1,3,3,"19055f2",77,1
"2105",-1,-1,0,1,2,1,"139deb9",1,1
"3105",-1,-1,0,1,1,1,"139deb9",2,1
"4104",-1,-1,0,5,1,1,"139deb9",3,1
"5104",-1,-1,0,5,5,1,"139deb9",4,1
"6104",-1,-1,0,4,4,1,"139deb9",5,1
"795",-1,-1,0,1,4,1,"139deb9",6,1
"820",-1,-1,0,3,3,1,"139deb9",7,1
"920",-1,-1,0,1,3,1,"139deb9",8,1
"1020",-1,-1,0,2,2,1,"139deb9",9,1
"1120",-1,-1,0,6,1,1,"139deb9",10,1
"1220",-1,-1,0,6,6,1,"139deb9",11,1
"1320",-1,-1,0,1,4,1,"139deb9",12,1
"1420",-1,-1,0,1,2,1,"139deb9",13,1
"1520",-1,-1,0,5,1,1,"139deb9",14,1
"1620",-1,-1,0,6,6,1,"139deb9",15,1
"1720",-1,-1,0,3,3,1,"139deb9",16,1
"1820",-1,-1,0,5,5,1,"139deb9",17,1
"1920",-1,-1,0,6,1,1,"139deb9",18,1
"2020",-1,-1,0,3,1,1,"139deb9",19,1
"2124",0,0,1174,2,2,1,"139deb9",20,1
"2222",-1,-1,0,4,4,1,"139deb9",21,1
"2320",1,1,445,1,1,1,"139deb9",22,1
"2420",1,1,469,4,4,1,"139deb9",23,1
"2520",1,1,470,1,1,1,"139deb9",24,1
"2620",1,1,598,6,6,1,"139deb9",25,1
"2720",1,1,670,2,2,1,"139deb9",26,1
"2820",0,1,664,1,4,1,"139deb9",27,1
"2920",1,1,861,5,5,1,"139deb9",28,1
"3020",1,0,471,2,1,1,"139deb9",29,1
"3124",0,1,956,5,1,1,"139deb9",30,1
"3222",0,1,777,1,3,1,"139deb9",31,1
"3320",0,1,780,6,1,1,"139deb9",32,1
"3420",1,1,881,3,3,1,"139deb9",33,1
"3520",1,1,1103,5,5,1,"139deb9",34,1
"3620",0,1,1520,2,1,1,"139deb9",35,1
"3720",-1,-1,0,3,3,1,"139deb9",36,1
"3820",1,1,772,4,4,1,"139deb9",37,1
"3920",-1,-1,0,1,4,1,"139deb9",38,1
"4020",1,0,1798,1,5,1,"139deb9",39,1
"4124",-1,-1,0,1,3,1,"139deb9",40,1
"4222",0,1,606,6,1,1,"139deb9",41,1
"4320",1,1,1854,1,1,1,"139deb9",42,1
"4420",1,1,651,6,6,1,"139deb9",43,1
"4520",1,1,911,2,2,1,"139deb9",44,1
"4620",1,1,603,5,5,1,"139deb9",45,1
"4720",1,0,1203,1,2,1,"139deb9",46,1
"4820",1,0,581,4,1,1,"139deb9",47,1
"4920",0,1,546,1,3,1,"139deb9",48,1
"5020",1,1,672,6,6,1,"139deb9",49,1
"5124",0,1,741,1,5,1,"139deb9",50,1
"5222",1,1,617,2,2,1,"139deb9",51,1
"5320",0,1,671,1,6,1,"139deb9",52,1
"5420",1,1,715,4,4,1,"139deb9",53,1
"5520",1,1,792,3,3,1,"139deb9",54,1
"5620",1,1,626,1,1,1,"139deb9",55,1
"5720",1,1,1692,2,2,1,"139deb9",56,1
"5820",0,1,1531,1,6,1,"139deb9",57,1
"5920",1,1,709,3,3,1,"139deb9",58,1
"6020",1,1,559,4,4,1,"139deb9",59,1
"6124",1,0,839,2,1,1,"139deb9",60,1
"6222",1,1,851,6,6,1,"139deb9",61,1
"6320",-1,-1,0,1,3,1,"139deb9",62,1
"6420",1,1,694,1,1,1,"139deb9",63,1
"6520",0,1,79,1,5,1,"139deb9",64,1
"6620",1,1,861,5,5,1,"139deb9",65,1
"6720",0,1,801,1,4,1,"139deb9",66,1
"6820",1,1,887,3,3,1,"139deb9",67,1
"6920",1,1,57,4,4,1,"139deb9",68,1
"7020",1,1,1105,2,2,1,"139deb9",69,1
"7124",0,1,609,6,1,1,"139deb9",70,1
"7221",0,1,759,1,5,1,"139deb9",71,1
"7320",0,1,770,1,4,1,"139deb9",72,1
"7420",1,0,858,2,1,1,"139deb9",73,1
"7520",1,1,505,6,6,1,"139deb9",74,1
"7620",0,1,1000,3,1,1,"139deb9",75,1
"7720",1,1,1031,5,5,1,"139deb9",76,1
"7820",1,1,379,1,1,1,"139deb9",77,1
"2106",0,0,943,4,4,2,"1dbd8b7",1,1
"3106",0,1,433,1,5,2,"1dbd8b7",2,1
"4105",0,0,598,1,1,2,"1dbd8b7",3,1
"5105",1,0,306,3,1,2,"1dbd8b7",4,1
"6105",0,1,367,1,4,2,"1dbd8b7",5,1
"796",0,1,504,6,1,2,"1dbd8b7",6,1
"821",1,1,253,5,5,2,"1dbd8b7",7,1
"921",1,1,473,2,2,2,"1dbd8b7",8,1
"1021",0,0,360,3,3,2,"1dbd8b7",9,1
"1121",0,1,452,1,2,2,"1dbd8b7",10,1
"1221",0,0,378,6,6,2,"1dbd8b7",11,1
"1321",1,1,326,5,5,2,"1dbd8b7",12,1
"1421",1,1,382,1,1,2,"1dbd8b7",13,1
"1521",0,1,424,1,4,2,"1dbd8b7",14,1
"1621",1,0,325,1,3,2,"1dbd8b7",15,1
"1721",0,0,223,4,4,2,"1dbd8b7",16,1
"1821",0,0,379,6,6,2,"1dbd8b7",17,1
"1921",0,1,268,1,6,2,"1dbd8b7",18,1
"2021",0,0,369,3,3,2,"1dbd8b7",19,1
"2125",1,1,260,2,2,2,"1dbd8b7",20,1
"2223",1,0,668,5,1,2,"1dbd8b7",21,1
"2321",0,1,679,2,1,2,"1dbd8b7",22,1
"2421",0,0,508,6,6,2,"1dbd8b7",23,1
"2521",1,0,318,6,1,2,"1dbd8b7",24,1
"2621",1,1,140,4,4,2,"1dbd8b7",25,1
"2721",0,0,476,2,2,2,"1dbd8b7",26,1
"2821",1,0,531,4,1,2,"1dbd8b7",27,1
"2921",0,0,549,3,3,2,"1dbd8b7",28,1
"3021",0,1,452,5,1,2,"1dbd8b7",29,1
"3125",0,0,504,5,5,2,"1dbd8b7",30,1
"3223",1,0,543,1,2,2,"1dbd8b7",31,1
"3321",0,1,522,3,1,2,"1dbd8b7",32,1
"3421",0,0,487,1,1,2,"1dbd8b7",33,1
"3521",1,1,377,2,2,2,"1dbd8b7",34,1
"3621",1,1,577,1,1,2,"1dbd8b7",35,1
"3721",0,1,638,6,1,2,"1dbd8b7",36,1
"3821",1,1,316,6,6,2,"1dbd8b7",37,1
"3921",1,1,360,3,3,2,"1dbd8b7",38,1
"4021",1,1,317,5,5,2,"1dbd8b7",39,1
"4125",1,0,457,4,1,2,"1dbd8b7",40,1
"4223",1,0,322,1,2,2,"1dbd8b7",41,1
"4321",0,1,363,5,1,2,"1dbd8b7",42,1
"4421",1,1,377,4,4,2,"1dbd8b7",43,1
"4521",0,1,588,3,1,2,"1dbd8b7",44,1
"4621",1,0,489,1,5,2,"1dbd8b7",45,1
"4721",1,0,295,1,2,2,"1dbd8b7",46,1
"4821",1,0,365,3,1,2,"1dbd8b7",47,1
"4921",0,1,481,1,6,2,"1dbd8b7",48,1
"5021",0,0,294,6,6,2,"1dbd8b7",49,1
"5125",1,1,567,4,4,2,"1dbd8b7",50,1
"5223",0,0,491,2,2,2,"1dbd8b7",51,1
"5321",0,1,544,1,4,2,"1dbd8b7",52,1
"5421",0,0,302,3,3,2,"1dbd8b7",53,1
"5521",1,1,567,5,5,2,"1dbd8b7",54,1
"5621",0,0,442,1,1,2,"1dbd8b7",55,1
"5721",1,1,342,2,2,2,"1dbd8b7",56,1
"5821",1,1,394,1,1,2,"1dbd8b7",57,1
"5921",0,0,325,4,4,2,"1dbd8b7",58,1
"6021",1,0,421,1,4,2,"1dbd8b7",59,1
"6125",1,0,452,2,1,2,"1dbd8b7",60,1
"6223",1,1,913,5,5,2,"1dbd8b7",61,1
"6321",1,0,453,1,5,2,"1dbd8b7",62,1
"6421",1,0,358,3,1,2,"1dbd8b7",63,1
"6521",0,1,519,1,6,2,"1dbd8b7",64,1
"6621",1,1,365,3,3,2,"1dbd8b7",65,1
"6721",1,1,433,6,6,2,"1dbd8b7",66,1
"6821",0,1,543,4,1,2,"1dbd8b7",67,1
"6921",1,1,385,1,1,2,"1dbd8b7",68,1
"7021",0,1,1130,6,1,2,"1dbd8b7",69,1
"7125",1,1,426,3,3,2,"1dbd8b7",70,1
"7222",1,0,334,1,2,2,"1dbd8b7",71,1
"7321",1,0,612,1,3,2,"1dbd8b7",72,1
"7421",1,1,428,5,5,2,"1dbd8b7",73,1
"7521",1,1,356,4,4,2,"1dbd8b7",74,1
"7621",1,1,464,2,2,2,"1dbd8b7",75,1
"7721",0,1,568,5,1,2,"1dbd8b7",76,1
"7821",1,1,434,6,6,2,"1dbd8b7",77,1
"2107",-1,-1,0,1,1,2,"14db6f7",1,1
"3107",1,1,856,4,4,2,"14db6f7",2,1
"4106",1,0,423,3,1,2,"14db6f7",3,1
"5106",1,0,387,1,4,2,"14db6f7",4,1
"6106",1,1,818,6,6,2,"14db6f7",5,1
"797",1,0,463,1,5,2,"14db6f7",6,1
"822",1,1,1848,2,2,2,"14db6f7",7,1
"922",1,1,1464,3,3,2,"14db6f7",8,1
"1022",1,1,983,5,5,2,"14db6f7",9,1
"1122",0,1,309,6,1,2,"14db6f7",10,1
"1222",0,1,306,2,1,2,"14db6f7",11,1
"1322",1,1,295,5,5,2,"14db6f7",12,1
"1422",1,1,551,3,3,2,"14db6f7",13,1
"1522",1,1,437,1,1,2,"14db6f7",14,1
"1622",0,1,902,1,3,2,"14db6f7",15,1
"1722",1,1,833,4,4,2,"14db6f7",16,1
"1822",0,1,895,2,1,2,"14db6f7",17,1
"1922",0,1,142,5,1,2,"14db6f7",18,1
"2022",0,1,412,1,4,2,"14db6f7",19,1
"2126",1,1,394,2,2,2,"14db6f7",20,1
"2224",1,1,455,6,6,2,"14db6f7",21,1
"2322",0,1,387,1,6,2,"14db6f7",22,1
"2422",1,1,948,6,6,2,"14db6f7",23,1
"2522",0,1,658,4,1,2,"14db6f7",24,1
"2622",0,1,463,5,1,2,"14db6f7",25,1
"2722",1,1,427,3,3,2,"14db6f7",26,1
"2822",1,0,329,2,1,2,"14db6f7",27,1
"2922",1,1,329,1,1,2,"14db6f7",28,1
"3022",1,1,471,2,2,2,"14db6f7",29,1
"3126",1,1,375,5,5,2,"14db6f7",30,1
"3224",0,1,678,6,1,2,"14db6f7",31,1
"3322",1,1,1443,4,4,2,"14db6f7",32,1
"3422",0,1,825,3,1,2,"14db6f7",33,1
"3522",1,1,440,5,5,2,"14db6f7",34,1
"3622",0,1,726,5,1,2,"14db6f7",35,1
"3722",0,1,1300,2,1,2,"14db6f7",36,1
"3822",0,1,512,6,1,2,"14db6f7",37,1
"3922",1,1,429,2,2,2,"14db6f7",38,1
"4022",0,1,410,1,3,2,"14db6f7",39,1
"4126",1,1,483,4,4,2,"14db6f7",40,1
"4224",0,1,516,4,1,2,"14db6f7",41,1
"4322",1,1,354,1,1,2,"14db6f7",42,1
"4422",1,1,258,3,3,2,"14db6f7",43,1
"4522",1,1,400,6,6,2,"14db6f7",44,1
"4622",1,1,399,3,3,2,"14db6f7",45,1
"4722",0,1,656,1,3,2,"14db6f7",46,1
"4822",1,1,365,4,4,2,"14db6f7",47,1
"4922",1,1,710,2,2,2,"14db6f7",48,1
"5022",0,1,886,1,2,2,"14db6f7",49,1
"5126",1,1,403,1,1,2,"14db6f7",50,1
"5224",0,1,850,1,6,2,"14db6f7",51,1
"5322",1,1,507,5,5,2,"14db6f7",52,1
"5422",0,1,569,1,5,2,"14db6f7",53,1
"5522",0,1,647,1,4,2,"14db6f7",54,1
"5622",1,1,292,6,6,2,"14db6f7",55,1
"5722",0,1,530,1,6,2,"14db6f7",56,1
"5822",1,1,1039,5,5,2,"14db6f7",57,1
"5922",0,1,362,1,3,2,"14db6f7",58,1
"6022",1,1,130,2,2,2,"14db6f7",59,1
"6126",0,1,191,4,1,2,"14db6f7",60,1
"6224",1,1,221,4,4,2,"14db6f7",61,1
"6322",1,1,332,1,1,2,"14db6f7",62,1
"6422",1,1,892,6,6,2,"14db6f7",63,1
"6522",0,1,710,2,1,2,"14db6f7",64,1
"6622",1,1,118,3,3,2,"14db6f7",65,1
"6722",0,1,191,5,1,2,"14db6f7",66,1
"6822",0,1,207,1,3,2,"14db6f7",67,1
"6922",0,1,380,1,5,2,"14db6f7",68,1
"7022",1,1,363,1,1,2,"14db6f7",69,1
"7126",0,1,297,4,1,2,"14db6f7",70,1
"7223",1,1,409,5,5,2,"14db6f7",71,1
"7322",0,1,115,1,6,2,"14db6f7",72,1
"7422",1,1,299,2,2,2,"14db6f7",73,1
"7522",1,1,442,6,6,2,"14db6f7",74,1
"7622",0,1,662,1,2,2,"14db6f7",75,1
"7722",1,1,180,3,3,2,"14db6f7",76,1
"7822",1,1,17,4,4,2,"14db6f7",77,1
"2108",0,0,733,4,4,2,"166ce65",1,1
"3108",0,1,299,5,1,2,"166ce65",2,1
"4107",1,1,297,5,5,2,"166ce65",3,1
"5107",0,0,279,1,1,2,"166ce65",4,1
"6107",1,1,350,3,3,2,"166ce65",5,1
"798",0,1,328,4,1,2,"166ce65",6,1
"823",1,1,284,2,2,2,"166ce65",7,1
"923",0,1,616,1,3,2,"166ce65",8,1
"1023",0,1,280,2,1,2,"166ce65",9,1
"1123",0,1,322,6,1,2,"166ce65",10,1
"1223",1,1,293,6,6,2,"166ce65",11,1
"1323",0,1,246,1,5,2,"166ce65",12,1
"1423",1,1,276,3,3,2,"166ce65",13,1
"1523",1,0,354,2,1,2,"166ce65",14,1
"1623",0,1,259,1,6,2,"166ce65",15,1
"1723",1,1,531,4,4,2,"166ce65",16,1
"1823",0,1,234,1,4,2,"166ce65",17,1
"1923",1,1,289,1,1,2,"166ce65",18,1
"2023",0,1,267,3,1,2,"166ce65",19,1
"2127",1,1,307,2,2,2,"166ce65",20,1
"2225",1,1,346,6,6,2,"166ce65",21,1
"2323",1,1,234,5,5,2,"166ce65",22,1
"2423",1,0,269,1,2,2,"166ce65",23,1
"2523",0,1,252,4,1,2,"166ce65",24,1
"2623",1,1,366,1,1,2,"166ce65",25,1
"2723",0,1,255,1,3,2,"166ce65",26,1
"2823",0,1,287,6,1,2,"166ce65",27,1
"2923",0,0,119,6,6,2,"166ce65",28,1
"3023",0,1,461,1,5,2,"166ce65",29,1
"3127",1,1,260,4,4,2,"166ce65",30,1
"3225",1,1,313,5,5,2,"166ce65",31,1
"3323",1,1,301,2,2,2,"166ce65",32,1
"3423",1,1,317,3,3,2,"166ce65",33,1
"3523",1,1,263,3,3,2,"166ce65",34,1
"3623",1,1,239,4,4,2,"166ce65",35,1
"3723",0,0,280,5,5,2,"166ce65",36,1
"3823",0,1,321,1,2,2,"166ce65",37,1
"3923",1,1,336,2,2,2,"166ce65",38,1
"4023",0,1,206,1,6,2,"166ce65",39,1
"4127",0,1,274,1,3,2,"166ce65",40,1
"4225",1,1,345,1,1,2,"166ce65",41,1
"4323",0,1,348,5,1,2,"166ce65",42,1
"4423",1,1,391,6,6,2,"166ce65",43,1
"4523",0,1,296,4,1,2,"166ce65",44,1
"4623",1,1,374,1,1,2,"166ce65",45,1
"4723",1,0,282,2,1,2,"166ce65",46,1
"4823",0,1,434,5,1,2,"166ce65",47,1
"4923",1,1,311,4,4,2,"166ce65",48,1
"5023",1,1,324,2,2,2,"166ce65",49,1
"5127",0,1,258,1,4,2,"166ce65",50,1
"5225",1,1,331,3,3,2,"166ce65",51,1
"5323",1,1,287,6,6,2,"166ce65",52,1
"5423",0,1,1273,3,1,2,"166ce65",53,1
"5523",1,1,245,5,5,2,"166ce65",54,1
"5623",0,1,664,6,1,2,"166ce65",55,1
"5723",0,1,293,1,5,2,"166ce65",56,1
"5823",1,1,384,2,2,2,"166ce65",57,1
"5923",0,1,251,1,3,2,"166ce65",58,1
"6023",0,1,294,6,1,2,"166ce65",59,1
"6127",1,1,266,4,4,2,"166ce65",60,1
"6225",1,1,266,6,6,2,"166ce65",61,1
"6323",1,1,295,3,3,2,"166ce65",62,1
"6423",1,1,99,1,1,2,"166ce65",63,1
"6523",0,1,333,4,1,2,"166ce65",64,1
"6623",0,1,366,1,2,2,"166ce65",65,1
"6723",1,1,951,5,5,2,"166ce65",66,1
"6823",1,1,242,2,2,2,"166ce65",67,1
"6923",0,1,498,3,1,2,"166ce65",68,1
"7023",0,1,236,6,1,2,"166ce65",69,1
"7127",1,1,275,6,6,2,"166ce65",70,1
"7224",0,0,748,3,3,2,"166ce65",71,1
"7323",0,1,262,4,1,2,"166ce65",72,1
"7423",1,0,121,1,2,2,"166ce65",73,1
"7523",0,1,284,5,1,2,"166ce65",74,1
"7623",0,0,276,5,5,2,"166ce65",75,1
"7723",1,1,257,1,1,2,"166ce65",76,1
"7823",1,1,235,4,4,2,"166ce65",77,1
"2109",1,0,277,1,3,1,"1e9e03e",1,1
"3109",1,0,268,1,5,1,"1e9e03e",2,1
"4108",0,0,89,6,6,1,"1e9e03e",3,1
"5108",1,0,84,1,2,1,"1e9e03e",4,1
"6108",1,1,151,1,1,1,"1e9e03e",5,1
"799",1,0,236,1,4,1,"1e9e03e",6,1
"824",1,1,79,4,4,1,"1e9e03e",7,1
"924",1,1,184,3,3,1,"1e9e03e",8,1
"1024",1,1,545,2,2,1,"1e9e03e",9,1
"1124",1,1,514,5,5,1,"1e9e03e",10,1
"1224",1,0,31,6,1,1,"1e9e03e",11,1
"1324",0,1,538,1,6,1,"1e9e03e",12,1
"1424",1,1,179,1,1,1,"1e9e03e",13,1
"1524",0,1,278,1,3,1,"1e9e03e",14,1
"1624",1,1,338,3,3,1,"1e9e03e",15,1
"1724",1,1,1414,2,2,1,"1e9e03e",16,1
"1824",0,1,59,5,1,1,"1e9e03e",17,1
"1924",1,1,508,5,5,1,"1e9e03e",18,1
"2024",0,1,482,1,4,1,"1e9e03e",19,1
"2128",1,0,890,1,2,1,"1e9e03e",20,1
"2226",1,1,428,4,4,1,"1e9e03e",21,1
"2324",1,1,162,6,6,1,"1e9e03e",22,1
"2424",1,0,81,2,1,1,"1e9e03e",23,1
"2524",1,1,711,3,3,1,"1e9e03e",24,1
"2624",0,1,400,4,1,1,"1e9e03e",25,1
"2724",1,1,1718,2,2,1,"1e9e03e",26,1
"2824",1,1,680,5,5,1,"1e9e03e",27,1
"2924",1,1,211,6,6,1,"1e9e03e",28,1
"3024",0,1,26,3,1,1,"1e9e03e",29,1
"3128",1,0,612,6,1,1,"1e9e03e",30,1
"3226",1,1,182,4,4,1,"1e9e03e",31,1
"3324",0,1,52,1,5,1,"1e9e03e",32,1
"3424",0,0,238,1,1,1,"1e9e03e",33,1
"3524",0,1,444,6,1,1,"1e9e03e",34,1
"3624",0,0,245,4,4,1,"1e9e03e",35,1
"3724",1,1,61,1,1,1,"1e9e03e",36,1
"3824",0,1,172,1,2,1,"1e9e03e",37,1
"3924",0,1,388,1,4,1,"1e9e03e",38,1
"4024",1,1,190,6,6,1,"1e9e03e",39,1
"4128",0,1,69,1,5,1,"1e9e03e",40,1
"4226",1,1,240,3,3,1,"1e9e03e",41,1
"4324",1,1,536,5,5,1,"1e9e03e",42,1
"4424",0,1,337,3,1,1,"1e9e03e",43,1
"4524",1,1,736,2,2,1,"1e9e03e",44,1
"4624",1,1,608,6,6,1,"1e9e03e",45,1
"4724",1,1,176,3,3,1,"1e9e03e",46,1
"4824",0,1,48,6,1,1,"1e9e03e",47,1
"4924",1,1,306,2,2,1,"1e9e03e",48,1
"5024",0,1,236,1,5,1,"1e9e03e",49,1
"5128",1,1,609,1,1,1,"1e9e03e",50,1
"5226",1,1,199,4,4,1,"1e9e03e",51,1
"5324",0,1,305,3,1,1,"1e9e03e",52,1
"5424",1,1,606,5,5,1,"1e9e03e",53,1
"5524",-1,-1,0,4,1,1,"1e9e03e",54,1
"5624",1,0,1499,1,2,1,"1e9e03e",55,1
"5724",0,0,84,5,5,1,"1e9e03e",56,1
"5824",0,1,358,1,5,1,"1e9e03e",57,1
"5924",0,1,126,3,1,1,"1e9e03e",58,1
"6024",0,1,253,6,1,1,"1e9e03e",59,1
"6128",0,1,373,1,4,1,"1e9e03e",60,1
"6226",1,1,230,6,6,1,"1e9e03e",61,1
"6324",1,1,190,3,3,1,"1e9e03e",62,1
"6424",1,0,321,1,2,1,"1e9e03e",63,1
"6524",0,0,378,1,1,1,"1e9e03e",64,1
"6624",1,1,164,2,2,1,"1e9e03e",65,1
"6724",1,1,644,4,4,1,"1e9e03e",66,1
"6824",1,1,509,3,3,1,"1e9e03e",67,1
"6924",0,1,567,1,4,1,"1e9e03e",68,1
"7024",1,1,260,6,6,1,"1e9e03e",69,1
"7128",0,1,496,1,5,1,"1e9e03e",70,1
"7225",1,1,318,2,2,1,"1e9e03e",71,1
"7324",0,0,630,4,4,1,"1e9e03e",72,1
"7424",1,0,920,2,1,1,"1e9e03e",73,1
"7524",0,0,225,5,5,1,"1e9e03e",74,1
"7624",0,1,254,1,3,1,"1e9e03e",75,1
"7724",1,1,543,1,1,1,"1e9e03e",76,1
"7824",1,0,769,1,6,1,"1e9e03e",77,1
"2129",1,0,1188,1,2,2,"1a8c567",1,1
"3129",1,1,1138,4,4,2,"1a8c567",2,1
"4109",1,1,380,2,2,2,"1a8c567",3,1
"5109",1,0,373,1,5,2,"1a8c567",4,1
"6109",1,1,359,6,6,2,"1a8c567",5,1
"7100",0,1,401,1,4,2,"1a8c567",6,1
"825",1,0,348,6,1,2,"1a8c567",7,1
"925",0,1,1196,1,3,2,"1a8c567",8,1
"1025",0,0,366,5,5,2,"1a8c567",9,1
"1125",1,1,424,3,3,2,"1a8c567",10,1
"1225",0,0,489,1,1,2,"1a8c567",11,1
"1325",1,0,443,1,2,2,"1a8c567",12,1
"1425",0,1,484,1,6,2,"1a8c567",13,1
"1525",1,1,620,1,1,2,"1a8c567",14,1
"1625",0,0,414,5,5,2,"1a8c567",15,1
"1725",1,1,512,3,3,2,"1a8c567",16,1
"1825",0,0,409,6,6,2,"1a8c567",17,1
"1925",1,0,755,1,3,2,"1a8c567",18,1
"2025",0,0,420,2,2,2,"1a8c567",19,1
"2130",1,0,310,5,1,2,"1a8c567",20,1
"2227",-1,-1,0,4,4,2,"1a8c567",21,1
"2325",1,0,360,1,4,2,"1a8c567",22,1
"2425",1,1,1890,2,2,2,"1a8c567",23,1
"2525",1,1,1923,3,3,2,"1a8c567",24,1
"2625",1,0,581,1,3,2,"1a8c567",25,1
"2725",0,0,303,4,4,2,"1a8c567",26,1
"2825",1,0,224,1,5,2,"1a8c567",27,1
"2925",-1,-1,0,4,1,2,"1a8c567",28,1
"3025",0,0,595,1,1,2,"1a8c567",29,1
"3130",-1,-1,0,5,5,2,"1a8c567",30,1
"3227",1,1,333,6,6,2,"1a8c567",31,1
"3325",0,1,1034,2,1,2,"1a8c567",32,1
"3425",0,1,648,6,1,2,"1a8c567",33,1
"3525",1,0,609,6,1,2,"1a8c567",34,1
"3625",1,0,523,1,5,2,"1a8c567",35,1
"3725",0,0,358,4,4,2,"1a8c567",36,1
"3825",1,0,342,3,1,2,"1a8c567",37,1
"3925",1,1,312,2,2,2,"1a8c567",38,1
"4025",1,1,569,1,1,2,"1a8c567",39,1
"4129",1,1,492,5,5,2,"1a8c567",40,1
"4227",1,0,484,1,4,2,"1a8c567",41,1
"4325",0,1,494,2,1,2,"1a8c567",42,1
"4425",0,0,879,6,6,2,"1a8c567",43,1
"4525",0,0,362,3,3,2,"1a8c567",44,1
"4625",1,1,322,5,5,2,"1a8c567",45,1
"4725",1,0,363,2,1,2,"1a8c567",46,1
"4825",-1,-1,0,3,3,2,"1a8c567",47,1
"4925",1,0,494,1,5,2,"1a8c567",48,1
"5025",0,0,352,2,2,2,"1a8c567",49,1
"5129",1,1,394,4,4,2,"1a8c567",50,1
"5227",1,0,331,1,4,2,"1a8c567",51,1
"5325",0,1,468,6,1,2,"1a8c567",52,1
"5425",1,0,462,1,3,2,"1a8c567",53,1
"5525",0,0,584,1,1,2,"1a8c567",54,1
"5625",1,1,410,6,6,2,"1a8c567",55,1
"5725",1,0,666,1,2,2,"1a8c567",56,1
"5825",0,1,387,1,6,2,"1a8c567",57,1
"5925",0,0,398,4,4,2,"1a8c567",58,1
"6025",1,0,302,1,4,2,"1a8c567",59,1
"6129",0,0,552,5,5,2,"1a8c567",60,1
"6227",1,0,385,3,1,2,"1a8c567",61,1
"6325",0,0,1027,3,3,2,"1a8c567",62,1
"6425",-1,-1,0,5,1,2,"1a8c567",63,1
"6525",0,0,405,6,6,2,"1a8c567",64,1
"6625",1,1,352,1,1,2,"1a8c567",65,1
"6725",1,1,392,2,2,2,"1a8c567",66,1
"6825",1,1,755,2,2,2,"1a8c567",67,1
"6925",0,1,805,4,1,2,"1a8c567",68,1
"7025",0,0,180,5,5,2,"1a8c567",69,1
"7129",0,1,1000,1,3,2,"1a8c567",70,1
"7226",0,1,88,1,5,2,"1a8c567",71,1
"7325",1,0,1489,1,6,2,"1a8c567",72,1
"7425",0,0,443,6,6,2,"1a8c567",73,1
"7525",0,0,685,4,4,2,"1a8c567",74,1
"7625",0,0,22,3,3,2,"1a8c567",75,1
"7725",-1,-1,0,1,1,2,"1a8c567",76,1
"7825",0,1,729,1,2,2,"1a8c567",77,1
"2131",1,1,877,6,6,2,"153164e",1,1
"3131",1,1,661,1,1,2,"153164e",2,1
"4130",1,1,732,4,4,2,"153164e",3,1
"5130",1,0,342,6,1,2,"153164e",4,1
"6130",0,0,349,3,3,2,"153164e",5,1
"7101",1,0,362,2,1,2,"153164e",6,1
"826",0,1,343,5,1,2,"153164e",7,1
"926",0,1,301,1,4,2,"153164e",8,1
"1026",0,1,783,1,3,2,"153164e",9,1
"1126",1,1,335,5,5,2,"153164e",10,1
"1226",1,1,315,2,2,2,"153164e",11,1
"1326",1,1,372,3,3,2,"153164e",12,1
"1426",1,1,670,1,1,2,"153164e",13,1
"1526",1,1,288,4,4,2,"153164e",14,1
"1626",1,0,345,2,1,2,"153164e",15,1
"1726",0,1,426,6,1,2,"153164e",16,1
"1826",0,1,310,3,1,2,"153164e",17,1
"1926",0,1,479,5,1,2,"153164e",18,1
"2026",1,1,321,2,2,2,"153164e",19,1
"2132",1,1,460,5,5,2,"153164e",20,1
"2228",1,1,383,6,6,2,"153164e",21,1
"2326",0,1,327,1,4,2,"153164e",22,1
"2426",1,1,303,2,2,2,"153164e",23,1
"2526",0,1,530,3,1,2,"153164e",24,1
"2626",1,1,334,1,1,2,"153164e",25,1
"2726",1,0,290,1,2,2,"153164e",26,1
"2826",1,1,654,3,3,2,"153164e",27,1
"2926",1,1,486,4,4,2,"153164e",28,1
"3026",1,1,352,5,5,2,"153164e",29,1
"3132",0,1,370,1,6,2,"153164e",30,1
"3228",0,1,636,5,1,2,"153164e",31,1
"3326",1,1,278,6,6,2,"153164e",32,1
"3426",0,1,414,4,1,2,"153164e",33,1
"3526",0,1,462,1,4,2,"153164e",34,1
"3626",1,1,398,5,5,2,"153164e",35,1
"3726",1,1,729,3,3,2,"153164e",36,1
"3826",0,1,1265,3,1,2,"153164e",37,1
"3926",1,1,295,1,1,2,"153164e",38,1
"4026",1,1,698,6,6,2,"153164e",39,1
"4131",1,1,365,4,4,2,"153164e",40,1
"4228",1,1,879,2,2,2,"153164e",41,1
"4326",0,1,722,5,1,2,"153164e",42,1
"4426",1,0,336,2,1,2,"153164e",43,1
"4526",0,1,375,1,6,2,"153164e",44,1
"4626",1,1,459,6,6,2,"153164e",45,1
"4726",0,1,611,6,1,2,"153164e",46,1
"4826",0,1,418,1,5,2,"153164e",47,1
"4926",1,1,549,5,5,2,"153164e",48,1
"5026",1,1,559,1,1,2,"153164e",49,1
"5131",1,1,362,2,2,2,"153164e",50,1
"5228",0,1,607,1,3,2,"153164e",51,1
"5326",1,1,330,3,3,2,"153164e",52,1
"5426",0,1,311,1,4,2,"153164e",53,1
"5526",0,1,328,2,1,2,"153164e",54,1
"5626",1,1,346,4,4,2,"153164e",55,1
"5726",1,1,476,6,6,2,"153164e",56,1
"5826",1,1,559,2,2,2,"153164e",57,1
"5926",1,1,313,1,1,2,"153164e",58,1
"6026",1,1,350,5,5,2,"153164e",59,1
"6131",1,1,305,4,4,2,"153164e",60,1
"6228",0,1,325,1,3,2,"153164e",61,1
"6326",1,1,334,3,3,2,"153164e",62,1
"6426",1,0,393,2,1,2,"153164e",63,1
"6526",0,1,496,4,1,2,"153164e",64,1
"6626",0,1,571,5,1,2,"153164e",65,1
"6726",0,1,429,6,1,2,"153164e",66,1
"6826",0,1,373,5,1,2,"153164e",67,1
"6926",0,1,304,1,3,2,"153164e",68,1
"7026",0,1,672,4,1,2,"153164e",69,1
"7130",1,1,347,4,4,2,"153164e",70,1
"7227",1,1,322,2,2,2,"153164e",71,1
"7326",1,1,473,6,6,2,"153164e",72,1
"7426",1,1,713,1,1,2,"153164e",73,1
"7526",1,1,338,5,5,2,"153164e",74,1
"7626",0,1,299,1,6,2,"153164e",75,1
"7726",0,1,371,1,2,2,"153164e",76,1
"7826",1,1,595,3,3,2,"153164e",77,1
"2133",0,1,806,1,2,2,"itlooke",1,1
"3133",1,0,291,1,4,2,"itlooke",2,1
"4132",0,0,312,6,6,2,"itlooke",3,1
"5132",0,1,331,1,3,2,"itlooke",4,1
"6132",1,1,359,3,3,2,"itlooke",5,1
"7102",1,1,273,4,4,2,"itlooke",6,1
"827",0,1,308,5,1,2,"itlooke",7,1
"927",0,0,256,1,1,2,"itlooke",8,1
"1027",1,1,302,5,5,2,"itlooke",9,1
"1127",0,0,408,2,2,2,"itlooke",10,1
"1227",0,1,302,6,1,2,"itlooke",11,1
"1327",0,1,289,6,1,2,"itlooke",12,1
"1427",1,1,492,1,1,2,"itlooke",13,1
"1527",0,0,446,3,3,2,"itlooke",14,1
"1627",0,0,361,5,5,2,"itlooke",15,1
"1727",0,0,291,6,6,2,"itlooke",16,1
"1827",1,0,443,1,5,2,"itlooke",17,1
"1927",1,1,371,2,2,2,"itlooke",18,1
"2027",1,0,312,1,3,2,"itlooke",19,1
"2134",1,0,402,1,2,2,"itlooke",20,1
"2229",1,0,392,1,4,2,"itlooke",21,1
"2327",0,0,411,4,4,2,"itlooke",22,1
"2427",1,1,378,2,2,2,"itlooke",23,1
"2527",0,1,314,1,6,2,"itlooke",24,1
"2627",1,1,329,3,3,2,"itlooke",25,1
"2727",0,0,861,1,1,2,"itlooke",26,1
"2827",0,1,318,5,1,2,"itlooke",27,1
"2927",1,1,380,4,4,2,"itlooke",28,1
"3027",0,1,294,4,1,2,"itlooke",29,1
"3134",1,1,348,5,5,2,"itlooke",30,1
"3229",1,0,301,3,1,2,"itlooke",31,1
"3327",0,1,441,1,2,2,"itlooke",32,1
"3427",1,1,378,6,6,2,"itlooke",33,1
"3527",0,1,358,5,1,2,"itlooke",34,1
"3627",0,1,322,2,1,2,"itlooke",35,1
"3727",0,1,373,1,4,2,"itlooke",36,1
"3827",0,1,327,1,6,2,"itlooke",37,1
"3927",0,0,804,6,6,2,"itlooke",38,1
"4027",0,0,382,1,1,2,"itlooke",39,1
"4133",1,1,329,4,4,2,"itlooke",40,1
"4229",1,1,892,3,3,2,"itlooke",41,1
"4327",0,0,345,5,5,2,"itlooke",42,1
"4427",0,1,339,3,1,2,"itlooke",43,1
"4527",0,0,326,2,2,2,"itlooke",44,1
"4627",0,1,296,6,1,2,"itlooke",45,1
"4727",1,1,372,5,5,2,"itlooke",46,1
"4827",0,1,268,3,1,2,"itlooke",47,1
"4927",1,1,296,6,6,2,"itlooke",48,1
"5027",0,1,451,1,2,2,"itlooke",49,1
"5133",0,1,351,4,1,2,"itlooke",50,1
"5229",0,0,302,4,4,2,"itlooke",51,1
"5327",1,1,300,1,1,2,"itlooke",52,1
"5427",1,1,271,2,2,2,"itlooke",53,1
"5527",1,0,284,1,5,2,"itlooke",54,1
"5627",0,0,294,3,3,2,"itlooke",55,1
"5727",1,1,347,3,3,2,"itlooke",56,1
"5827",0,0,334,1,1,2,"itlooke",57,1
"5927",0,1,302,6,1,2,"itlooke",58,1
"6027",1,1,539,2,2,2,"itlooke",59,1
"6133",0,1,333,1,5,2,"itlooke",60,1
"6229",0,0,336,6,6,2,"itlooke",61,1
"6327",1,1,272,5,5,2,"itlooke",62,1
"6427",1,1,447,4,4,2,"itlooke",63,1
"6527",1,0,391,1,3,2,"itlooke",64,1
"6627",0,1,373,2,1,2,"itlooke",65,1
"6727",1,0,326,1,4,2,"itlooke",66,1
"6827",1,1,306,2,2,2,"itlooke",67,1
"6927",0,1,331,2,1,2,"itlooke",68,1
"7027",0,1,299,5,1,2,"itlooke",69,1
"7131",0,0,364,1,1,2,"itlooke",70,1
"7228",0,1,1295,1,3,2,"itlooke",71,1
"7327",0,0,401,3,3,2,"itlooke",72,1
"7427",1,1,903,4,4,2,"itlooke",73,1
"7527",1,1,337,6,6,2,"itlooke",74,1
"7627",1,1,343,5,5,2,"itlooke",75,1
"7727",0,1,288,4,1,2,"itlooke",76,1
"7827",0,1,292,1,6,2,"itlooke",77,1
"2135",0,1,1065,5,1,2,"17964d4",1,1
"3135",0,1,647,6,1,2,"17964d4",2,1
"4134",0,1,1576,2,1,2,"17964d4",3,1
"5134",0,1,1102,3,1,2,"17964d4",4,1
"6134",1,1,1166,5,5,2,"17964d4",5,1
"7103",1,1,549,2,2,2,"17964d4",6,1
"828",0,1,876,4,1,2,"17964d4",7,1
"928",1,1,898,4,4,2,"17964d4",8,1
"1028",1,1,1579,6,6,2,"17964d4",9,1
"1128",1,1,252,3,3,2,"17964d4",10,1
"1228",1,1,326,1,1,2,"17964d4",11,1
"1328",1,1,236,5,5,2,"17964d4",12,1
"1428",1,1,389,6,6,2,"17964d4",13,1
"1528",0,1,410,1,3,2,"17964d4",14,1
"1628",1,1,1059,3,3,2,"17964d4",15,1
"1728",1,1,450,1,1,2,"17964d4",16,1
"1828",0,1,975,2,1,2,"17964d4",17,1
"1928",0,1,432,1,6,2,"17964d4",18,1
"2028",-1,-1,0,1,4,2,"17964d4",19,1
"2136",1,1,821,2,2,2,"17964d4",20,1
"2230",1,1,355,4,4,2,"17964d4",21,1
"2328",0,1,736,5,1,2,"17964d4",22,1
"2428",1,1,760,3,3,2,"17964d4",23,1
"2528",1,1,782,6,6,2,"17964d4",24,1
"2628",0,1,1119,6,1,2,"17964d4",25,1
"2728",1,1,1119,2,2,2,"17964d4",26,1
"2828",1,1,737,1,1,2,"17964d4",27,1
"2928",-1,-1,0,4,4,2,"17964d4",28,1
"3028",-1,-1,0,5,5,2,"17964d4",29,1
"3136",-1,0,1603,1,2,2,"17964d4",30,1
"3230",-1,0,1027,1,3,2,"17964d4",31,1
"3328",-1,0,437,5,1,2,"17964d4",32,1
"3428",-1,0,924,4,1,2,"17964d4",33,1
"3528",-1,0,1357,3,3,2,"17964d4",34,1
"3628",-1,-1,0,6,6,2,"17964d4",35,1
"3728",0,0,1228,1,1,2,"17964d4",36,1
"3828",-1,-1,0,6,1,2,"17964d4",37,1
"3928",1,1,333,2,2,2,"17964d4",38,1
"4028",1,0,758,1,3,2,"17964d4",39,1
"4135",1,0,461,1,4,2,"17964d4",40,1
"4230",0,1,1157,2,1,2,"17964d4",41,1
"4328",-1,-1,0,4,4,2,"17964d4",42,1
"4428",1,1,620,5,5,2,"17964d4",43,1
"4528",1,0,1426,1,5,2,"17964d4",44,1
"4628",-1,-1,0,1,1,2,"17964d4",45,1
"4728",0,1,676,5,1,2,"17964d4",46,1
"4828",1,1,723,4,4,2,"17964d4",47,1
"4928",0,1,540,1,4,2,"17964d4",48,1
"5028",0,0,326,5,5,2,"17964d4",49,1
"5135",1,1,336,3,3,2,"17964d4",50,1
"5230",0,1,720,1,2,2,"17964d4",51,1
"5328",1,1,528,2,2,2,"17964d4",52,1
"5428",-1,-1,0,1,6,2,"17964d4",53,1
"5528",0,0,711,6,6,2,"17964d4",54,1
"5628",0,1,240,1,3,2,"17964d4",55,1
"5728",1,0,197,1,6,2,"17964d4",56,1
"5828",1,1,376,3,3,2,"17964d4",57,1
"5928",0,1,33,4,1,2,"17964d4",58,1
"6028",0,1,314,2,1,2,"17964d4",59,1
"6135",1,0,282,1,3,2,"17964d4",60,1
"6230",-1,-1,0,1,1,2,"17964d4",61,1
"6328",-1,-1,0,2,2,2,"17964d4",62,1
"6428",-1,-1,0,5,5,2,"17964d4",63,1
"6528",-1,-1,0,4,4,2,"17964d4",64,1
"6628",-1,-1,0,1,5,2,"17964d4",65,1
"6728",-1,-1,0,6,6,2,"17964d4",66,1
"6828",-1,-1,0,5,5,2,"17964d4",67,1
"6928",-1,-1,0,3,1,2,"17964d4",68,1
"7028",-1,-1,0,1,2,2,"17964d4",69,1
"7132",-1,-1,0,1,1,2,"17964d4",70,1
"7229",-1,-1,0,6,6,2,"17964d4",71,1
"7328",-1,-1,0,1,4,2,"17964d4",72,1
"7428",-1,-1,0,1,6,2,"17964d4",73,1
"7528",-1,-1,0,4,4,2,"17964d4",74,1
"7628",-1,-1,0,2,2,2,"17964d4",75,1
"7728",-1,-1,0,1,5,2,"17964d4",76,1
"7828",-1,-1,0,3,3,2,"17964d4",77,1
"2137",0,1,342,3,1,1,"1fb6b59",1,2
"3137",1,1,385,6,6,1,"1fb6b59",2,2
"4136",1,1,535,5,5,1,"1fb6b59",3,2
"5136",0,1,347,1,4,1,"1fb6b59",4,2
"6136",1,1,347,2,2,1,"1fb6b59",5,2
"7104",1,1,418,1,1,1,"1fb6b59",6,2
"829",1,1,536,3,3,1,"1fb6b59",7,2
"929",0,1,376,1,5,1,"1fb6b59",8,2
"1029",0,1,528,1,6,1,"1fb6b59",9,2
"1129",1,0,295,1,2,1,"1fb6b59",10,2
"1229",1,1,501,4,4,1,"1fb6b59",11,2
"1329",0,1,428,5,1,1,"1fb6b59",12,2
"1429",0,1,546,6,1,1,"1fb6b59",13,2
"1529",0,1,625,1,3,1,"1fb6b59",14,2
"1629",1,1,906,2,2,1,"1fb6b59",15,2
"1729",1,1,750,3,3,1,"1fb6b59",16,2
"1829",1,1,297,1,1,1,"1fb6b59",17,2
"1929",1,1,261,4,4,1,"1fb6b59",18,2
"2029",1,0,283,1,2,1,"1fb6b59",19,2
"2138",1,1,312,6,6,1,"1fb6b59",20,2
"2231",1,1,527,5,5,1,"1fb6b59",21,2
"2329",1,0,396,1,4,1,"1fb6b59",22,2
"2429",0,1,402,5,1,1,"1fb6b59",23,2
"2529",1,1,324,2,2,1,"1fb6b59",24,2
"2629",1,1,571,5,5,1,"1fb6b59",25,2
"2729",1,1,401,3,3,1,"1fb6b59",26,2
"2829",0,1,390,2,1,1,"1fb6b59",27,2
"2929",0,1,412,4,1,1,"1fb6b59",28,2
"3029",0,1,417,3,1,1,"1fb6b59",29,2
"3138",1,1,337,1,1,1,"1fb6b59",30,2
"3231",1,1,622,6,6,1,"1fb6b59",31,2
"3329",0,1,326,1,6,1,"1fb6b59",32,2
"3429",1,1,556,4,4,1,"1fb6b59",33,2
"3529",0,1,304,1,4,1,"1fb6b59",34,2
"3629",1,1,263,2,2,1,"1fb6b59",35,2
"3729",1,1,441,3,3,1,"1fb6b59",36,2
"3829",1,1,231,6,6,1,"1fb6b59",37,2
"3929",1,1,287,4,4,1,"1fb6b59",38,2
"4029",1,1,388,1,1,1,"1fb6b59",39,2
"4137",0,1,399,1,3,1,"1fb6b59",40,2
"4231",0,1,308,1,2,1,"1fb6b59",41,2
"4329",0,1,554,6,1,1,"1fb6b59",42,2
"4429",0,1,567,5,1,1,"1fb6b59",43,2
"4529",1,1,333,5,5,1,"1fb6b59",44,2
"4629",1,1,403,2,2,1,"1fb6b59",45,2
"4729",1,1,711,6,6,1,"1fb6b59",46,2
"4829",1,1,437,1,1,1,"1fb6b59",47,2
"4929",1,0,315,1,2,1,"1fb6b59",48,2
"5029",1,1,720,4,4,1,"1fb6b59",49,2
"5137",0,1,639,4,1,1,"1fb6b59",50,2
"5231",0,1,724,6,1,1,"1fb6b59",51,2
"5329",1,1,313,3,3,1,"1fb6b59",52,2
"5429",0,1,587,1,3,1,"1fb6b59",53,2
"5529",0,1,400,5,1,1,"1fb6b59",54,2
"5629",0,0,487,5,5,1,"1fb6b59",55,2
"5729",1,1,631,5,5,1,"1fb6b59",56,2
"5829",1,1,444,3,3,1,"1fb6b59",57,2
"5929",1,1,530,1,1,1,"1fb6b59",58,2
"6029",0,1,348,1,4,1,"1fb6b59",59,2
"6137",0,1,505,1,3,1,"1fb6b59",60,2
"6231",0,1,320,5,1,1,"1fb6b59",61,2
"6329",0,1,426,6,1,1,"1fb6b59",62,2
"6429",1,1,299,2,2,1,"1fb6b59",63,2
"6529",1,1,288,4,4,1,"1fb6b59",64,2
"6629",1,0,444,2,1,1,"1fb6b59",65,2
"6729",1,1,283,6,6,1,"1fb6b59",66,2
"6829",0,1,387,6,1,1,"1fb6b59",67,2
"6929",1,1,381,3,3,1,"1fb6b59",68,2
"7029",1,0,349,2,1,1,"1fb6b59",69,2
"7133",0,1,372,1,4,1,"1fb6b59",70,2
"7230",1,1,409,5,5,1,"1fb6b59",71,2
"7329",1,1,376,4,4,1,"1fb6b59",72,2
"7429",0,1,326,1,5,1,"1fb6b59",73,2
"7529",1,1,340,1,1,1,"1fb6b59",74,2
"7629",1,0,300,1,3,1,"1fb6b59",75,2
"7729",1,1,252,2,2,1,"1fb6b59",76,2
"7829",1,1,337,6,6,1,"1fb6b59",77,2
"2139",1,1,253,3,3,3,"154f8af",1,2
"3139",0,1,361,1,6,3,"154f8af",2,2
"4138",1,1,353,1,1,3,"154f8af",3,2
"5138",0,0,240,2,2,3,"154f8af",4,2
"6138",1,0,272,3,1,3,"154f8af",5,2
"7105",1,1,370,5,5,3,"154f8af",6,2
"830",1,0,223,1,2,3,"154f8af",7,2
"930",1,1,160,4,4,3,"154f8af",8,2
"1030",0,1,265,1,5,3,"154f8af",9,2
"1130",0,1,235,4,1,3,"154f8af",10,2
"1230",1,1,234,6,6,3,"154f8af",11,2
"1330",1,1,241,3,3,3,"154f8af",12,2
"1430",1,1,255,6,6,3,"154f8af",13,2
"1530",0,1,468,4,1,3,"154f8af",14,2
"1630",0,1,105,1,5,3,"154f8af",15,2
"1730",1,1,256,5,5,3,"154f8af",16,2
"1830",1,1,402,4,4,3,"154f8af",17,2
"1930",0,1,422,6,1,3,"154f8af",18,2
"2030",0,1,1972,3,1,3,"154f8af",19,2
"2140",0,1,513,1,2,3,"154f8af",20,2
"2232",1,1,111,1,1,3,"154f8af",21,2
"2330",1,1,927,2,2,3,"154f8af",22,2
"2430",1,1,29,4,4,3,"154f8af",23,2
"2530",1,1,266,3,3,3,"154f8af",24,2
"2630",0,1,294,1,5,3,"154f8af",25,2
"2730",0,1,254,4,1,3,"154f8af",26,2
"2830",1,0,313,1,2,3,"154f8af",27,2
"2930",1,1,203,6,6,3,"154f8af",28,2
"3030",1,1,424,5,5,3,"154f8af",29,2
"3140",1,1,255,1,1,3,"154f8af",30,2
"3232",0,1,40,1,3,3,"154f8af",31,2
"3330",1,1,352,2,2,3,"154f8af",32,2
"3430",0,1,13,6,1,3,"154f8af",33,2
"3530",1,1,368,4,4,3,"154f8af",34,2
"3630",0,1,354,4,1,3,"154f8af",35,2
"3730",1,1,113,3,3,3,"154f8af",36,2
"3830",1,0,125,1,2,3,"154f8af",37,2
"3930",1,1,235,1,1,3,"154f8af",38,2
"4030",0,1,164,3,1,3,"154f8af",39,2
"4139",1,1,276,2,2,3,"154f8af",40,2
"4232",1,1,339,6,6,3,"154f8af",41,2
"4330",1,1,234,5,5,3,"154f8af",42,2
"4430",0,1,170,1,5,3,"154f8af",43,2
"4530",0,1,308,6,1,3,"154f8af",44,2
"4630",1,1,296,2,2,3,"154f8af",45,2
"4730",1,1,281,6,6,3,"154f8af",46,2
"4830",1,1,233,3,3,3,"154f8af",47,2
"4930",0,1,431,4,1,3,"154f8af",48,2
"5030",1,1,268,5,5,3,"154f8af",49,2
"5139",1,0,186,2,1,3,"154f8af",50,2
"5232",0,1,605,1,6,3,"154f8af",51,2
"5330",0,1,366,1,5,3,"154f8af",52,2
"5430",1,0,281,1,3,3,"154f8af",53,2
"5530",1,1,282,1,1,3,"154f8af",54,2
"5630",1,1,128,4,4,3,"154f8af",55,2
"5730",1,1,669,1,1,3,"154f8af",56,2
"5830",1,1,221,4,4,3,"154f8af",57,2
"5930",0,1,330,5,1,3,"154f8af",58,2
"6030",1,0,442,3,1,3,"154f8af",59,2
"6139",1,1,263,5,5,3,"154f8af",60,2
"6232",0,1,284,1,6,3,"154f8af",61,2
"6330",1,0,248,2,1,3,"154f8af",62,2
"6430",1,1,180,3,3,3,"154f8af",63,2
"6530",0,1,246,1,4,3,"154f8af",64,2
"6630",1,1,315,2,2,3,"154f8af",65,2
"6730",1,1,241,6,6,3,"154f8af",66,2
"6830",1,0,347,1,2,3,"154f8af",67,2
"6930",1,1,1327,6,6,3,"154f8af",68,2
"7030",1,1,281,3,3,3,"154f8af",69,2
"7134",1,1,298,5,5,3,"154f8af",70,2
"7231",1,1,218,4,4,3,"154f8af",71,2
"7330",0,1,304,6,1,3,"154f8af",72,2
"7430",1,1,247,1,1,3,"154f8af",73,2
"7530",1,1,276,2,2,3,"154f8af",74,2
"7630",0,1,179,1,5,3,"154f8af",75,2
"7730",0,1,105,3,1,3,"154f8af",76,2
"7830",1,0,231,1,4,3,"154f8af",77,2
"2141",1,1,812,1,1,3,"1b9533d",1,2
"3141",1,1,468,4,4,3,"1b9533d",2,2
"4140",1,1,424,6,6,3,"1b9533d",3,2
"5140",1,1,371,5,5,3,"1b9533d",4,2
"6140",1,0,445,3,1,3,"1b9533d",5,2
"7106",1,1,358,3,3,3,"1b9533d",6,2
"831",1,0,520,1,2,3,"1b9533d",7,2
"931",1,0,453,1,5,3,"1b9533d",8,2
"1031",1,1,914,2,2,3,"1b9533d",9,2
"1131",1,0,534,6,1,3,"1b9533d",10,2
"1231",1,0,652,4,1,3,"1b9533d",11,2
"1331",0,0,613,2,2,3,"1b9533d",12,2
"1431",1,0,393,1,3,3,"1b9533d",13,2
"1531",0,1,468,4,1,3,"1b9533d",14,2
"1631",0,0,294,6,6,3,"1b9533d",15,2
"1731",0,0,641,5,5,3,"1b9533d",16,2
"1831",1,0,575,6,1,3,"1b9533d",17,2
"1931",1,0,269,1,5,3,"1b9533d",18,2
"2031",1,1,408,1,1,3,"1b9533d",19,2
"2142",1,1,1692,3,3,3,"1b9533d",20,2
"2233",1,0,300,2,1,3,"1b9533d",21,2
"2331",1,1,408,4,4,3,"1b9533d",22,2
"2431",1,0,564,1,5,3,"1b9533d",23,2
"2531",1,1,990,2,2,3,"1b9533d",24,2
"2631",1,1,357,6,6,3,"1b9533d",25,2
"2731",0,0,981,4,4,3,"1b9533d",26,2
"2831",1,0,1042,1,3,3,"1b9533d",27,2
"2931",1,1,619,3,3,3,"1b9533d",28,2
"3031",1,0,343,1,2,3,"1b9533d",29,2
"3142",1,0,487,4,1,3,"1b9533d",30,2
"3233",1,1,582,1,1,3,"1b9533d",31,2
"3331",0,1,962,1,6,3,"1b9533d",32,2
"3431",1,1,486,5,5,3,"1b9533d",33,2
"3531",1,1,601,2,2,3,"1b9533d",34,2
"3631",1,1,637,4,4,3,"1b9533d",35,2
"3731",0,0,980,1,1,3,"1b9533d",36,2
"3831",1,0,510,1,3,3,"1b9533d",37,2
"3931",1,1,391,5,5,3,"1b9533d",38,2
"4031",1,0,1081,1,5,3,"1b9533d",39,2
"4141",1,0,617,1,2,3,"1b9533d",40,2
"4233",1,1,953,3,3,3,"1b9533d",41,2
"4331",-1,-1,0,6,6,3,"1b9533d",42,2
"4431",1,0,542,1,6,3,"1b9533d",43,2
"4531",1,0,625,4,1,3,"1b9533d",44,2
"4631",1,1,467,4,4,3,"1b9533d",45,2
"4731",1,0,552,5,1,3,"1b9533d",46,2
"4831",1,0,624,4,1,3,"1b9533d",47,2
"4931",0,0,842,5,5,3,"1b9533d",48,2
"5031",1,0,455,1,6,3,"1b9533d",49,2
"5141",1,1,576,6,6,3,"1b9533d",50,2
"5233",1,0,656,3,1,3,"1b9533d",51,2
"5331",1,0,726,1,2,3,"1b9533d",52,2
"5431",1,1,438,1,1,3,"1b9533d",53,2
"5531",0,0,1216,2,2,3,"1b9533d",54,2
"5631",1,1,1474,3,3,3,"1b9533d",55,2
"5731",1,0,467,4,1,3,"1b9533d",56,2
"5831",0,0,489,1,1,3,"1b9533d",57,2
"5931",1,0,489,1,5,3,"1b9533d",58,2
"6031",1,1,455,5,5,3,"1b9533d",59,2
"6141",1,1,929,2,2,3,"1b9533d",60,2
"6233",1,1,326,3,3,3,"1b9533d",61,2
"6331",1,0,602,6,1,3,"1b9533d",62,2
"6431",1,0,367,3,1,3,"1b9533d",63,2
"6531",1,1,1058,6,6,3,"1b9533d",64,2
"6631",1,0,374,2,1,3,"1b9533d",65,2
"6731",1,1,425,4,4,3,"1b9533d",66,2
"6831",1,0,413,1,3,3,"1b9533d",67,2
"6931",1,1,401,5,5,3,"1b9533d",68,2
"7031",1,1,376,2,2,3,"1b9533d",69,2
"7135",0,1,818,1,4,3,"1b9533d",70,2
"7232",1,0,1781,2,1,3,"1b9533d",71,2
"7331",1,1,391,4,4,3,"1b9533d",72,2
"7431",1,1,613,3,3,3,"1b9533d",73,2
"7531",1,0,640,1,6,3,"1b9533d",74,2
"7631",1,1,459,6,6,3,"1b9533d",75,2
"7731",1,0,662,1,5,3,"1b9533d",76,2
"7831",1,1,394,1,1,3,"1b9533d",77,2
"2143",1,1,342,2,2,2,"1426285",1,2
"3143",1,1,226,6,6,2,"1426285",2,2
"4142",1,1,254,5,5,2,"1426285",3,2
"5142",0,0,238,1,1,2,"1426285",4,2
"6142",0,1,179,1,4,2,"1426285",5,2
"7107",0,1,233,6,1,2,"1426285",6,2
"832",0,1,225,1,5,2,"1426285",7,2
"932",1,1,228,4,4,2,"1426285",8,2
"1032",1,1,408,3,3,2,"1426285",9,2
"1132",0,1,492,1,2,2,"1426285",10,2
"1232",0,1,610,1,3,2,"1426285",11,2
"1332",0,1,230,5,1,2,"1426285",12,2
"1432",1,1,214,6,6,2,"1426285",13,2
"1532",1,0,363,2,1,2,"1426285",14,2
"1632",1,1,125,5,5,2,"1426285",15,2
"1732",0,1,220,4,1,2,"1426285",16,2
"1832",1,1,54,3,3,2,"1426285",17,2
"1932",0,1,218,3,1,2,"1426285",18,2
"2032",1,1,176,2,2,2,"1426285",19,2
"2144",1,1,200,1,1,2,"1426285",20,2
"2234",0,1,248,1,6,2,"1426285",21,2
"2332",1,1,106,4,4,2,"1426285",22,2
"2432",0,1,27,1,6,2,"1426285",23,2
"2532",1,1,437,3,3,2,"1426285",24,2
"2632",1,1,308,2,2,2,"1426285",25,2
"2732",0,1,161,1,3,2,"1426285",26,2
"2832",0,1,206,2,1,2,"1426285",27,2
"2932",0,1,80,1,5,2,"1426285",28,2
"3032",1,1,224,5,5,2,"1426285",29,2
"3144",1,1,272,4,4,2,"1426285",30,2
"3234",1,1,112,1,1,2,"1426285",31,2
"3332",0,1,284,1,4,2,"1426285",32,2
"3432",1,1,227,6,6,2,"1426285",33,2
"3532",0,1,289,5,1,2,"1426285",34,2
"3632",0,1,277,4,1,2,"1426285",35,2
"3732",1,1,537,6,6,2,"1426285",36,2
"3832",1,1,559,2,2,2,"1426285",37,2
"3932",1,1,226,3,3,2,"1426285",38,2
"4032",1,1,238,5,5,2,"1426285",39,2
"4143",1,1,270,1,1,2,"1426285",40,2
"4234",1,1,239,4,4,2,"1426285",41,2
"4332",0,1,434,1,6,2,"1426285",42,2
"4432",0,1,223,2,1,2,"1426285",43,2
"4532",0,1,166,1,3,2,"1426285",44,2
"4632",0,1,260,1,6,2,"1426285",45,2
"4732",1,1,202,4,4,2,"1426285",46,2
"4832",1,1,428,2,2,2,"1426285",47,2
"4932",0,1,643,1,5,2,"1426285",48,2
"5032",0,1,271,3,1,2,"1426285",49,2
"5143",0,1,263,1,2,2,"1426285",50,2
"5234",1,1,191,3,3,2,"1426285",51,2
"5332",1,1,379,1,1,2,"1426285",52,2
"5432",1,1,408,5,5,2,"1426285",53,2
"5532",0,0,112,6,6,2,"1426285",54,2
"5632",0,1,155,1,4,2,"1426285",55,2
"5732",1,1,45,5,5,2,"1426285",56,2
"5832",0,1,241,6,1,2,"1426285",57,2
"5932",1,1,440,2,2,2,"1426285",58,2
"6032",0,1,1157,1,2,2,"1426285",59,2
"6143",1,1,1217,3,3,2,"1426285",60,2
"6234",1,1,494,1,1,2,"1426285",61,2
"6332",0,1,287,1,4,2,"1426285",62,2
"6432",1,1,230,4,4,2,"1426285",63,2
"6532",1,0,209,1,3,2,"1426285",64,2
"6632",0,1,210,5,1,2,"1426285",65,2
"6732",1,1,220,6,6,2,"1426285",66,2
"6832",1,1,200,6,6,2,"1426285",67,2
"6932",1,1,235,1,1,2,"1426285",68,2
"7032",1,1,237,4,4,2,"1426285",69,2
"7136",1,1,57,3,3,2,"1426285",70,2
"7233",0,1,262,1,5,2,"1426285",71,2
"7332",0,1,231,1,2,2,"1426285",72,2
"7432",0,1,319,1,4,2,"1426285",73,2
"7532",1,1,165,2,2,2,"1426285",74,2
"7632",0,1,137,1,3,2,"1426285",75,2
"7732",1,1,216,5,5,2,"1426285",76,2
"7832",0,1,213,6,1,2,"1426285",77,2
"2145",1,1,664,5,5,3,"11c51fc",1,2
"3145",0,1,30,2,1,3,"11c51fc",2,2
"4144",0,0,247,2,2,3,"11c51fc",3,2
"5144",1,1,409,6,6,3,"11c51fc",4,2
"6144",0,1,33,1,3,3,"11c51fc",5,2
"7108",1,1,524,4,4,3,"11c51fc",6,2
"833",1,0,534,1,5,3,"11c51fc",7,2
"933",1,1,583,3,3,3,"11c51fc",8,2
"1033",1,1,376,1,1,3,"11c51fc",9,2
"1133",1,0,498,1,4,3,"11c51fc",10,2
"1233",0,1,1002,6,1,3,"11c51fc",11,2
"1333",1,1,456,2,2,3,"11c51fc",12,2
"1433",1,0,242,1,5,3,"11c51fc",13,2
"1533",1,1,523,3,3,3,"11c51fc",14,2
"1633",1,1,556,1,1,3,"11c51fc",15,2
"1733",0,1,558,4,1,3,"11c51fc",16,2
"1833",1,0,1807,2,1,3,"11c51fc",17,2
"1933",1,1,359,5,5,3,"11c51fc",18,2
"2033",0,1,233,3,1,3,"11c51fc",19,2
"2146",1,1,888,6,6,3,"11c51fc",20,2
"2235",1,1,1425,4,4,3,"11c51fc",21,2
"2333",0,1,388,1,6,3,"11c51fc",22,2
"2433",1,1,85,1,1,3,"11c51fc",23,2
"2533",1,0,285,2,1,3,"11c51fc",24,2
"2633",1,1,462,2,2,3,"11c51fc",25,2
"2733",0,1,464,1,6,3,"11c51fc",26,2
"2833",1,1,406,4,4,3,"11c51fc",27,2
"2933",1,1,49,5,5,3,"11c51fc",28,2
"3033",1,1,149,3,3,3,"11c51fc",29,2
"3146",1,1,1054,6,6,3,"11c51fc",30,2
"3235",0,1,1752,4,1,3,"11c51fc",31,2
"3333",0,1,106,5,1,3,"11c51fc",32,2
"3433",1,0,370,1,3,3,"11c51fc",33,2
"3533",1,1,276,1,1,3,"11c51fc",34,2
"3633",0,1,414,2,1,3,"11c51fc",35,2
"3733",1,1,462,2,2,3,"11c51fc",36,2
"3833",1,1,582,6,6,3,"11c51fc",37,2
"3933",1,1,584,3,3,3,"11c51fc",38,2
"4033",1,0,297,3,1,3,"11c51fc",39,2
"4145",0,1,627,5,1,3,"11c51fc",40,2
"4235",1,1,577,4,4,3,"11c51fc",41,2
"4333",1,0,347,6,1,3,"11c51fc",42,2
"4433",0,1,1820,4,1,3,"11c51fc",43,2
"4533",1,1,526,5,5,3,"11c51fc",44,2
"4633",1,0,789,1,6,3,"11c51fc",45,2
"4733",1,1,47,1,1,3,"11c51fc",46,2
"4833",1,1,56,4,4,3,"11c51fc",47,2
"4933",1,0,356,3,1,3,"11c51fc",48,2
"5033",0,1,100,1,2,3,"11c51fc",49,2
"5145",1,1,93,3,3,3,"11c51fc",50,2
"5235",1,1,342,6,6,3,"11c51fc",51,2
"5333",0,1,702,1,5,3,"11c51fc",52,2
"5433",1,1,431,2,2,3,"11c51fc",53,2
"5533",1,1,81,5,5,3,"11c51fc",54,2
"5633",0,1,637,1,4,3,"11c51fc",55,2
"5733",1,0,320,3,1,3,"11c51fc",56,2
"5833",1,1,407,4,4,3,"11c51fc",57,2
"5933",0,0,520,6,6,3,"11c51fc",58,2
"6033",1,1,19,2,2,3,"11c51fc",59,2
"6145",1,0,298,1,6,3,"11c51fc",60,2
"6235",1,1,747,1,1,3,"11c51fc",61,2
"6333",1,1,257,5,5,3,"11c51fc",62,2
"6433",0,1,305,1,5,3,"11c51fc",63,2
"6533",1,1,490,3,3,3,"11c51fc",64,2
"6633",1,0,60,1,2,3,"11c51fc",65,2
"6733",1,0,260,4,1,3,"11c51fc",66,2
"6833",0,1,118,5,1,3,"11c51fc",67,2
"6933",1,1,222,2,2,3,"11c51fc",68,2
"7033",1,1,414,5,5,3,"11c51fc",69,2
"7137",0,1,192,2,1,3,"11c51fc",70,2
"7234",1,1,120,1,1,3,"11c51fc",71,2
"7333",1,1,657,3,3,3,"11c51fc",72,2
"7433",0,0,343,6,6,3,"11c51fc",73,2
"7533",0,1,667,3,1,3,"11c51fc",74,2
"7633",1,1,615,4,4,3,"11c51fc",75,2
"7733",1,0,592,1,6,3,"11c51fc",76,2
"7833",0,1,298,1,4,3,"11c51fc",77,2
"2147",1,1,425,6,6,2,"1a559eb",1,2
"3147",0,1,467,1,4,2,"1a559eb",2,2
"4146",0,1,676,3,1,2,"1a559eb",3,2
"5146",0,1,332,1,6,2,"1a559eb",4,2
"6146",0,0,1768,2,2,2,"1a559eb",5,2
"7109",1,1,526,3,3,2,"1a559eb",6,2
"834",1,1,513,1,1,2,"1a559eb",7,2
"934",1,1,1156,4,4,2,"1a559eb",8,2
"1034",0,1,718,5,1,2,"1a559eb",9,2
"1134",0,0,786,5,5,2,"1a559eb",10,2
"1234",1,0,445,2,1,2,"1a559eb",11,2
"1334",1,0,561,4,1,2,"1a559eb",12,2
"1434",0,1,399,1,5,2,"1a559eb",13,2
"1534",1,1,672,6,6,2,"1a559eb",14,2
"1634",1,1,637,1,1,2,"1a559eb",15,2
"1734",1,1,581,3,3,2,"1a559eb",16,2
"1834",0,1,517,1,6,2,"1a559eb",17,2
"1934",1,0,451,2,1,2,"1a559eb",18,2
"2034",1,1,688,2,2,2,"1a559eb",19,2
"2148",1,1,858,5,5,2,"1a559eb",20,2
"2236",1,1,478,4,4,2,"1a559eb",21,2
"2334",1,0,736,3,1,2,"1a559eb",22,2
"2434",1,1,780,5,5,2,"1a559eb",23,2
"2534",0,1,395,1,6,2,"1a559eb",24,2
"2634",1,0,736,3,1,2,"1a559eb",25,2
"2734",1,1,545,6,6,2,"1a559eb",26,2
"2834",1,0,679,1,2,2,"1a559eb",27,2
"2934",0,1,556,1,4,2,"1a559eb",28,2
"3034",1,1,497,4,4,2,"1a559eb",29,2
"3148",1,1,1063,2,2,2,"1a559eb",30,2
"3236",1,1,1013,3,3,2,"1a559eb",31,2
"3334",0,1,531,1,5,2,"1a559eb",32,2
"3434",1,1,843,1,1,2,"1a559eb",33,2
"3534",1,1,512,6,6,2,"1a559eb",34,2
"3634",0,1,1092,3,1,2,"1a559eb",35,2
"3734",1,1,708,2,2,2,"1a559eb",36,2
"3834",1,1,569,1,1,2,"1a559eb",37,2
"3934",0,1,736,1,4,2,"1a559eb",38,2
"4034",0,1,471,2,1,2,"1a559eb",39,2
"4147",1,1,453,3,3,2,"1a559eb",40,2
"4236",1,1,447,5,5,2,"1a559eb",41,2
"4334",0,1,599,6,1,2,"1a559eb",42,2
"4434",0,1,465,5,1,2,"1a559eb",43,2
"4534",0,0,563,4,4,2,"1a559eb",44,2
"4634",1,1,657,1,1,2,"1a559eb",45,2
"4734",1,1,572,5,5,2,"1a559eb",46,2
"4834",1,1,408,4,4,2,"1a559eb",47,2
"4934",0,1,453,1,5,2,"1a559eb",48,2
"5034",1,1,493,6,6,2,"1a559eb",49,2
"5147",0,1,923,1,6,2,"1a559eb",50,2
"5236",1,0,390,2,1,2,"1a559eb",51,2
"5334",0,0,661,3,3,2,"1a559eb",52,2
"5434",0,1,466,3,1,2,"1a559eb",53,2
"5534",0,1,393,4,1,2,"1a559eb",54,2
"5634",0,0,1268,2,2,2,"1a559eb",55,2
"5734",0,1,420,4,1,2,"1a559eb",56,2
"5834",0,1,873,1,5,2,"1a559eb",57,2
"5934",0,1,453,1,6,2,"1a559eb",58,2
"6034",0,1,453,3,1,2,"1a559eb",59,2
"6147",1,1,457,5,5,2,"1a559eb",60,2
"6236",0,0,643,2,2,2,"1a559eb",61,2
"6334",1,0,434,1,2,2,"1a559eb",62,2
"6434",1,1,580,1,1,2,"1a559eb",63,2
"6534",1,1,508,6,6,2,"1a559eb",64,2
"6634",1,1,440,4,4,2,"1a559eb",65,2
"6734",1,1,649,3,3,2,"1a559eb",66,2
"6834",0,1,807,1,5,2,"1a559eb",67,2
"6934",0,1,400,4,1,2,"1a559eb",68,2
"7034",0,1,398,3,1,2,"1a559eb",69,2
"7138",1,1,575,6,6,2,"1a559eb",70,2
"7235",0,0,343,2,2,2,"1a559eb",71,2
"7334",1,0,369,2,1,2,"1a559eb",72,2
"7434",1,1,431,5,5,2,"1a559eb",73,2
"7534",1,1,700,1,1,2,"1a559eb",74,2
"7634",0,1,892,6,1,2,"1a559eb",75,2
"7734",-1,-1,0,4,4,2,"1a559eb",76,2
"7834",1,1,1169,3,3,2,"1a559eb",77,2
"2149",1,1,395,4,4,1,"12b7ed6",1,2
"3149",1,1,322,3,3,1,"12b7ed6",2,2
"4148",0,1,465,1,5,1,"12b7ed6",3,2
"5148",1,1,373,6,6,1,"12b7ed6",4,2
"6148",0,1,293,3,1,1,"12b7ed6",5,2
"7139",0,1,291,2,1,1,"12b7ed6",6,2
"835",0,1,325,4,1,1,"12b7ed6",7,2
"935",1,1,304,5,5,1,"12b7ed6",8,2
"1035",0,1,103,1,6,1,"12b7ed6",9,2
"1135",1,1,331,1,1,1,"12b7ed6",10,2
"1235",1,1,188,2,2,1,"12b7ed6",11,2
"1335",1,1,330,5,5,1,"12b7ed6",12,2
"1435",1,1,302,1,1,1,"12b7ed6",13,2
"1535",0,1,284,3,1,1,"12b7ed6",14,2
"1635",0,1,251,1,4,1,"12b7ed6",15,2
"1735",1,1,437,4,4,1,"12b7ed6",16,2
"1835",0,1,292,6,1,1,"12b7ed6",17,2
"1935",0,1,270,1,2,1,"12b7ed6",18,2
"2035",1,1,538,3,3,1,"12b7ed6",19,2
"2150",1,1,676,6,6,1,"12b7ed6",20,2
"2237",0,1,315,5,1,1,"12b7ed6",21,2
"2335",1,1,480,2,2,1,"12b7ed6",22,2
"2435",0,1,291,5,1,1,"12b7ed6",23,2
"2535",1,1,305,3,3,1,"12b7ed6",24,2
"2635",1,1,357,6,6,1,"12b7ed6",25,2
"2735",0,1,420,1,2,1,"12b7ed6",26,2
"2835",1,1,286,4,4,1,"12b7ed6",27,2
"2935",0,1,294,6,1,1,"12b7ed6",28,2
"3035",1,1,338,5,5,1,"12b7ed6",29,2
"3150",0,1,292,1,3,1,"12b7ed6",30,2
"3237",1,1,296,2,2,1,"12b7ed6",31,2
"3335",0,1,300,4,1,1,"12b7ed6",32,2
"3435",1,1,301,1,1,1,"12b7ed6",33,2
"3535",1,1,329,6,6,1,"12b7ed6",34,2
"3635",0,1,527,2,1,1,"12b7ed6",35,2
"3735",0,1,402,3,1,1,"12b7ed6",36,2
"3835",1,1,366,5,5,1,"12b7ed6",37,2
"3935",0,1,335,5,1,1,"12b7ed6",38,2
"4035",1,1,328,3,3,1,"12b7ed6",39,2
"4149",1,1,254,2,2,1,"12b7ed6",40,2
"4237",1,1,326,4,4,1,"12b7ed6",41,2
"4335",0,1,322,1,6,1,"12b7ed6",42,2
"4435",0,1,467,1,4,1,"12b7ed6",43,2
"4535",1,1,327,1,1,1,"12b7ed6",44,2
"4635",1,1,432,1,1,1,"12b7ed6",45,2
"4735",0,1,355,3,1,1,"12b7ed6",46,2
"4835",1,1,322,3,3,1,"12b7ed6",47,2
"4935",0,1,381,4,1,1,"12b7ed6",48,2
"5035",1,1,288,6,6,1,"12b7ed6",49,2
"5149",0,1,442,2,1,1,"12b7ed6",50,2
"5237",0,1,321,6,1,1,"12b7ed6",51,2
"5335",1,1,390,2,2,1,"12b7ed6",52,2
"5435",1,1,277,4,4,1,"12b7ed6",53,2
"5535",1,1,271,5,5,1,"12b7ed6",54,2
"5635",0,1,385,1,5,1,"12b7ed6",55,2
"5735",1,1,295,5,5,1,"12b7ed6",56,2
"5835",0,1,429,6,1,1,"12b7ed6",57,2
"5935",0,1,286,1,3,1,"12b7ed6",58,2
"6035",0,1,327,2,1,1,"12b7ed6",59,2
"6149",0,1,402,1,4,1,"12b7ed6",60,2
"6237",1,1,308,4,4,1,"12b7ed6",61,2
"6335",1,1,588,1,1,1,"12b7ed6",62,2
"6435",1,1,304,3,3,1,"12b7ed6",63,2
"6535",1,1,350,2,2,1,"12b7ed6",64,2
"6635",1,1,376,6,6,1,"12b7ed6",65,2
"6735",0,1,415,1,5,1,"12b7ed6",66,2
"6835",0,1,649,2,1,1,"12b7ed6",67,2
"6935",1,1,286,2,2,1,"12b7ed6",68,2
"7035",1,1,308,4,4,1,"12b7ed6",69,2
"7140",1,1,310,1,1,1,"12b7ed6",70,2
"7236",1,1,342,3,3,1,"12b7ed6",71,2
"7335",0,1,352,1,3,1,"12b7ed6",72,2
"7435",0,1,334,1,6,1,"12b7ed6",73,2
"7535",1,1,313,5,5,1,"12b7ed6",74,2
"7635",1,1,382,6,6,1,"12b7ed6",75,2
"7735",0,1,397,5,1,1,"12b7ed6",76,2
"7835",0,1,422,4,1,1,"12b7ed6",77,2
"2151",-1,-1,0,3,3,3,"5811e8d",1,2
"3151",1,0,1193,5,1,3,"5811e8d",2,2
"4150",1,1,429,4,4,3,"5811e8d",3,2
"5150",1,1,392,2,2,3,"5811e8d",4,2
"6150",1,0,659,2,1,3,"5811e8d",5,2
"7141",1,0,1009,1,6,3,"5811e8d",6,2
"836",1,1,289,6,6,3,"5811e8d",7,2
"936",1,0,621,4,1,3,"5811e8d",8,2
"1036",1,1,283,1,1,3,"5811e8d",9,2
"1136",1,0,814,3,1,3,"5811e8d",10,2
"1236",1,1,351,5,5,3,"5811e8d",11,2
"1336",1,1,323,4,4,3,"5811e8d",12,2
"1436",1,1,316,1,1,3,"5811e8d",13,2
"1536",1,0,701,6,1,3,"5811e8d",14,2
"1636",1,1,330,3,3,3,"5811e8d",15,2
"1736",1,0,324,3,1,3,"5811e8d",16,2
"1836",1,1,114,2,2,3,"5811e8d",17,2
"1936",1,1,380,6,6,3,"5811e8d",18,2
"2036",1,0,456,2,1,3,"5811e8d",19,2
"2152",1,1,347,5,5,3,"5811e8d",20,2
"2238",0,1,334,1,4,3,"5811e8d",21,2
"2336",0,1,398,1,5,3,"5811e8d",22,2
"2436",0,1,301,3,1,3,"5811e8d",23,2
"2536",0,0,374,5,5,3,"5811e8d",24,2
"2636",1,0,602,5,1,3,"5811e8d",25,2
"2736",0,1,727,1,4,3,"5811e8d",26,2
"2836",-1,-1,0,6,6,3,"5811e8d",27,2
"2936",1,1,1215,1,1,3,"5811e8d",28,2
"3036",1,1,316,4,4,3,"5811e8d",29,2
"3152",1,1,303,3,3,3,"5811e8d",30,2
"3238",1,0,283,1,2,3,"5811e8d",31,2
"3336",0,1,571,1,6,3,"5811e8d",32,2
"3436",1,1,523,2,2,3,"5811e8d",33,2
"3536",1,1,869,1,1,3,"5811e8d",34,2
