"","keys","accuracy","rt","Fimg","Simg","feature_index","subID","trialNum","run"
"2",1,1,582,1,1,3,"174496e",1,1
"3",1,1,336,5,5,3,"174496e",2,1
"4",1,0,338,3,1,3,"174496e",3,1
"5",1,0,317,4,1,3,"174496e",4,1
"6",1,1,444,6,6,3,"174496e",5,1
"7",1,1,334,3,3,3,"174496e",6,1
"8",1,0,464,2,1,3,"174496e",7,1
"9",1,0,316,1,6,3,"174496e",8,1
"10",1,0,275,5,1,3,"174496e",9,1
"11",0,0,245,2,2,3,"174496e",10,1
"12",1,1,282,4,4,3,"174496e",11,1
"13",1,0,262,3,1,3,"174496e",12,1
"14",1,1,64,3,3,3,"174496e",13,1
"15",0,0,276,6,6,3,"174496e",14,1
"16",0,0,422,4,4,3,"174496e",15,1
"17",1,0,331,1,2,3,"174496e",16,1
"18",1,1,327,2,2,3,"174496e",17,1
"19",1,0,312,1,4,3,"174496e",18,1
"20",0,0,294,5,5,3,"174496e",19,1
"21",0,1,277,1,5,3,"174496e",20,1
"22",0,1,302,6,1,3,"174496e",21,1
"23",1,1,350,1,1,3,"174496e",22,1
"24",1,1,261,6,6,3,"174496e",23,1
"25",1,0,303,3,1,3,"174496e",24,1
"26",0,0,290,1,1,3,"174496e",25,1
"27",1,1,340,3,3,3,"174496e",26,1
"28",1,0,269,1,2,3,"174496e",27,1
"29",1,1,337,4,4,3,"174496e",28,1
"30",0,1,260,4,1,3,"174496e",29,1
"31",1,0,238,1,5,3,"174496e",30,1
"32",0,1,294,1,6,3,"174496e",31,1
"33",1,1,255,2,2,3,"174496e",32,1
"34",1,1,300,5,5,3,"174496e",33,1
"35",0,0,292,1,1,3,"174496e",34,1
"36",0,1,313,4,1,3,"174496e",35,1
"37",0,0,261,5,5,3,"174496e",36,1
"38",1,1,243,3,3,3,"174496e",37,1
"39",1,1,309,2,2,3,"174496e",38,1
"40",0,1,232,1,6,3,"174496e",39,1
"41",1,0,297,1,3,3,"174496e",40,1
"42",0,1,272,1,2,3,"174496e",41,1
"43",1,1,336,4,4,3,"174496e",42,1
"44",0,1,280,1,5,3,"174496e",43,1
"45",1,1,380,6,6,3,"174496e",44,1
"46",0,1,289,1,4,3,"174496e",45,1
"47",0,1,354,1,5,3,"174496e",46,1
"48",1,1,756,3,3,3,"174496e",47,1
"49",1,1,318,6,6,3,"174496e",48,1
"50",1,1,533,5,5,3,"174496e",49,1
"51",0,1,330,1,3,3,"174496e",50,1
"52",1,1,320,1,1,3,"174496e",51,1
"53",1,0,449,2,1,3,"174496e",52,1
"54",1,1,333,4,4,3,"174496e",53,1
"55",1,1,370,2,2,3,"174496e",54,1
"56",0,1,317,1,6,3,"174496e",55,1
"57",0,1,283,1,2,3,"174496e",56,1
"58",1,1,371,6,6,3,"174496e",57,1
"59",1,1,312,3,3,3,"174496e",58,1
"60",0,1,474,1,4,3,"174496e",59,1
"61",1,1,453,2,2,3,"174496e",60,1
"62",0,1,352,6,1,3,"174496e",61,1
"63",1,1,616,5,5,3,"174496e",62,1
"64",1,1,470,4,4,3,"174496e",63,1
"65",0,1,290,5,1,3,"174496e",64,1
"66",1,0,282,1,3,3,"174496e",65,1
"67",1,1,393,1,1,3,"174496e",66,1
"68",1,1,397,4,4,3,"174496e",67,1
"69",1,1,546,5,5,3,"174496e",68,1
"70",1,1,506,2,2,3,"174496e",69,1
"71",0,1,519,4,1,3,"174496e",70,1
"72",1,1,285,6,6,3,"174496e",71,1
"73",0,1,292,1,5,3,"174496e",72,1
"74",0,1,434,2,1,3,"174496e",73,1
"75",0,1,389,6,1,3,"174496e",74,1
"76",1,1,393,3,3,3,"174496e",75,1
"77",1,1,281,1,1,3,"174496e",76,1
"78",0,1,310,3,1,3,"174496e",77,1
"210",1,0,700,5,1,2,"1756f5f",1,1
"310",0,1,684,6,1,2,"1756f5f",2,1
"410",1,1,535,3,3,2,"1756f5f",3,1
"510",0,1,667,3,1,2,"1756f5f",4,1
"610",1,0,1223,2,1,2,"1756f5f",5,1
"79",0,1,886,1,4,2,"1756f5f",6,1
"81",1,1,597,1,1,2,"1756f5f",7,1
"91",0,0,615,4,4,2,"1756f5f",8,1
"101",1,1,620,5,5,2,"1756f5f",9,1
"111",1,1,545,2,2,2,"1756f5f",10,1
"121",1,1,56,6,6,2,"1756f5f",11,1
"131",1,1,508,1,1,2,"1756f5f",12,1
"141",1,1,797,6,6,2,"1756f5f",13,1
"151",1,1,493,4,4,2,"1756f5f",14,1
"161",1,1,678,3,3,2,"1756f5f",15,1
"171",0,1,548,5,1,2,"1756f5f",16,1
"181",0,1,429,1,4,2,"1756f5f",17,1
"191",1,1,330,2,2,2,"1756f5f",18,1
"201",1,0,448,2,1,2,"1756f5f",19,1
"211",0,1,535,3,1,2,"1756f5f",20,1
"221",0,1,359,6,1,2,"1756f5f",21,1
"231",1,1,357,5,5,2,"1756f5f",22,1
"241",0,1,551,1,2,2,"1756f5f",23,1
"251",1,1,755,3,3,2,"1756f5f",24,1
"261",1,1,405,1,1,2,"1756f5f",25,1
"271",1,1,482,6,6,2,"1756f5f",26,1
"281",0,1,667,3,1,2,"1756f5f",27,1
"291",0,1,384,1,5,2,"1756f5f",28,1
"301",1,1,456,4,4,2,"1756f5f",29,1
"311",1,1,1404,5,5,2,"1756f5f",30,1
"321",0,1,649,4,1,2,"1756f5f",31,1
"331",0,0,458,2,2,2,"1756f5f",32,1
"341",0,1,706,6,1,2,"1756f5f",33,1
"351",1,1,367,3,3,2,"1756f5f",34,1
"361",1,1,401,4,4,2,"1756f5f",35,1
"371",0,1,478,6,1,2,"1756f5f",36,1
"381",0,1,556,3,1,2,"1756f5f",37,1
"391",0,1,651,1,5,2,"1756f5f",38,1
"401",0,1,440,1,2,2,"1756f5f",39,1
"411",1,1,387,5,5,2,"1756f5f",40,1
"421",1,1,408,6,6,2,"1756f5f",41,1
"431",1,1,480,2,2,2,"1756f5f",42,1
"441",0,0,408,1,1,2,"1756f5f",43,1
"451",0,1,582,4,1,2,"1756f5f",44,1
"461",0,1,425,3,1,2,"1756f5f",45,1
"471",0,1,545,2,1,2,"1756f5f",46,1
"481",0,0,715,4,4,2,"1756f5f",47,1
"491",1,1,708,3,3,2,"1756f5f",48,1
"501",1,1,599,2,2,2,"1756f5f",49,1
"511",0,1,1238,1,5,2,"1756f5f",50,1
"521",-1,-1,0,1,6,2,"1756f5f",51,1
"531",0,1,409,4,1,2,"1756f5f",52,1
"541",1,1,417,1,1,2,"1756f5f",53,1
"551",1,1,396,5,5,2,"1756f5f",54,1
"561",1,1,497,6,6,2,"1756f5f",55,1
"571",1,1,1042,3,3,2,"1756f5f",56,1
"581",1,1,765,5,5,2,"1756f5f",57,1
"591",0,1,563,1,4,2,"1756f5f",58,1
"601",1,1,515,2,2,2,"1756f5f",59,1
"611",0,1,336,1,5,2,"1756f5f",60,1
"621",1,1,555,4,4,2,"1756f5f",61,1
"631",0,0,606,1,1,2,"1756f5f",62,1
"641",0,1,369,1,6,2,"1756f5f",63,1
"651",1,1,384,6,6,2,"1756f5f",64,1
"661",1,0,936,2,1,2,"1756f5f",65,1
"671",1,0,488,1,3,2,"1756f5f",66,1
"681",1,1,416,6,6,2,"1756f5f",67,1
"691",0,1,697,5,1,2,"1756f5f",68,1
"701",1,1,367,1,1,2,"1756f5f",69,1
"711",1,1,691,4,4,2,"1756f5f",70,1
"721",1,1,357,5,5,2,"1756f5f",71,1
"731",0,1,440,2,1,2,"1756f5f",72,1
"741",0,1,1872,3,1,2,"1756f5f",73,1
"751",0,1,409,4,1,2,"1756f5f",74,1
"761",0,0,452,3,3,2,"1756f5f",75,1
"771",0,1,481,6,1,2,"1756f5f",76,1
"781",0,0,450,2,2,2,"1756f5f",77,1
"212",1,1,392,2,2,3,"172870b",1,1
"312",1,0,371,1,6,3,"172870b",2,1
"412",0,1,333,1,2,3,"172870b",3,1
"512",1,1,406,4,4,3,"172870b",4,1
"612",0,0,309,6,6,3,"172870b",5,1
"710",1,1,346,1,1,3,"172870b",6,1
"82",1,1,282,5,5,3,"172870b",7,1
"92",1,0,244,1,3,3,"172870b",8,1
"102",0,1,322,4,1,3,"172870b",9,1
"112",1,1,312,3,3,3,"172870b",10,1
"122",1,0,259,5,1,3,"172870b",11,1
"132",0,1,261,1,5,3,"172870b",12,1
"142",0,1,239,4,1,3,"172870b",13,1
"152",1,0,220,2,1,3,"172870b",14,1
"162",1,1,451,6,6,3,"172870b",15,1
"172",1,1,268,1,1,3,"172870b",16,1
"182",1,1,269,5,5,3,"172870b",17,1
"192",1,0,106,1,3,3,"172870b",18,1
"202",1,1,423,4,4,3,"172870b",19,1
"213",1,1,239,3,3,3,"172870b",20,1
"222",1,1,256,2,2,3,"172870b",21,1
"232",1,0,341,6,1,3,"172870b",22,1
"242",1,1,214,6,6,3,"172870b",23,1
"252",0,1,250,5,1,3,"172870b",24,1
"262",1,1,467,4,4,3,"172870b",25,1
"272",1,0,313,2,1,3,"172870b",26,1
"282",1,1,321,3,3,3,"172870b",27,1
"292",1,1,269,1,1,3,"172870b",28,1
"302",1,0,238,1,3,3,"172870b",29,1
"313",1,1,248,2,2,3,"172870b",30,1
"322",0,1,253,4,1,3,"172870b",31,1
"332",1,1,602,5,5,3,"172870b",32,1
"342",1,0,291,6,1,3,"172870b",33,1
"352",1,0,330,1,5,3,"172870b",34,1
"362",1,1,279,2,2,3,"172870b",35,1
"372",1,1,269,3,3,3,"172870b",36,1
"382",1,1,367,4,4,3,"172870b",37,1
"392",0,0,504,5,5,3,"172870b",38,1
"402",1,1,302,6,6,3,"172870b",39,1
"413",0,1,551,1,4,3,"172870b",40,1
"422",1,0,273,2,1,3,"172870b",41,1
"432",0,1,531,6,1,3,"172870b",42,1
"442",1,1,103,1,1,3,"172870b",43,1
"452",0,1,452,1,3,3,"172870b",44,1
"462",1,1,262,6,6,3,"172870b",45,1
"472",0,0,392,3,3,3,"172870b",46,1
"482",1,1,434,1,1,3,"172870b",47,1
"492",0,1,280,6,1,3,"172870b",48,1
"502",1,1,164,4,4,3,"172870b",49,1
"513",1,0,381,2,1,3,"172870b",50,1
"522",0,1,424,5,1,3,"172870b",51,1
"532",1,0,662,1,4,3,"172870b",52,1
"542",1,1,56,2,2,3,"172870b",53,1
"552",1,1,433,5,5,3,"172870b",54,1
"562",1,0,514,1,3,3,"172870b",55,1
"572",1,0,1360,1,4,3,"172870b",56,1
"582",1,0,267,1,5,3,"172870b",57,1
"592",1,1,288,5,5,3,"172870b",58,1
"602",1,1,314,3,3,3,"172870b",59,1
"613",1,1,309,1,1,3,"172870b",60,1
"622",1,0,1930,1,2,3,"172870b",61,1
"632",0,0,268,4,4,3,"172870b",62,1
"642",0,1,283,6,1,3,"172870b",63,1
"652",1,1,435,6,6,3,"172870b",64,1
"662",1,1,336,2,2,3,"172870b",65,1
"672",1,0,376,1,3,3,"172870b",66,1
"682",0,1,245,1,5,3,"172870b",67,1
"692",0,0,376,5,5,3,"172870b",68,1
"702",0,0,390,3,3,3,"172870b",69,1
"712",0,1,748,3,1,3,"172870b",70,1
"722",0,1,662,1,6,3,"172870b",71,1
"732",1,1,705,1,1,3,"172870b",72,1
"742",1,0,717,4,1,3,"172870b",73,1
"752",1,0,198,2,1,3,"172870b",74,1
"762",1,1,112,6,6,3,"172870b",75,1
"772",1,1,981,4,4,3,"172870b",76,1
"782",1,1,284,2,2,3,"172870b",77,1
"214",1,1,808,4,4,3,"1e5ffee",1,1
"314",1,0,639,3,1,3,"1e5ffee",2,1
"414",1,1,964,3,3,3,"1e5ffee",3,1
"514",1,0,457,5,1,3,"1e5ffee",4,1
"614",1,1,622,1,1,3,"1e5ffee",5,1
"713",1,1,452,2,2,3,"1e5ffee",6,1
"83",1,1,458,6,6,3,"1e5ffee",7,1
"93",1,1,432,5,5,3,"1e5ffee",8,1
"103",1,0,462,2,1,3,"1e5ffee",9,1
"113",0,1,467,6,1,3,"1e5ffee",10,1
"123",0,1,472,1,4,3,"1e5ffee",11,1
"133",0,1,390,1,6,3,"1e5ffee",12,1
"143",1,0,396,2,1,3,"1e5ffee",13,1
"153",0,1,368,4,1,3,"1e5ffee",14,1
"163",1,1,375,1,1,3,"1e5ffee",15,1
"173",1,1,508,6,6,3,"1e5ffee",16,1
"183",1,1,353,3,3,3,"1e5ffee",17,1
"193",1,1,390,5,5,3,"1e5ffee",18,1
"203",0,1,476,5,1,3,"1e5ffee",19,1
"215",1,1,385,2,2,3,"1e5ffee",20,1
"223",1,0,367,3,1,3,"1e5ffee",21,1
"233",1,1,357,4,4,3,"1e5ffee",22,1
"243",1,1,402,5,5,3,"1e5ffee",23,1
"253",0,1,344,6,1,3,"1e5ffee",24,1
"263",1,1,469,4,4,3,"1e5ffee",25,1
"273",0,1,538,1,5,3,"1e5ffee",26,1
"283",1,1,393,6,6,3,"1e5ffee",27,1
"293",0,1,622,4,1,3,"1e5ffee",28,1
"303",0,0,452,2,2,3,"1e5ffee",29,1
"315",1,1,329,3,3,3,"1e5ffee",30,1
"323",1,1,366,1,1,3,"1e5ffee",31,1
"333",1,0,356,3,1,3,"1e5ffee",32,1
"343",0,1,601,2,1,3,"1e5ffee",33,1
"353",0,1,326,1,6,3,"1e5ffee",34,1
"363",1,1,645,3,3,3,"1e5ffee",35,1
"373",0,1,395,1,4,3,"1e5ffee",36,1
"383",0,0,553,6,6,3,"1e5ffee",37,1
"393",1,1,384,1,1,3,"1e5ffee",38,1
"403",1,0,469,3,1,3,"1e5ffee",39,1
"415",1,0,370,5,1,3,"1e5ffee",40,1
"423",1,1,554,5,5,3,"1e5ffee",41,1
"433",0,1,417,1,2,3,"1e5ffee",42,1
"443",1,1,379,2,2,3,"1e5ffee",43,1
"453",0,0,401,4,4,3,"1e5ffee",44,1
"463",1,1,352,5,5,3,"1e5ffee",45,1
"473",0,0,366,2,2,3,"1e5ffee",46,1
"483",0,1,372,3,1,3,"1e5ffee",47,1
"493",1,1,370,4,4,3,"1e5ffee",48,1
"503",1,1,367,3,3,3,"1e5ffee",49,1
"515",1,1,364,6,6,3,"1e5ffee",50,1
"523",0,1,370,6,1,3,"1e5ffee",51,1
"533",0,1,551,1,4,3,"1e5ffee",52,1
"543",0,1,405,2,1,3,"1e5ffee",53,1
"553",1,1,330,1,1,3,"1e5ffee",54,1
"563",0,1,225,5,1,3,"1e5ffee",55,1
"573",1,1,350,4,4,3,"1e5ffee",56,1
"583",0,1,348,6,1,3,"1e5ffee",57,1
"593",1,1,378,5,5,3,"1e5ffee",58,1
"603",1,0,496,1,3,3,"1e5ffee",59,1
"615",1,0,413,2,1,3,"1e5ffee",60,1
"623",1,1,419,1,1,3,"1e5ffee",61,1
"633",1,1,417,6,6,3,"1e5ffee",62,1
"643",0,1,414,5,1,3,"1e5ffee",63,1
"653",1,1,347,3,3,3,"1e5ffee",64,1
"663",0,1,617,4,1,3,"1e5ffee",65,1
"673",1,1,351,2,2,3,"1e5ffee",66,1
"683",0,0,396,5,5,3,"1e5ffee",67,1
"693",0,1,562,6,1,3,"1e5ffee",68,1
"703",1,1,352,4,4,3,"1e5ffee",69,1
"714",0,1,382,1,4,3,"1e5ffee",70,1
"723",1,1,379,1,1,3,"1e5ffee",71,1
"733",0,1,385,1,2,3,"1e5ffee",72,1
"743",0,0,463,3,3,3,"1e5ffee",73,1
"753",1,1,380,6,6,3,"1e5ffee",74,1
"763",0,1,603,1,3,3,"1e5ffee",75,1
"773",1,1,624,2,2,3,"1e5ffee",76,1
"783",0,1,438,5,1,3,"1e5ffee",77,1
"216",1,0,364,3,1,2,"13a9af6",1,1
"316",0,0,474,5,5,2,"13a9af6",2,1
"416",1,1,270,2,2,2,"13a9af6",3,1
"516",0,1,396,1,2,2,"13a9af6",4,1
"616",0,1,267,1,6,2,"13a9af6",5,1
"715",1,1,126,1,1,2,"13a9af6",6,1
"84",0,1,780,1,5,2,"13a9af6",7,1
"94",1,1,321,4,4,2,"13a9af6",8,1
"104",0,1,934,1,4,2,"13a9af6",9,1
"114",1,1,210,3,3,2,"13a9af6",10,1
"124",1,1,278,6,6,2,"13a9af6",11,1
"134",0,0,1573,2,2,2,"13a9af6",12,1
"144",1,1,300,4,4,2,"13a9af6",13,1
"154",1,0,269,1,3,2,"13a9af6",14,1
"164",0,1,217,6,1,2,"13a9af6",15,1
"174",0,1,552,1,4,2,"13a9af6",16,1
"184",0,1,323,2,1,2,"13a9af6",17,1
"194",0,0,1110,5,5,2,"13a9af6",18,1
"204",1,1,257,3,3,2,"13a9af6",19,1
"217",1,1,1038,6,6,2,"13a9af6",20,1
"224",0,1,739,5,1,2,"13a9af6",21,1
"234",1,1,759,1,1,2,"13a9af6",22,1
"244",1,1,338,4,4,2,"13a9af6",23,1
"254",1,0,744,1,4,2,"13a9af6",24,1
"264",0,1,980,5,1,2,"13a9af6",25,1
"274",1,0,732,1,3,2,"13a9af6",26,1
"284",0,0,1205,6,6,2,"13a9af6",27,1
"294",1,1,245,3,3,2,"13a9af6",28,1
"304",1,1,427,5,5,2,"13a9af6",29,1
"317",1,1,237,1,1,2,"13a9af6",30,1
"324",0,1,292,6,1,2,"13a9af6",31,1
"334",0,0,444,2,2,2,"13a9af6",32,1
"344",1,0,282,2,1,2,"13a9af6",33,1
"354",1,1,546,3,3,2,"13a9af6",34,1
"364",1,0,175,3,1,2,"13a9af6",35,1
"374",1,1,58,6,6,2,"13a9af6",36,1
"384",0,1,775,1,5,2,"13a9af6",37,1
"394",1,0,634,1,2,2,"13a9af6",38,1
"404",1,1,239,1,1,2,"13a9af6",39,1
"417",0,0,260,4,4,2,"13a9af6",40,1
"424",1,0,676,6,1,2,"13a9af6",41,1
"434",0,0,321,2,2,2,"13a9af6",42,1
"444",0,1,339,1,4,2,"13a9af6",43,1
"454",-1,-1,0,5,5,2,"13a9af6",44,1
"464",0,0,1006,6,6,2,"13a9af6",45,1
"474",1,1,846,4,4,2,"13a9af6",46,1
"484",1,1,1143,3,3,2,"13a9af6",47,1
"494",0,0,260,5,5,2,"13a9af6",48,1
"504",0,1,244,1,5,2,"13a9af6",49,1
"517",1,0,858,4,1,2,"13a9af6",50,1
"524",1,1,586,1,1,2,"13a9af6",51,1
"534",1,1,308,2,2,2,"13a9af6",52,1
"544",0,1,282,1,3,2,"13a9af6",53,1
"554",0,1,1135,2,1,2,"13a9af6",54,1
"564",0,1,333,1,6,2,"13a9af6",55,1
"574",1,1,503,3,3,2,"13a9af6",56,1
"584",1,1,188,5,5,2,"13a9af6",57,1
"594",0,1,379,1,6,2,"13a9af6",58,1
"604",1,0,258,1,2,2,"13a9af6",59,1
"617",0,0,106,2,2,2,"13a9af6",60,1
"624",0,0,1558,6,6,2,"13a9af6",61,1
"634",0,1,232,1,5,2,"13a9af6",62,1
"644",1,1,750,4,4,2,"13a9af6",63,1
"654",1,1,272,1,1,2,"13a9af6",64,1
"664",0,1,1195,4,1,2,"13a9af6",65,1
"674",0,1,373,1,3,2,"13a9af6",66,1
"684",1,1,644,4,4,2,"13a9af6",67,1
"694",0,1,723,1,6,2,"13a9af6",68,1
"704",1,1,1191,3,3,2,"13a9af6",69,1
"716",0,0,1473,2,2,2,"13a9af6",70,1
"724",1,1,723,1,1,2,"13a9af6",71,1
"734",1,1,1647,6,6,2,"13a9af6",72,1
"744",0,1,915,1,3,2,"13a9af6",73,1
"754",0,1,292,4,1,2,"13a9af6",74,1
"764",-1,-1,0,5,5,2,"13a9af6",75,1
"774",1,0,205,1,2,2,"13a9af6",76,1
"784",0,1,311,5,1,2,"13a9af6",77,1
"218",0,1,1768,1,2,2,"13ef7b5",1,1
"318",0,1,1239,1,6,2,"13ef7b5",2,1
"418",1,1,336,5,5,2,"13ef7b5",3,1
"518",0,1,343,1,3,2,"13ef7b5",4,1
"618",0,1,418,5,1,2,"13ef7b5",5,1
"717",1,1,389,3,3,2,"13ef7b5",6,1
"85",1,1,644,2,2,2,"13ef7b5",7,1
"95",0,1,425,4,1,2,"13ef7b5",8,1
"105",1,1,1198,1,1,2,"13ef7b5",9,1
"115",1,1,398,6,6,2,"13ef7b5",10,1
"125",1,1,1203,4,4,2,"13ef7b5",11,1
"135",1,1,375,4,4,2,"13ef7b5",12,1
"145",1,1,427,1,1,2,"13ef7b5",13,1
"155",1,1,427,2,2,2,"13ef7b5",14,1
"165",0,1,398,1,3,2,"13ef7b5",15,1
"175",0,1,1179,2,1,2,"13ef7b5",16,1
"185",0,1,397,5,1,2,"13ef7b5",17,1
"195",1,1,376,6,6,2,"13ef7b5",18,1
"205",0,1,503,1,6,2,"13ef7b5",19,1
"219",1,1,1270,3,3,2,"13ef7b5",20,1
"225",1,1,358,5,5,2,"13ef7b5",21,1
"235",0,1,744,1,4,2,"13ef7b5",22,1
"245",1,1,305,3,3,2,"13ef7b5",23,1
"255",1,1,426,5,5,2,"13ef7b5",24,1
"265",0,1,498,1,4,2,"13ef7b5",25,1
"275",1,1,589,2,2,2,"13ef7b5",26,1
"285",0,1,1201,3,1,2,"13ef7b5",27,1
"295",0,1,411,1,6,2,"13ef7b5",28,1
"305",1,1,382,6,6,2,"13ef7b5",29,1
"319",0,1,1419,5,1,2,"13ef7b5",30,1
"325",1,1,327,4,4,2,"13ef7b5",31,1
"335",0,1,1044,1,2,2,"13ef7b5",32,1
"345",1,1,320,1,1,2,"13ef7b5",33,1
"355",1,1,294,3,3,2,"13ef7b5",34,1
"365",1,1,313,1,1,2,"13ef7b5",35,1
"375",1,1,1486,2,2,2,"13ef7b5",36,1
"385",0,1,1771,1,4,2,"13ef7b5",37,1
"395",0,1,1045,2,1,2,"13ef7b5",38,1
"405",1,1,447,6,6,2,"13ef7b5",39,1
"419",0,1,1116,1,5,2,"13ef7b5",40,1
"425",0,1,409,1,6,2,"13ef7b5",41,1
"435",1,1,723,4,4,2,"13ef7b5",42,1
"445",0,1,317,3,1,2,"13ef7b5",43,1
"455",-1,-1,0,5,5,2,"13ef7b5",44,1
"465",1,1,877,6,6,2,"13ef7b5",45,1
"475",1,1,314,2,2,2,"13ef7b5",46,1
"485",0,1,394,1,2,2,"13ef7b5",47,1
"495",0,1,301,3,1,2,"13ef7b5",48,1
"505",0,1,291,1,4,2,"13ef7b5",49,1
"519",1,1,1017,3,3,2,"13ef7b5",50,1
"525",1,1,396,5,5,2,"13ef7b5",51,1
"535",1,1,343,4,4,2,"13ef7b5",52,1
"545",1,1,583,1,1,2,"13ef7b5",53,1
"555",0,1,323,5,1,2,"13ef7b5",54,1
"565",0,1,308,1,6,2,"13ef7b5",55,1
"575",1,1,797,2,2,2,"13ef7b5",56,1
"585",0,1,439,3,1,2,"13ef7b5",57,1
"595",0,1,499,1,6,2,"13ef7b5",58,1
"605",1,1,379,5,5,2,"13ef7b5",59,1
"619",1,1,351,1,1,2,"13ef7b5",60,1
"625",1,1,327,6,6,2,"13ef7b5",61,1
"635",0,1,424,5,1,2,"13ef7b5",62,1
"645",1,1,451,3,3,2,"13ef7b5",63,1
"655",1,1,310,4,4,2,"13ef7b5",64,1
"665",0,1,755,2,1,2,"13ef7b5",65,1
"675",0,1,319,1,4,2,"13ef7b5",66,1
"685",0,1,439,6,1,2,"13ef7b5",67,1
"695",1,1,345,2,2,2,"13ef7b5",68,1
"705",0,1,417,1,4,2,"13ef7b5",69,1
"718",1,1,735,1,1,2,"13ef7b5",70,1
"725",0,1,744,3,1,2,"13ef7b5",71,1
"735",0,1,508,1,5,2,"13ef7b5",72,1
"745",1,1,964,4,4,2,"13ef7b5",73,1
"755",1,1,325,5,5,2,"13ef7b5",74,1
"765",1,1,361,6,6,2,"13ef7b5",75,1
"775",1,1,1728,3,3,2,"13ef7b5",76,1
"785",0,1,392,1,2,2,"13ef7b5",77,1
"220",1,1,828,1,1,1,"137ef5e",1,1
"320",1,0,606,1,5,1,"137ef5e",2,1
"420",1,1,441,5,5,1,"137ef5e",3,1
"520",1,1,378,4,4,1,"137ef5e",4,1
"620",0,1,552,6,1,1,"137ef5e",5,1
"719",1,0,338,1,2,1,"137ef5e",6,1
"86",1,1,684,6,6,1,"137ef5e",7,1
"96",0,1,456,3,1,1,"137ef5e",8,1
"106",1,1,361,2,2,1,"137ef5e",9,1
"116",1,1,348,3,3,1,"137ef5e",10,1
"126",0,1,348,1,4,1,"137ef5e",11,1
"136",0,0,811,3,3,1,"137ef5e",12,1
"146",0,1,299,1,5,1,"137ef5e",13,1
"156",1,1,384,5,5,1,"137ef5e",14,1
"166",0,1,543,1,3,1,"137ef5e",15,1
"176",0,1,315,6,1,1,"137ef5e",16,1
"186",1,1,405,4,4,1,"137ef5e",17,1
"196",1,0,335,1,2,1,"137ef5e",18,1
"206",0,1,616,1,4,1,"137ef5e",19,1
"2110",1,1,454,6,6,1,"137ef5e",20,1
"226",1,1,385,1,1,1,"137ef5e",21,1
"236",1,1,356,2,2,1,"137ef5e",22,1
"246",0,1,372,3,1,1,"137ef5e",23,1
"256",1,0,329,1,2,1,"137ef5e",24,1
"266",0,1,358,1,5,1,"137ef5e",25,1
"276",1,1,287,2,2,1,"137ef5e",26,1
"286",0,1,375,6,1,1,"137ef5e",27,1
"296",1,1,306,6,6,1,"137ef5e",28,1
"306",1,1,524,3,3,1,"137ef5e",29,1
"3110",1,1,303,5,5,1,"137ef5e",30,1
"326",1,1,329,1,1,1,"137ef5e",31,1
"336",0,1,330,4,1,1,"137ef5e",32,1
"346",-1,-1,0,4,4,1,"137ef5e",33,1
"356",0,1,907,6,1,1,"137ef5e",34,1
"366",1,1,567,4,4,1,"137ef5e",35,1
"376",0,0,324,6,6,1,"137ef5e",36,1
"386",1,1,444,3,3,1,"137ef5e",37,1
"396",1,1,362,1,1,1,"137ef5e",38,1
"406",1,1,521,2,2,1,"137ef5e",39,1
"4110",1,1,380,5,5,1,"137ef5e",40,1
"426",0,1,304,5,1,1,"137ef5e",41,1
"436",1,0,399,1,3,1,"137ef5e",42,1
"446",0,1,320,2,1,1,"137ef5e",43,1
"456",0,1,421,4,1,1,"137ef5e",44,1
"466",0,1,349,6,1,1,"137ef5e",45,1
"476",1,1,336,2,2,1,"137ef5e",46,1
"486",0,1,358,5,1,1,"137ef5e",47,1
"496",0,1,406,4,1,1,"137ef5e",48,1
"506",1,1,414,5,5,1,"137ef5e",49,1
"5110",0,1,616,1,3,1,"137ef5e",50,1
"526",1,1,318,3,3,1,"137ef5e",51,1
"536",1,1,381,1,1,1,"137ef5e",52,1
"546",1,1,477,6,6,1,"137ef5e",53,1
"556",1,0,573,2,1,1,"137ef5e",54,1
"566",1,1,589,4,4,1,"137ef5e",55,1
"576",0,1,281,3,1,1,"137ef5e",56,1
"586",0,1,293,2,1,1,"137ef5e",57,1
"596",1,1,301,2,2,1,"137ef5e",58,1
"606",1,1,392,4,4,1,"137ef5e",59,1
"6110",1,1,494,1,1,1,"137ef5e",60,1
"626",1,1,290,5,5,1,"137ef5e",61,1
"636",1,1,324,3,3,1,"137ef5e",62,1
"646",0,1,278,5,1,1,"137ef5e",63,1
"656",-1,-1,0,6,6,1,"137ef5e",64,1
"666",-1,-1,0,6,1,1,"137ef5e",65,1
"676",0,1,766,4,1,1,"137ef5e",66,1
"686",1,1,378,1,1,1,"137ef5e",67,1
"696",0,1,563,6,1,1,"137ef5e",68,1
"706",1,1,379,5,5,1,"137ef5e",69,1
"7110",1,1,312,4,4,1,"137ef5e",70,1
"726",1,1,326,3,3,1,"137ef5e",71,1
"736",1,1,266,6,6,1,"137ef5e",72,1
"746",1,0,279,1,2,1,"137ef5e",73,1
"756",0,1,304,3,1,1,"137ef5e",74,1
"766",0,1,334,5,1,1,"137ef5e",75,1
"776",0,1,426,1,4,1,"137ef5e",76,1
"786",1,1,433,2,2,1,"137ef5e",77,1
"227",1,0,753,4,1,1,"1849720",1,1
"327",1,0,457,1,5,1,"1849720",2,1
"427",0,0,329,2,2,1,"1849720",3,1
"527",0,0,401,1,1,1,"1849720",4,1
"627",1,0,767,1,3,1,"1849720",5,1
"720",1,0,609,2,1,1,"1849720",6,1
"87",1,1,453,5,5,1,"1849720",7,1
"97",1,1,469,3,3,1,"1849720",8,1
"107",1,0,409,6,1,1,"1849720",9,1
"117",-1,-1,0,4,4,1,"1849720",10,1
"127",-1,-1,0,6,6,1,"1849720",11,1
"137",-1,-1,0,6,6,1,"1849720",12,1
"147",0,1,416,1,2,1,"1849720",13,1
"157",0,0,385,1,1,1,"1849720",14,1
"167",-1,-1,0,2,2,1,"1849720",15,1
"177",0,0,514,4,4,1,"1849720",16,1
"187",-1,-1,0,5,5,1,"1849720",17,1
"197",0,1,412,3,1,1,"1849720",18,1
"207",0,1,397,4,1,1,"1849720",19,1
"2111",0,1,430,1,5,1,"1849720",20,1
"228",0,0,356,3,3,1,"1849720",21,1
"237",0,1,1334,1,6,1,"1849720",22,1
"247",0,0,453,3,3,1,"1849720",23,1
"257",1,0,620,2,1,1,"1849720",24,1
"267",0,0,492,2,2,1,"1849720",25,1
"277",1,0,338,5,1,1,"1849720",26,1
"287",0,0,500,6,6,1,"1849720",27,1
"297",0,1,1004,6,1,1,"1849720",28,1
"307",0,1,660,3,1,1,"1849720",29,1
"3111",0,0,364,5,5,1,"1849720",30,1
"328",1,0,530,1,4,1,"1849720",31,1
"337",0,0,415,1,1,1,"1849720",32,1
"347",1,1,363,4,4,1,"1849720",33,1
"357",1,1,713,4,4,1,"1849720",34,1
"367",1,1,523,6,6,1,"1849720",35,1
"377",1,1,481,2,2,1,"1849720",36,1
"387",-1,-1,0,5,5,1,"1849720",37,1
"397",-1,-1,0,1,4,1,"1849720",38,1
"407",-1,-1,0,3,1,1,"1849720",39,1
"4111",-1,-1,0,1,5,1,"1849720",40,1
"428",-1,-1,0,2,1,1,"1849720",41,1
"437",-1,-1,0,6,1,1,"1849720",42,1
"447",-1,-1,0,3,3,1,"1849720",43,1
"457",-1,-1,0,1,1,1,"1849720",44,1
"467",0,0,588,1,1,1,"1849720",45,1
"477",0,0,495,2,2,1,"1849720",46,1
"487",0,0,539,3,3,1,"1849720",47,1
"497",1,0,1331,4,1,1,"1849720",48,1
"507",0,1,395,1,5,1,"1849720",49,1
"5111",0,1,437,1,3,1,"1849720",50,1
"528",0,0,757,4,4,1,"1849720",51,1
"537",0,1,997,6,1,1,"1849720",52,1
"547",-1,-1,0,5,5,1,"1849720",53,1
"557",-1,-1,0,6,6,1,"1849720",54,1
"567",-1,-1,0,2,1,1,"1849720",55,1
"577",-1,-1,0,2,2,1,"1849720",56,1
"587",0,0,77,3,3,1,"1849720",57,1
"597",0,0,1381,6,6,1,"1849720",58,1
"607",0,1,1663,1,2,1,"1849720",59,1
"6111",0,1,1091,4,1,1,"1849720",60,1
"628",0,0,1977,1,1,1,"1849720",61,1
"637",0,0,986,5,5,1,"1849720",62,1
"647",-1,-1,0,1,3,1,"1849720",63,1
"657",0,0,1503,4,4,1,"1849720",64,1
"667",0,1,1337,1,6,1,"1849720",65,1
"677",0,1,1641,1,5,1,"1849720",66,1
"687",0,1,1273,1,5,1,"1849720",67,1
"697",0,1,119,1,3,1,"1849720",68,1
"707",0,0,1849,2,2,1,"1849720",69,1
"7111",0,0,1299,3,3,1,"1849720",70,1
"727",0,0,1805,4,4,1,"1849720",71,1
"737",0,0,1944,5,5,1,"1849720",72,1
"747",0,1,1997,6,1,1,"1849720",73,1
"757",0,0,1423,6,6,1,"1849720",74,1
"767",0,0,1978,1,1,1,"1849720",75,1
"777",0,1,1861,1,2,1,"1849720",76,1
"787",0,1,1149,1,4,1,"1849720",77,1
"229",1,1,914,6,6,3,"121d34a",1,1
"329",1,0,689,6,1,3,"121d34a",2,1
"429",1,1,389,3,3,3,"121d34a",3,1
"529",1,1,35,1,1,3,"121d34a",4,1
"629",1,1,380,2,2,3,"121d34a",5,1
"728",1,1,379,5,5,3,"121d34a",6,1
"88",0,1,535,4,1,3,"121d34a",7,1
"98",0,1,637,1,5,3,"121d34a",8,1
"108",1,1,405,4,4,3,"121d34a",9,1
"118",0,1,547,1,3,3,"121d34a",10,1
"128",1,0,547,2,1,3,"121d34a",11,1
"138",1,1,970,2,2,3,"121d34a",12,1
"148",0,1,540,1,6,3,"121d34a",13,1
"158",1,1,347,5,5,3,"121d34a",14,1
"168",-1,-1,0,2,1,3,"121d34a",15,1
"178",0,1,756,5,1,3,"121d34a",16,1
"188",1,1,413,6,6,3,"121d34a",17,1
"198",-1,-1,0,1,1,3,"121d34a",18,1
"208",0,0,649,4,4,3,"121d34a",19,1
"2112",0,1,302,1,4,3,"121d34a",20,1
"2210",1,1,299,3,3,3,"121d34a",21,1
"238",1,0,690,3,1,3,"121d34a",22,1
"248",1,1,707,1,1,3,"121d34a",23,1
"258",1,0,475,1,2,3,"121d34a",24,1
"268",0,1,456,4,1,3,"121d34a",25,1
"278",1,1,536,2,2,3,"121d34a",26,1
"288",0,0,377,5,5,3,"121d34a",27,1
"298",0,1,394,6,1,3,"121d34a",28,1
"308",1,1,321,4,4,3,"121d34a",29,1
"3112",1,1,547,3,3,3,"121d34a",30,1
"3210",1,0,433,1,3,3,"121d34a",31,1
"338",1,1,462,6,6,3,"121d34a",32,1
"348",0,1,346,5,1,3,"121d34a",33,1
"358",0,0,463,4,4,3,"121d34a",34,1
"368",0,0,297,6,6,3,"121d34a",35,1
"378",0,1,344,1,6,3,"121d34a",36,1
"388",1,0,472,2,1,3,"121d34a",37,1
"398",1,1,343,2,2,3,"121d34a",38,1
"408",0,1,342,4,1,3,"121d34a",39,1
"4112",1,1,374,5,5,3,"121d34a",40,1
"4210",1,1,497,1,1,3,"121d34a",41,1
"438",0,1,623,3,1,3,"121d34a",42,1
"448",0,1,384,1,5,3,"121d34a",43,1
"458",1,1,327,3,3,3,"121d34a",44,1
"468",0,1,282,4,1,3,"121d34a",45,1
"478",1,1,809,2,2,3,"121d34a",46,1
"488",1,0,602,2,1,3,"121d34a",47,1
"498",0,1,520,1,6,3,"121d34a",48,1
"508",1,1,340,3,3,3,"121d34a",49,1
"5112",1,1,587,1,1,3,"121d34a",50,1
"5210",0,1,272,3,1,3,"121d34a",51,1
"538",1,1,390,5,5,3,"121d34a",52,1
"548",0,1,652,1,5,3,"121d34a",53,1
"558",1,1,475,6,6,3,"121d34a",54,1
"568",1,1,496,4,4,3,"121d34a",55,1
"578",1,1,354,2,2,3,"121d34a",56,1
"588",0,1,325,6,1,3,"121d34a",57,1
"598",1,1,361,4,4,3,"121d34a",58,1
"608",1,0,768,2,1,3,"121d34a",59,1
"6112",0,1,361,1,4,3,"121d34a",60,1
"6210",1,0,535,3,1,3,"121d34a",61,1
"638",1,1,323,3,3,3,"121d34a",62,1
"648",1,1,424,1,1,3,"121d34a",63,1
"658",1,1,522,5,5,3,"121d34a",64,1
"668",1,1,559,6,6,3,"121d34a",65,1
"678",0,1,610,5,1,3,"121d34a",66,1
"688",0,1,691,4,1,3,"121d34a",67,1
"698",0,1,592,1,5,3,"121d34a",68,1
"708",0,0,507,1,1,3,"121d34a",69,1
"7112",1,1,299,6,6,3,"121d34a",70,1
"729",0,1,542,1,6,3,"121d34a",71,1
"738",1,1,754,2,2,3,"121d34a",72,1
"748",1,1,602,4,4,3,"121d34a",73,1
"758",1,0,941,2,1,3,"121d34a",74,1
"768",1,1,547,3,3,3,"121d34a",75,1
"778",0,1,290,3,1,3,"121d34a",76,1
"788",1,1,625,5,5,3,"121d34a",77,1
"230",1,1,852,1,1,1,"12a3ce7",1,1
"330",1,0,575,3,1,1,"12a3ce7",2,1
"430",0,1,513,6,1,1,"12a3ce7",3,1
"530",0,1,368,1,4,1,"12a3ce7",4,1
"630",0,1,884,5,1,1,"12a3ce7",5,1
"730",1,1,247,3,3,1,"12a3ce7",6,1
"89",1,0,449,2,1,1,"12a3ce7",7,1
"99",1,1,372,2,2,1,"12a3ce7",8,1
"109",1,1,397,4,4,1,"12a3ce7",9,1
"119",1,1,251,5,5,1,"12a3ce7",10,1
"129",1,1,298,6,6,1,"12a3ce7",11,1
"139",1,1,360,4,4,1,"12a3ce7",12,1
"149",0,1,399,6,1,1,"12a3ce7",13,1
"159",1,1,246,3,3,1,"12a3ce7",14,1
"169",1,0,230,1,5,1,"12a3ce7",15,1
"179",1,1,412,1,1,1,"12a3ce7",16,1
"189",1,0,446,2,1,1,"12a3ce7",17,1
"199",1,1,391,6,6,1,"12a3ce7",18,1
"209",1,1,254,5,5,1,"12a3ce7",19,1
"2113",0,1,284,3,1,1,"12a3ce7",20,1
"2211",0,0,153,2,2,1,"12a3ce7",21,1
"239",0,1,291,4,1,1,"12a3ce7",22,1
"249",0,0,278,1,1,1,"12a3ce7",23,1
"259",0,0,263,2,2,1,"12a3ce7",24,1
"269",1,0,416,3,1,1,"12a3ce7",25,1
"279",0,1,341,2,1,1,"12a3ce7",26,1
"289",0,1,264,5,1,1,"12a3ce7",27,1
"299",0,0,106,5,5,1,"12a3ce7",28,1
"309",0,1,258,1,4,1,"12a3ce7",29,1
"3113",0,0,380,6,6,1,"12a3ce7",30,1
"3211",1,1,262,4,4,1,"12a3ce7",31,1
"339",1,1,586,3,3,1,"12a3ce7",32,1
"349",0,1,228,6,1,1,"12a3ce7",33,1
"359",1,1,352,4,4,1,"12a3ce7",34,1
"369",1,1,430,6,6,1,"12a3ce7",35,1
"379",1,1,273,1,1,1,"12a3ce7",36,1
"389",1,0,691,1,5,1,"12a3ce7",37,1
"399",1,0,512,1,3,1,"12a3ce7",38,1
"409",0,0,286,5,5,1,"12a3ce7",39,1
"4113",1,0,275,1,4,1,"12a3ce7",40,1
"4211",0,0,274,3,3,1,"12a3ce7",41,1
"439",1,0,233,6,1,1,"12a3ce7",42,1
"449",0,1,332,2,1,1,"12a3ce7",43,1
"459",1,1,288,2,2,1,"12a3ce7",44,1
"469",1,0,728,1,5,1,"12a3ce7",45,1
"479",1,1,300,3,3,1,"12a3ce7",46,1
"489",1,1,264,2,2,1,"12a3ce7",47,1
"499",0,0,310,5,5,1,"12a3ce7",48,1
"509",1,1,549,4,4,1,"12a3ce7",49,1
"5113",1,1,331,6,6,1,"12a3ce7",50,1
"5211",1,0,241,1,4,1,"12a3ce7",51,1
"539",1,0,530,2,1,1,"12a3ce7",52,1
"549",0,0,474,1,1,1,"12a3ce7",53,1
"559",0,1,253,6,1,1,"12a3ce7",54,1
"569",1,0,260,1,3,1,"12a3ce7",55,1
"579",0,1,258,6,1,1,"12a3ce7",56,1
"589",1,0,344,1,3,1,"12a3ce7",57,1
"599",1,0,582,1,5,1,"12a3ce7",58,1
"609",1,1,243,3,3,1,"12a3ce7",59,1
"6113",1,0,389,2,1,1,"12a3ce7",60,1
"6211",1,1,457,6,6,1,"12a3ce7",61,1
"639",0,1,81,1,4,1,"12a3ce7",62,1
"649",0,0,371,2,2,1,"12a3ce7",63,1
"659",0,0,312,4,4,1,"12a3ce7",64,1
"669",1,1,435,1,1,1,"12a3ce7",65,1
"679",1,1,338,5,5,1,"12a3ce7",66,1
"689",1,0,285,1,6,1,"12a3ce7",67,1
"699",1,0,783,1,5,1,"12a3ce7",68,1
"709",1,0,981,1,4,1,"12a3ce7",69,1
"7113",0,0,469,3,3,1,"12a3ce7",70,1
"7210",0,0,280,1,1,1,"12a3ce7",71,1
"739",1,1,261,5,5,1,"12a3ce7",72,1
"749",0,1,420,1,2,1,"12a3ce7",73,1
"759",1,0,86,3,1,1,"12a3ce7",74,1
"769",0,0,233,2,2,1,"12a3ce7",75,1
"779",1,1,513,4,4,1,"12a3ce7",76,1
"789",1,1,355,6,6,1,"12a3ce7",77,1
"240",1,1,571,2,2,1,"1a9c456",1,1
"340",1,0,382,1,3,1,"1a9c456",2,1
"440",1,1,1137,4,4,1,"1a9c456",3,1
"540",0,1,1005,1,6,1,"1a9c456",4,1
"640",1,1,556,6,6,1,"1a9c456",5,1
"740",1,1,199,1,1,1,"1a9c456",6,1
"810",0,1,280,2,1,1,"1a9c456",7,1
"910",0,1,715,1,5,1,"1a9c456",8,1
"1010",0,1,285,1,4,1,"1a9c456",9,1
"1110",1,1,374,3,3,1,"1a9c456",10,1
"1210",1,1,359,5,5,1,"1a9c456",11,1
"1310",1,1,437,4,4,1,"1a9c456",12,1
"1410",1,0,421,2,1,1,"1a9c456",13,1
"1510",1,1,552,5,5,1,"1a9c456",14,1
"1610",0,1,482,1,6,1,"1a9c456",15,1
"1710",0,1,403,5,1,1,"1a9c456",16,1
"1810",1,1,151,6,6,1,"1a9c456",17,1
"1910",0,1,468,1,4,1,"1a9c456",18,1
"2010",1,1,339,3,3,1,"1a9c456",19,1
"2114",0,1,308,3,1,1,"1a9c456",20,1
"2212",1,1,451,1,1,1,"1a9c456",21,1
"2310",1,1,409,2,2,1,"1a9c456",22,1
"2410",1,1,471,5,5,1,"1a9c456",23,1
"2510",0,1,662,4,1,1,"1a9c456",24,1
"2610",0,0,635,2,2,1,"1a9c456",25,1
"2710",0,1,70,2,1,1,"1a9c456",26,1
"2810",0,1,323,1,3,1,"1a9c456",27,1
"2910",1,1,367,3,3,1,"1a9c456",28,1
"3010",0,1,324,5,1,1,"1a9c456",29,1
"3114",0,1,435,1,6,1,"1a9c456",30,1
"3212",1,1,363,4,4,1,"1a9c456",31,1
"3310",1,1,284,6,6,1,"1a9c456",32,1
"3410",1,1,137,1,1,1,"1a9c456",33,1
"3510",0,1,392,1,2,1,"1a9c456",34,1
"3610",1,1,466,1,1,1,"1a9c456",35,1
"3710",0,1,578,3,1,1,"1a9c456",36,1
"3810",0,1,374,1,6,1,"1a9c456",37,1
"3910",1,1,458,2,2,1,"1a9c456",38,1
"4010",1,1,337,6,6,1,"1a9c456",39,1
"4114",1,1,347,3,3,1,"1a9c456",40,1
"4212",0,1,386,4,1,1,"1a9c456",41,1
"4310",1,1,334,5,5,1,"1a9c456",42,1
"4410",0,1,504,5,1,1,"1a9c456",43,1
"4510",1,1,196,4,4,1,"1a9c456",44,1
"4610",0,1,888,5,1,1,"1a9c456",45,1
"4710",0,0,661,3,3,1,"1a9c456",46,1
"4810",1,1,302,1,1,1,"1a9c456",47,1
"4910",1,1,415,4,4,1,"1a9c456",48,1
"5010",1,1,368,5,5,1,"1a9c456",49,1
"5114",1,1,1919,2,2,1,"1a9c456",50,1
"5212",1,1,764,6,6,1,"1a9c456",51,1
"5310",0,1,40,2,1,1,"1a9c456",52,1
"5410",0,1,561,4,1,1,"1a9c456",53,1
"5510",0,1,545,3,1,1,"1a9c456",54,1
"5610",0,1,594,1,6,1,"1a9c456",55,1
"5710",1,1,279,3,3,1,"1a9c456",56,1
"5810",0,1,335,1,3,1,"1a9c456",57,1
"5910",0,1,319,1,5,1,"1a9c456",58,1
"6010",0,0,429,2,2,1,"1a9c456",59,1
"6114",0,1,523,1,6,1,"1a9c456",60,1
"6212",1,1,353,4,4,1,"1a9c456",61,1
"6310",1,1,603,6,6,1,"1a9c456",62,1
"6410",0,1,598,4,1,1,"1a9c456",63,1
"6510",0,1,586,1,2,1,"1a9c456",64,1
"6610",1,1,651,1,1,1,"1a9c456",65,1
"6710",1,1,225,5,5,1,"1a9c456",66,1
"6810",0,1,262,1,5,1,"1a9c456",67,1
"6910",1,1,1,5,5,1,"1a9c456",68,1
"7010",0,1,508,1,4,1,"1a9c456",69,1
"7114",0,1,542,1,6,1,"1a9c456",70,1
"7211",1,1,344,6,6,1,"1a9c456",71,1
"7310",1,1,329,3,3,1,"1a9c456",72,1
"7410",0,1,791,1,2,1,"1a9c456",73,1
"7510",1,1,483,1,1,1,"1a9c456",74,1
"7610",1,1,329,2,2,1,"1a9c456",75,1
"7710",0,1,270,1,3,1,"1a9c456",76,1
"7810",1,1,270,4,4,1,"1a9c456",77,1
"250",1,1,1538,2,2,1,"107a571",1,1
"350",1,1,436,4,4,1,"107a571",2,1
"450",1,0,464,1,2,1,"107a571",3,1
"550",1,0,473,3,1,1,"107a571",4,1
"650",0,1,470,1,6,1,"107a571",5,1
"750",1,0,397,1,5,1,"107a571",6,1
"811",0,0,489,3,3,1,"107a571",7,1
"911",1,1,571,1,1,1,"107a571",8,1
"1011",1,0,432,4,1,1,"107a571",9,1
"1111",1,1,839,5,5,1,"107a571",10,1
"1211",0,0,463,6,6,1,"107a571",11,1
"1311",1,1,910,2,2,1,"107a571",12,1
"1411",1,0,826,2,1,1,"107a571",13,1
"1511",0,1,834,1,5,1,"107a571",14,1
"1611",0,0,702,1,1,1,"107a571",15,1
"1711",1,0,826,1,3,1,"107a571",16,1
"1811",1,1,765,3,3,1,"107a571",17,1
"1911",0,0,1913,6,6,1,"107a571",18,1
"2011",0,1,539,1,6,1,"107a571",19,1
"2115",0,1,1149,1,4,1,"107a571",20,1
"2213",1,1,569,5,5,1,"107a571",21,1
"2311",1,1,1394,4,4,1,"107a571",22,1
"2411",1,1,1014,2,2,1,"107a571",23,1
"2511",-1,-1,0,1,3,1,"107a571",24,1
"2611",1,1,364,5,5,1,"107a571",25,1
"2711",0,1,488,1,6,1,"107a571",26,1
"2811",1,1,450,4,4,1,"107a571",27,1
"2911",1,0,370,1,2,1,"107a571",28,1
"3011",0,1,445,1,5,1,"107a571",29,1
"3115",1,1,400,3,3,1,"107a571",30,1
"3213",1,1,590,6,6,1,"107a571",31,1
"3311",1,1,439,1,1,1,"107a571",32,1
"3411",0,1,623,4,1,1,"107a571",33,1
"3511",0,1,523,1,6,1,"107a571",34,1
"3611",0,1,533,4,1,1,"107a571",35,1
"3711",0,0,583,3,3,1,"107a571",36,1
"3811",1,1,477,6,6,1,"107a571",37,1
"3911",0,1,377,5,1,1,"107a571",38,1
"4011",1,0,811,1,3,1,"107a571",39,1
"4115",0,0,872,2,2,1,"107a571",40,1
"4213",0,0,414,5,5,1,"107a571",41,1
"4311",1,0,986,2,1,1,"107a571",42,1
"4411",1,1,480,4,4,1,"107a571",43,1
"4511",0,0,846,1,1,1,"107a571",44,1
"4611",1,1,406,2,2,1,"107a571",45,1
"4711",1,1,537,5,5,1,"107a571",46,1
"4811",1,0,452,1,3,1,"107a571",47,1
"4911",0,1,501,5,1,1,"107a571",48,1
"5011",0,0,430,3,3,1,"107a571",49,1
"5115",1,1,396,1,1,1,"107a571",50,1
"5213",0,0,1257,6,6,1,"107a571",51,1
"5311",0,0,891,4,4,1,"107a571",52,1
"5411",0,1,997,2,1,1,"107a571",53,1
"5511",0,1,792,4,1,1,"107a571",54,1
"5611",0,1,455,1,6,1,"107a571",55,1
"5711",1,1,492,3,3,1,"107a571",56,1
"5811",1,0,397,1,3,1,"107a571",57,1
"5911",0,0,389,5,5,1,"107a571",58,1
"6011",1,1,661,1,1,1,"107a571",59,1
"6115",0,1,825,1,4,1,"107a571",60,1
"6213",1,1,643,4,4,1,"107a571",61,1
"6311",-1,-1,0,1,2,1,"107a571",62,1
"6411",0,1,518,6,1,1,"107a571",63,1
"6511",1,1,505,2,2,1,"107a571",64,1
"6611",1,1,785,6,6,1,"107a571",65,1
"6711",0,1,466,1,5,1,"107a571",66,1
"6811",0,1,1511,1,4,1,"107a571",67,1
"6911",0,1,372,6,1,1,"107a571",68,1
"7011",0,1,479,1,3,1,"107a571",69,1
"7115",0,0,1531,1,1,1,"107a571",70,1
"7212",0,1,377,1,2,1,"107a571",71,1
"7311",1,1,471,3,3,1,"107a571",72,1
"7411",-1,-1,0,2,2,1,"107a571",73,1
"7511",0,0,393,5,5,1,"107a571",74,1
"7611",0,1,604,5,1,1,"107a571",75,1
"7711",1,1,447,6,6,1,"107a571",76,1
"7811",-1,-1,0,4,4,1,"107a571",77,1
"260",1,1,888,3,3,2,"1016d1b",1,1
"360",1,0,482,1,6,2,"1016d1b",2,1
"460",1,0,462,1,2,2,"1016d1b",3,1
"560",1,1,710,1,1,2,"1016d1b",4,1
"660",1,0,795,3,1,2,"1016d1b",5,1
"760",1,0,525,5,1,2,"1016d1b",6,1
"812",1,1,983,4,4,2,"1016d1b",7,1
"912",1,0,555,1,4,2,"1016d1b",8,1
"1012",1,1,1757,5,5,2,"1016d1b",9,1
"1112",1,1,456,6,6,2,"1016d1b",10,1
"1212",1,1,697,2,2,2,"1016d1b",11,1
"1312",1,1,1264,5,5,2,"1016d1b",12,1
"1412",1,0,1023,2,1,2,"1016d1b",13,1
"1512",1,0,1891,6,1,2,"1016d1b",14,1
"1612",0,0,356,2,2,2,"1016d1b",15,1
"1712",1,1,860,1,1,2,"1016d1b",16,1
"1812",1,0,1309,5,1,2,"1016d1b",17,1
"1912",1,1,781,4,4,2,"1016d1b",18,1
"2012",1,1,905,3,3,2,"1016d1b",19,1
"2116",1,0,652,3,1,2,"1016d1b",20,1
"2214",1,0,488,4,1,2,"1016d1b",21,1
"2312",1,1,515,6,6,2,"1016d1b",22,1
"2412",1,1,470,1,1,2,"1016d1b",23,1
"2512",0,0,652,4,4,2,"1016d1b",24,1
"2612",1,1,431,2,2,2,"1016d1b",25,1
"2712",0,1,446,4,1,2,"1016d1b",26,1
"2812",0,1,634,5,1,2,"1016d1b",27,1
"2912",1,1,438,3,3,2,"1016d1b",28,1
"3012",0,1,420,2,1,2,"1016d1b",29,1
"3116",1,0,457,3,1,2,"1016d1b",30,1
"3214",0,1,496,6,1,2,"1016d1b",31,1
"3312",0,0,871,6,6,2,"1016d1b",32,1
"3412",0,0,439,5,5,2,"1016d1b",33,1
"3512",1,1,429,3,3,2,"1016d1b",34,1
"3612",0,0,570,4,4,2,"1016d1b",35,1
"3712",0,0,396,1,1,2,"1016d1b",36,1
"3812",0,0,738,6,6,2,"1016d1b",37,1
"3912",0,1,417,1,2,2,"1016d1b",38,1
"4012",1,0,823,5,1,2,"1016d1b",39,1
"4116",1,0,439,1,3,2,"1016d1b",40,1
"4214",0,1,491,1,4,2,"1016d1b",41,1
"4312",0,0,422,5,5,2,"1016d1b",42,1
"4412",0,1,593,1,6,2,"1016d1b",43,1
"4512",1,1,451,2,2,2,"1016d1b",44,1
"4612",1,1,400,1,1,2,"1016d1b",45,1
"4712",0,1,653,6,1,2,"1016d1b",46,1
"4812",0,1,414,1,5,2,"1016d1b",47,1
"4912",1,1,642,2,2,2,"1016d1b",48,1
"5012",1,0,481,2,1,2,"1016d1b",49,1
"5116",1,1,1047,5,5,2,"1016d1b",50,1
"5214",1,1,696,4,4,2,"1016d1b",51,1
"5312",0,1,521,1,4,2,"1016d1b",52,1
"5412",1,1,462,3,3,2,"1016d1b",53,1
"5512",0,1,923,3,1,2,"1016d1b",54,1
"5612",0,0,799,6,6,2,"1016d1b",55,1
"5712",0,1,436,1,6,2,"1016d1b",56,1
"5812",1,1,406,4,4,2,"1016d1b",57,1
"5912",1,1,356,1,1,2,"1016d1b",58,1
"6012",0,1,360,4,1,2,"1016d1b",59,1
"6116",0,0,332,5,5,2,"1016d1b",60,1
"6214",1,1,602,3,3,2,"1016d1b",61,1
"6312",1,0,734,1,2,2,"1016d1b",62,1
"6412",0,0,531,6,6,2,"1016d1b",63,1
"6512",0,0,445,2,2,2,"1016d1b",64,1
"6612",1,0,411,1,3,2,"1016d1b",65,1
"6712",0,1,572,5,1,2,"1016d1b",66,1
"6812",1,1,421,5,5,2,"1016d1b",67,1
"6912",1,0,475,2,1,2,"1016d1b",68,1
"7012",1,1,453,2,2,2,"1016d1b",69,1
"7116",1,1,379,4,4,2,"1016d1b",70,1
"7213",0,1,450,4,1,2,"1016d1b",71,1
"7312",1,1,434,3,3,2,"1016d1b",72,1
"7412",0,1,479,1,6,2,"1016d1b",73,1
"7512",0,1,348,5,1,2,"1016d1b",74,1
"7612",1,1,456,6,6,2,"1016d1b",75,1
"7712",0,1,499,1,3,2,"1016d1b",76,1
"7812",1,1,956,1,1,2,"1016d1b",77,1
"270",1,1,907,3,3,1,"12c2923",1,1
"370",1,0,398,1,4,1,"12c2923",2,1
"470",1,0,313,1,2,1,"12c2923",3,1
"570",1,1,687,6,6,1,"12c2923",4,1
"670",1,0,448,1,6,1,"12c2923",5,1
"770",1,1,406,1,1,1,"12c2923",6,1
"813",0,1,366,1,5,1,"12c2923",7,1
"913",0,0,329,4,4,1,"12c2923",8,1
"1013",0,0,417,5,5,1,"12c2923",9,1
"1113",1,0,403,3,1,1,"12c2923",10,1
"1213",0,0,271,2,2,1,"12c2923",11,1
"1313",1,1,327,5,5,1,"12c2923",12,1
"1413",0,1,369,6,1,1,"12c2923",13,1
"1513",1,1,391,3,3,1,"12c2923",14,1
"1613",0,1,487,5,1,1,"12c2923",15,1
"1713",0,1,392,1,4,1,"12c2923",16,1
"1813",1,1,325,4,4,1,"12c2923",17,1
"1913",0,1,349,1,3,1,"12c2923",18,1
"2013",1,1,340,6,6,1,"12c2923",19,1
"2117",1,1,314,2,2,1,"12c2923",20,1
"2215",1,1,310,1,1,1,"12c2923",21,1
"2313",1,0,366,1,2,1,"12c2923",22,1
"2413",1,1,304,3,3,1,"12c2923",23,1
"2513",0,1,731,1,6,1,"12c2923",24,1
"2613",1,1,321,6,6,1,"12c2923",25,1
"2713",1,1,359,4,4,1,"12c2923",26,1
"2813",1,1,399,2,2,1,"12c2923",27,1
"2913",1,1,346,5,5,1,"12c2923",28,1
"3013",1,1,350,1,1,1,"12c2923",29,1
"3117",0,1,441,5,1,1,"12c2923",30,1
"3215",0,1,455,1,4,1,"12c2923",31,1
"3313",1,0,396,1,2,1,"12c2923",32,1
"3413",0,1,387,1,3,1,"12c2923",33,1
"3513",1,1,366,1,1,1,"12c2923",34,1
"3613",1,1,348,6,6,1,"12c2923",35,1
"3713",0,1,563,1,3,1,"12c2923",36,1
"3813",1,1,351,2,2,1,"12c2923",37,1
"3913",1,1,357,3,3,1,"12c2923",38,1
"4013",0,1,490,1,6,1,"12c2923",39,1
"4117",1,1,310,4,4,1,"12c2923",40,1
"4215",0,1,648,2,1,1,"12c2923",41,1
"4313",0,1,463,5,1,1,"12c2923",42,1
"4413",0,1,537,4,1,1,"12c2923",43,1
"4513",1,1,482,5,5,1,"12c2923",44,1
"4613",0,1,886,3,1,1,"12c2923",45,1
"4713",1,1,372,3,3,1,"12c2923",46,1
"4813",1,1,353,6,6,1,"12c2923",47,1
"4913",1,1,364,5,5,1,"12c2923",48,1
"5013",0,1,398,2,1,1,"12c2923",49,1
"5117",0,1,591,4,1,1,"12c2923",50,1
"5215",0,1,598,1,6,1,"12c2923",51,1
"5313",1,1,387,2,2,1,"12c2923",52,1
"5413",0,1,327,1,5,1,"12c2923",53,1
"5513",1,1,456,4,4,1,"12c2923",54,1
"5613",1,1,372,1,1,1,"12c2923",55,1
"5713",1,1,568,6,6,1,"12c2923",56,1
"5813",1,1,623,2,2,1,"12c2923",57,1
"5913",0,1,717,1,4,1,"12c2923",58,1
"6013",1,1,501,5,5,1,"12c2923",59,1
"6117",0,1,712,3,1,1,"12c2923",60,1
"6215",1,1,383,1,1,1,"12c2923",61,1
"6313",0,1,611,2,1,1,"12c2923",62,1
"6413",1,1,363,4,4,1,"12c2923",63,1
"6513",0,1,440,1,6,1,"12c2923",64,1
"6613",1,1,334,3,3,1,"12c2923",65,1
"6713",0,1,519,5,1,1,"12c2923",66,1
"6813",1,1,541,1,1,1,"12c2923",67,1
"6913",1,1,614,3,3,1,"12c2923",68,1
"7013",0,1,329,2,1,1,"12c2923",69,1
"7117",1,1,578,2,2,1,"12c2923",70,1
"7214",0,1,539,1,3,1,"12c2923",71,1
"7313",0,1,397,5,1,1,"12c2923",72,1
"7413",1,1,612,5,5,1,"12c2923",73,1
"7513",1,1,309,4,4,1,"12c2923",74,1
"7613",0,1,1070,4,1,1,"12c2923",75,1
"7713",0,1,301,6,1,1,"12c2923",76,1
"7813",1,1,651,6,6,1,"12c2923",77,1
"280",-1,-1,0,5,5,3,"6727592",1,1
"380",1,1,656,4,4,3,"6727592",2,1
"480",0,1,643,1,4,3,"6727592",3,1
"580",1,0,734,1,3,3,"6727592",4,1
"680",0,1,475,1,2,3,"6727592",5,1
"780",1,1,460,2,2,3,"6727592",6,1
"814",1,1,452,6,6,3,"6727592",7,1
"914",0,0,798,3,3,3,"6727592",8,1
"1014",1,0,487,1,5,3,"6727592",9,1
"1114",0,0,704,1,1,3,"6727592",10,1
"1214",0,1,903,1,6,3,"6727592",11,1
"1314",0,0,784,1,1,3,"6727592",12,1
"1414",0,0,828,3,3,3,"6727592",13,1
"1514",1,0,752,1,3,3,"6727592",14,1
"1614",1,1,544,2,2,3,"6727592",15,1
"1714",1,0,508,1,5,3,"6727592",16,1
"1814",0,1,443,6,1,3,"6727592",17,1
"1914",1,0,476,2,1,3,"6727592",18,1
"2014",1,1,455,4,4,3,"6727592",19,1
"2118",0,0,449,6,6,3,"6727592",20,1
"2216",0,1,602,1,4,3,"6727592",21,1
"2314",1,1,384,5,5,3,"6727592",22,1
"2414",0,1,406,5,1,3,"6727592",23,1
"2514",0,1,549,1,6,3,"6727592",24,1
"2614",1,1,720,3,3,3,"6727592",25,1
"2714",1,1,813,4,4,3,"6727592",26,1
"2814",1,1,441,2,2,3,"6727592",27,1
"2914",1,1,433,6,6,3,"6727592",28,1
"3014",1,1,535,5,5,3,"6727592",29,1
"3118",0,1,436,4,1,3,"6727592",30,1
"3216",1,0,348,1,2,3,"6727592",31,1
"3314",0,1,366,1,3,3,"6727592",32,1
"3414",1,1,465,1,1,3,"6727592",33,1
"3514",0,1,338,1,4,3,"6727592",34,1
"3614",0,1,1463,3,1,3,"6727592",35,1
"3714",1,1,433,3,3,3,"6727592",36,1
"3814",1,1,307,4,4,3,"6727592",37,1
"3914",0,1,789,5,1,3,"6727592",38,1
"4014",0,1,776,1,2,3,"6727592",39,1
"4118",0,1,435,1,6,3,"6727592",40,1
"4216",0,0,250,2,2,3,"6727592",41,1
"4314",1,1,1026,5,5,3,"6727592",42,1
"4414",1,1,717,6,6,3,"6727592",43,1
"4514",1,1,410,1,1,3,"6727592",44,1
"4614",1,1,1393,5,5,3,"6727592",45,1
"4714",0,1,1044,3,1,3,"6727592",46,1
"4814",1,1,948,4,4,3,"6727592",47,1
"4914",0,1,547,5,1,3,"6727592",48,1
"5014",1,1,941,6,6,3,"6727592",49,1
"5118",0,1,302,1,2,3,"6727592",50,1
"5216",1,1,556,1,1,3,"6727592",51,1
"5314",0,1,469,4,1,3,"6727592",52,1
"5414",0,1,998,6,1,3,"6727592",53,1
"5514",0,0,471,2,2,3,"6727592",54,1
"5614",1,1,231,3,3,3,"6727592",55,1
"5714",0,1,262,1,2,3,"6727592",56,1
"5814",1,1,384,3,3,3,"6727592",57,1
"5914",1,1,1127,1,1,3,"6727592",58,1
"6014",1,1,731,5,5,3,"6727592",59,1
"6118",1,1,1504,2,2,3,"6727592",60,1
"6216",0,1,966,5,1,3,"6727592",61,1
"6314",0,1,819,6,1,3,"6727592",62,1
"6414",1,1,391,6,6,3,"6727592",63,1
"6514",0,1,635,1,4,3,"6727592",64,1
"6614",0,1,755,3,1,3,"6727592",65,1
"6714",1,1,1756,4,4,3,"6727592",66,1
"6814",-1,-1,0,1,1,3,"6727592",67,1
"6914",0,1,730,4,1,3,"6727592",68,1
"7014",1,1,1940,3,3,3,"6727592",69,1
"7118",0,1,790,6,1,3,"6727592",70,1
"7215",1,1,444,5,5,3,"6727592",71,1
"7314",1,0,365,2,1,3,"6727592",72,1
"7414",0,1,1118,3,1,3,"6727592",73,1
"7514",1,0,1860,5,1,3,"6727592",74,1
"7614",0,0,753,2,2,3,"6727592",75,1
"7714",1,1,408,6,6,3,"6727592",76,1
"7814",1,1,257,4,4,3,"6727592",77,1
"290",1,0,776,1,6,1,"13ebe4b",1,1
"390",1,1,535,5,5,1,"13ebe4b",2,1
"490",1,1,505,2,2,1,"13ebe4b",3,1
"590",1,1,466,1,1,1,"13ebe4b",4,1
"690",1,0,387,2,1,1,"13ebe4b",5,1
"790",1,0,532,4,1,1,"13ebe4b",6,1
"815",0,0,676,6,6,1,"13ebe4b",7,1
"915",1,1,374,3,3,1,"13ebe4b",8,1
"1015",1,1,308,4,4,1,"13ebe4b",9,1
"1115",0,1,559,3,1,1,"13ebe4b",10,1
"1215",0,1,296,5,1,1,"13ebe4b",11,1
"1315",1,0,298,1,6,1,"13ebe4b",12,1
"1415",1,1,306,3,3,1,"13ebe4b",13,1
"1515",1,1,384,1,1,1,"13ebe4b",14,1
"1615",0,1,348,1,3,1,"13ebe4b",15,1
"1715",0,1,302,1,2,1,"13ebe4b",16,1
"1815",1,0,1480,1,4,1,"13ebe4b",17,1
"1915",0,0,417,5,5,1,"13ebe4b",18,1
"2015",1,0,403,1,5,1,"13ebe4b",19,1
"2119",1,1,364,2,2,1,"13ebe4b",20,1
"2217",1,1,317,4,4,1,"13ebe4b",21,1
"2315",0,0,294,6,6,1,"13ebe4b",22,1
"2415",1,1,288,6,6,1,"13ebe4b",23,1
"2515",1,0,370,3,1,1,"13ebe4b",24,1
"2615",0,1,435,5,1,1,"13ebe4b",25,1
"2715",0,0,670,5,5,1,"13ebe4b",26,1
"2815",1,1,383,2,2,1,"13ebe4b",27,1
"2915",1,1,399,4,4,1,"13ebe4b",28,1
"3015",0,1,361,6,1,1,"13ebe4b",29,1
"3119",1,1,348,3,3,1,"13ebe4b",30,1
"3217",1,1,356,1,1,1,"13ebe4b",31,1
"3315",1,0,476,2,1,1,"13ebe4b",32,1
"3415",0,1,396,1,4,1,"13ebe4b",33,1
"3515",0,0,1830,5,5,1,"13ebe4b",34,1
"3615",1,1,407,1,1,1,"13ebe4b",35,1
"3715",0,1,144,1,6,1,"13ebe4b",36,1
"3815",1,0,435,2,1,1,"13ebe4b",37,1
"3915",0,0,379,3,3,1,"13ebe4b",38,1
"4015",1,1,282,6,6,1,"13ebe4b",39,1
"4119",0,1,278,1,4,1,"13ebe4b",40,1
"4217",1,1,556,2,2,1,"13ebe4b",41,1
"4315",1,1,381,4,4,1,"13ebe4b",42,1
"4415",1,0,765,5,1,1,"13ebe4b",43,1
"4515",0,1,287,1,3,1,"13ebe4b",44,1
"4615",0,0,1664,6,6,1,"13ebe4b",45,1
"4715",1,0,339,1,4,1,"13ebe4b",46,1
"4815",1,1,1076,4,4,1,"13ebe4b",47,1
"4915",1,1,276,5,5,1,"13ebe4b",48,1
"5015",1,1,318,1,1,1,"13ebe4b",49,1
"5119",0,1,272,6,1,1,"13ebe4b",50,1
"5217",1,1,1920,3,3,1,"13ebe4b",51,1
"5315",1,0,529,1,3,1,"13ebe4b",52,1
"5415",0,1,451,5,1,1,"13ebe4b",53,1
"5515",0,0,669,2,2,1,"13ebe4b",54,1
"5615",1,0,704,1,2,1,"13ebe4b",55,1
"5715",1,0,1329,1,4,1,"13ebe4b",56,1
"5815",1,1,297,4,4,1,"13ebe4b",57,1
"5915",1,1,296,2,2,1,"13ebe4b",58,1
"6015",1,1,283,6,6,1,"13ebe4b",59,1
"6119",1,1,334,3,3,1,"13ebe4b",60,1
"6217",1,1,450,1,1,1,"13ebe4b",61,1
"6315",1,0,811,5,1,1,"13ebe4b",62,1
"6415",0,1,349,1,3,1,"13ebe4b",63,1
"6515",1,1,404,5,5,1,"13ebe4b",64,1
"6615",0,1,403,6,1,1,"13ebe4b",65,1
"6715",1,0,459,2,1,1,"13ebe4b",66,1
"6815",1,1,486,4,4,1,"13ebe4b",67,1
"6915",0,1,719,1,3,1,"13ebe4b",68,1
"7015",1,1,455,3,3,1,"13ebe4b",69,1
"7119",1,1,512,2,2,1,"13ebe4b",70,1
"7216",0,1,312,1,2,1,"13ebe4b",71,1
"7315",0,1,930,4,1,1,"13ebe4b",72,1
"7415",0,1,914,1,5,1,"13ebe4b",73,1
"7515",1,1,268,1,1,1,"13ebe4b",74,1
"7615",0,1,309,1,6,1,"13ebe4b",75,1
"7715",1,1,300,5,5,1,"13ebe4b",76,1
"7815",1,1,437,6,6,1,"13ebe4b",77,1
"2100",1,0,658,1,6,3,"102c719",1,1
"3100",1,0,607,2,1,3,"102c719",2,1
"4100",0,1,442,5,1,3,"102c719",3,1
"5100",0,0,450,3,3,3,"102c719",4,1
"6100",1,1,435,1,1,3,"102c719",5,1
"791",0,0,345,6,6,3,"102c719",6,1
"816",1,1,216,2,2,3,"102c719",7,1
"916",1,1,320,4,4,3,"102c719",8,1
"1016",1,1,204,5,5,3,"102c719",9,1
"1116",1,0,277,4,1,3,"102c719",10,1
"1216",1,0,387,1,3,3,"102c719",11,1
"1316",1,1,197,6,6,3,"102c719",12,1
"1416",1,1,181,5,5,3,"102c719",13,1
"1516",1,1,259,3,3,3,"102c719",14,1
"1616",1,0,220,1,2,3,"102c719",15,1
"1716",1,1,381,2,2,3,"102c719",16,1
"1816",0,1,251,1,4,3,"102c719",17,1
"1916",0,1,284,1,5,3,"102c719",18,1
"2016",0,1,272,6,1,3,"102c719",19,1
"2120",1,1,128,4,4,3,"102c719",20,1
"2218",1,1,1490,1,1,3,"102c719",21,1
"2316",0,1,312,1,3,3,"102c719",22,1
"2416",0,1,331,1,6,3,"102c719",23,1
"2516",0,0,316,3,3,3,"102c719",24,1
"2616",0,1,242,1,3,3,"102c719",25,1
"2716",0,1,375,1,2,3,"102c719",26,1
"2816",1,1,109,6,6,3,"102c719",27,1
"2916",0,1,248,1,5,3,"102c719",28,1
"3016",0,0,429,4,4,3,"102c719",29,1
"3120",1,1,23,5,5,3,"102c719",30,1
"3218",1,1,483,2,2,3,"102c719",31,1
"3316",0,1,185,1,4,3,"102c719",32,1
"3416",1,1,501,1,1,3,"102c719",33,1
"3516",1,1,428,1,1,3,"102c719",34,1
"3616",0,1,663,1,4,3,"102c719",35,1
"3716",1,1,161,2,2,3,"102c719",36,1
"3816",0,0,872,4,4,3,"102c719",37,1
"3916",1,1,296,3,3,3,"102c719",38,1
"4016",1,1,226,6,6,3,"102c719",39,1
"4120",1,1,340,5,5,3,"102c719",40,1
"4218",0,1,505,3,1,3,"102c719",41,1
"4316",1,0,385,1,2,3,"102c719",42,1
"4416",0,1,833,6,1,3,"102c719",43,1
"4516",0,1,392,5,1,3,"102c719",44,1
"4616",0,1,824,1,3,3,"102c719",45,1
"4716",1,1,644,6,6,3,"102c719",46,1
"4816",1,1,513,4,4,3,"102c719",47,1
"4916",1,1,530,1,1,3,"102c719",48,1
"5016",1,1,371,3,3,3,"102c719",49,1
"5120",1,1,407,5,5,3,"102c719",50,1
"5218",0,1,903,4,1,3,"102c719",51,1
"5316",0,1,594,1,6,3,"102c719",52,1
"5416",1,1,87,2,2,3,"102c719",53,1
"5516",0,1,203,5,1,3,"102c719",54,1
"5616",0,1,359,2,1,3,"102c719",55,1
"5716",1,1,722,6,6,3,"102c719",56,1
"5816",1,1,537,5,5,3,"102c719",57,1
"5916",0,1,387,1,6,3,"102c719",58,1
"6016",0,1,1356,1,4,3,"102c719",59,1
"6120",1,1,1161,2,2,3,"102c719",60,1
"6218",0,1,463,5,1,3,"102c719",61,1
"6316",1,1,250,3,3,3,"102c719",62,1
"6416",0,1,226,1,3,3,"102c719",63,1
"6516",0,1,236,2,1,3,"102c719",64,1
"6616",1,1,273,4,4,3,"102c719",65,1
"6716",0,0,239,1,1,3,"102c719",66,1
"6816",1,1,441,1,1,3,"102c719",67,1
"6916",0,1,824,3,1,3,"102c719",68,1
"7016",1,0,401,1,2,3,"102c719",69,1
"7120",1,1,393,3,3,3,"102c719",70,1
"7217",0,1,282,1,6,3,"102c719",71,1
"7316",0,1,387,5,1,3,"102c719",72,1
"7416",1,1,529,5,5,3,"102c719",73,1
"7516",0,1,383,1,4,3,"102c719",74,1
"7616",1,1,498,4,4,3,"102c719",75,1
"7716",1,1,323,6,6,3,"102c719",76,1
"7816",1,1,418,2,2,3,"102c719",77,1
"2101",1,1,598,6,6,2,"18291b8",1,1
"3101",1,1,596,5,5,2,"18291b8",2,1
"4101",1,0,369,1,3,2,"18291b8",3,1
"5101",0,0,389,1,1,2,"18291b8",4,1
"6101",1,0,304,1,5,2,"18291b8",5,1
"792",1,0,245,1,6,2,"18291b8",6,1
"817",0,0,452,4,4,2,"18291b8",7,1
"917",1,1,257,3,3,2,"18291b8",8,1
"1017",0,0,274,2,2,2,"18291b8",9,1
"1117",1,0,272,1,2,2,"18291b8",10,1
"1217",1,0,267,4,1,2,"18291b8",11,1
"1317",1,0,319,1,6,2,"18291b8",12,1
"1417",1,0,287,5,1,2,"18291b8",13,1
"1517",1,1,234,5,5,2,"18291b8",14,1
"1617",0,0,274,6,6,2,"18291b8",15,1
"1717",1,0,268,1,3,2,"18291b8",16,1
"1817",0,0,401,2,2,2,"18291b8",17,1
"1917",1,1,68,1,1,2,"18291b8",18,1
"2017",1,1,236,3,3,2,"18291b8",19,1
"2121",0,1,341,2,1,2,"18291b8",20,1
"2219",1,1,309,4,4,2,"18291b8",21,1
"2317",0,1,322,4,1,2,"18291b8",22,1
"2417",0,1,434,1,6,2,"18291b8",23,1
"2517",0,1,431,1,5,2,"18291b8",24,1
"2617",1,1,282,5,5,2,"18291b8",25,1
"2717",1,1,244,4,4,2,"18291b8",26,1
"2817",0,0,455,2,2,2,"18291b8",27,1
"2917",1,0,287,4,1,2,"18291b8",28,1
"3017",1,1,301,3,3,2,"18291b8",29,1
"3121",1,1,342,1,1,2,"18291b8",30,1
"3219",1,1,293,6,6,2,"18291b8",31,1
"3317",0,1,260,2,1,2,"18291b8",32,1
"3417",1,0,219,1,3,2,"18291b8",33,1
"3517",0,1,402,6,1,2,"18291b8",34,1
"3617",0,1,231,3,1,2,"18291b8",35,1
"3717",1,1,208,2,2,2,"18291b8",36,1
"3817",0,1,334,4,1,2,"18291b8",37,1
"3917",0,0,297,6,6,2,"18291b8",38,1
"4017",1,1,447,1,1,2,"18291b8",39,1
"4121",1,1,281,4,4,2,"18291b8",40,1
"4219",1,0,256,2,1,2,"18291b8",41,1
"4317",1,1,357,5,5,2,"18291b8",42,1
"4417",0,1,349,5,1,2,"18291b8",43,1
"4517",1,1,136,3,3,2,"18291b8",44,1
"4617",1,1,189,2,2,2,"18291b8",45,1
"4717",1,1,349,4,4,2,"18291b8",46,1
"4817",0,0,294,3,3,2,"18291b8",47,1
"4917",1,1,288,1,1,2,"18291b8",48,1
"5017",1,1,260,6,6,2,"18291b8",49,1
"5121",0,1,523,3,1,2,"18291b8",50,1
"5219",1,0,236,1,2,2,"18291b8",51,1
"5317",0,1,459,1,4,2,"18291b8",52,1
"5417",0,1,289,6,1,2,"18291b8",53,1
"5517",1,0,478,1,5,2,"18291b8",54,1
"5617",1,1,282,5,5,2,"18291b8",55,1
"5717",0,1,297,1,5,2,"18291b8",56,1
"5817",0,1,285,1,6,2,"18291b8",57,1
"5917",0,1,382,3,1,2,"18291b8",58,1
"6017",1,1,175,6,6,2,"18291b8",59,1
"6121",0,1,602,4,1,2,"18291b8",60,1
"6219",1,1,426,4,4,2,"18291b8",61,1
"6317",0,1,228,2,1,2,"18291b8",62,1
"6417",1,1,313,2,2,2,"18291b8",63,1
"6517",1,1,280,3,3,2,"18291b8",64,1
"6617",1,1,306,1,1,2,"18291b8",65,1
"6717",1,1,317,5,5,2,"18291b8",66,1
"6817",0,1,329,1,6,2,"18291b8",67,1
"6917",0,1,113,1,3,2,"18291b8",68,1
"7017",0,1,292,1,4,2,"18291b8",69,1
"7121",1,1,215,5,5,2,"18291b8",70,1
"7218",0,0,276,3,3,2,"18291b8",71,1
"7317",0,1,299,1,5,2,"18291b8",72,1
"7417",1,1,289,6,6,2,"18291b8",73,1
"7517",1,1,294,4,4,2,"18291b8",74,1
"7617",1,1,255,2,2,2,"18291b8",75,1
"7717",1,0,253,1,2,2,"18291b8",76,1
"7817",1,1,281,1,1,2,"18291b8",77,1
"2102",1,1,875,6,6,2,"1041b16",1,1
"3102",1,1,796,3,3,2,"1041b16",2,1
"4102",1,0,559,2,1,2,"1041b16",3,1
"5102",1,1,560,1,1,2,"1041b16",4,1
"6102",0,1,353,1,6,2,"1041b16",5,1
"793",0,1,920,1,4,2,"1041b16",6,1
"818",1,1,1238,2,2,2,"1041b16",7,1
"918",1,1,1743,5,5,2,"1041b16",8,1
"1018",1,1,774,4,4,2,"1041b16",9,1
"1118",0,1,890,5,1,2,"1041b16",10,1
"1218",0,1,526,1,3,2,"1041b16",11,1
"1318",0,1,508,6,1,2,"1041b16",12,1
"1418",1,1,952,2,2,2,"1041b16",13,1
"1518",1,1,386,3,3,2,"1041b16",14,1
"1618",1,0,795,1,2,2,"1041b16",15,1
"1718",1,1,665,4,4,2,"1041b16",16,1
"1818",1,1,706,5,5,2,"1041b16",17,1
"1918",0,1,586,1,3,2,"1041b16",18,1
"2018",1,1,793,6,6,2,"1041b16",19,1
"2122",1,1,451,1,1,2,"1041b16",20,1
"2220",0,1,456,1,4,2,"1041b16",21,1
"2318",0,1,556,5,1,2,"1041b16",22,1
"2418",1,1,454,3,3,2,"1041b16",23,1
"2518",1,1,842,2,2,2,"1041b16",24,1
"2618",0,1,478,5,1,2,"1041b16",25,1
"2718",0,1,531,1,4,2,"1041b16",26,1
"2818",0,1,608,1,6,2,"1041b16",27,1
"2918",0,1,646,1,2,2,"1041b16",28,1
"3018",0,1,359,3,1,2,"1041b16",29,1
"3122",1,1,463,1,1,2,"1041b16",30,1
"3220",1,1,586,6,6,2,"1041b16",31,1
"3318",1,1,462,5,5,2,"1041b16",32,1
"3418",1,1,522,4,4,2,"1041b16",33,1
"3518",1,1,764,1,1,2,"1041b16",34,1
"3618",1,1,798,4,4,2,"1041b16",35,1
"3718",0,1,457,1,5,2,"1041b16",36,1
"3818",0,0,670,6,6,2,"1041b16",37,1
"3918",0,1,927,4,1,2,"1041b16",38,1
"4018",0,1,426,1,3,2,"1041b16",39,1
"4122",0,1,425,1,2,2,"1041b16",40,1
"4220",1,1,607,3,3,2,"1041b16",41,1
"4318",0,1,586,6,1,2,"1041b16",42,1
"4418",1,1,421,2,2,2,"1041b16",43,1
"4518",1,1,615,5,5,2,"1041b16",44,1
"4618",-1,-1,0,3,3,2,"1041b16",45,1
"4718",1,1,721,2,2,2,"1041b16",46,1
"4818",0,1,637,1,4,2,"1041b16",47,1
"4918",1,1,450,5,5,2,"1041b16",48,1
"5018",0,1,395,2,1,2,"1041b16",49,1
"5122",0,1,452,6,1,2,"1041b16",50,1
"5220",0,1,442,3,1,2,"1041b16",51,1
"5318",1,1,393,6,6,2,"1041b16",52,1
"5418",1,1,328,1,1,2,"1041b16",53,1
"5518",0,1,654,1,5,2,"1041b16",54,1
"5618",1,1,601,4,4,2,"1041b16",55,1
"5718",1,1,388,3,3,2,"1041b16",56,1
"5818",0,1,721,4,1,2,"1041b16",57,1
"5918",0,1,393,6,1,2,"1041b16",58,1
"6018",1,1,451,4,4,2,"1041b16",59,1
"6122",0,0,326,2,2,2,"1041b16",60,1
"6220",0,1,391,1,3,2,"1041b16",61,1
"6318",0,0,708,6,6,2,"1041b16",62,1
"6418",1,1,611,5,5,2,"1041b16",63,1
"6518",0,1,578,5,1,2,"1041b16",64,1
"6618",1,1,622,1,1,2,"1041b16",65,1
"6718",0,1,1303,1,2,2,"1041b16",66,1
"6818",0,1,693,5,1,2,"1041b16",67,1
"6918",0,1,1008,1,3,2,"1041b16",68,1
"7018",1,1,424,1,1,2,"1041b16",69,1
"7122",1,1,548,4,4,2,"1041b16",70,1
"7219",1,1,578,2,2,2,"1041b16",71,1
"7318",1,1,1001,3,3,2,"1041b16",72,1
"7418",1,1,772,5,5,2,"1041b16",73,1
"7518",0,1,457,1,4,2,"1041b16",74,1
"7618",0,1,445,6,1,2,"1041b16",75,1
"7718",0,1,436,1,2,2,"1041b16",76,1
"7818",1,1,496,6,6,2,"1041b16",77,1
"2103",0,1,308,1,5,2,"1461fdf",1,1
"3103",1,1,507,5,5,2,"1461fdf",2,1
"4103",1,0,1136,1,3,2,"1461fdf",3,1
"5103",0,1,633,4,1,2,"1461fdf",4,1
"6103",1,1,90,1,1,2,"1461fdf",5,1
"794",1,1,363,2,2,2,"1461fdf",6,1
"819",0,1,755,1,6,2,"1461fdf",7,1
"919",0,0,644,3,3,2,"1461fdf",8,1
"1019",1,0,482,1,2,2,"1461fdf",9,1
"1119",1,1,892,4,4,2,"1461fdf",10,1
"1219",0,0,852,6,6,2,"1461fdf",11,1
"1319",0,0,243,3,3,2,"1461fdf",12,1
"1419",0,0,41,5,5,2,"1461fdf",13,1
"1519",1,1,1801,4,4,2,"1461fdf",14,1
"1619",1,0,713,2,1,2,"1461fdf",15,1
"1719",1,1,305,1,1,2,"1461fdf",16,1
"1819",1,0,314,5,1,2,"1461fdf",17,1
"1919",1,0,1126,3,1,2,"1461fdf",18,1
"2019",0,1,386,6,1,2,"1461fdf",19,1
"2123",1,1,1133,6,6,2,"1461fdf",20,1
"2221",0,1,157,4,1,2,"1461fdf",21,1
"2319",1,1,368,2,2,2,"1461fdf",22,1
"2419",1,1,569,1,1,2,"1461fdf",23,1
"2519",1,0,441,1,3,2,"1461fdf",24,1
"2619",1,0,702,5,1,2,"1461fdf",25,1
"2719",0,0,759,4,4,2,"1461fdf",26,1
"2819",0,1,206,1,6,2,"1461fdf",27,1
"2919",0,1,177,4,1,2,"1461fdf",28,1
"3019",1,1,312,2,2,2,"1461fdf",29,1
"3123",1,1,269,6,6,2,"1461fdf",30,1
"3221",1,0,376,2,1,2,"1461fdf",31,1
"3319",1,1,143,5,5,2,"1461fdf",32,1
"3419",1,1,265,3,3,2,"1461fdf",33,1
"3519",0,1,17,6,1,2,"1461fdf",34,1
"3619",0,1,596,5,1,2,"1461fdf",35,1
"3719",1,1,1721,4,4,2,"1461fdf",36,1
"3819",1,0,354,1,2,2,"1461fdf",37,1
"3919",1,1,258,1,1,2,"1461fdf",38,1
"4019",1,1,145,6,6,2,"1461fdf",39,1
"4123",1,1,610,3,3,2,"1461fdf",40,1
"4221",1,1,570,2,2,2,"1461fdf",41,1
"4319",0,1,660,4,1,2,"1461fdf",42,1
"4419",1,1,584,5,5,2,"1461fdf",43,1
"4519",0,1,504,3,1,2,"1461fdf",44,1
"4619",1,0,147,4,1,2,"1461fdf",45,1
"4719",0,0,831,3,3,2,"1461fdf",46,1
"4819",1,1,391,1,1,2,"1461fdf",47,1
"4919",0,1,640,5,1,2,"1461fdf",48,1
"5019",1,0,345,2,1,2,"1461fdf",49,1
"5123",0,1,292,1,6,2,"1461fdf",50,1
"5221",0,0,559,2,2,2,"1461fdf",51,1
"5319",0,0,152,6,6,2,"1461fdf",52,1
"5419",1,0,296,3,1,2,"1461fdf",53,1
"5519",1,1,616,5,5,2,"1461fdf",54,1
"5619",1,1,311,4,4,2,"1461fdf",55,1
"5719",1,1,543,4,4,2,"1461fdf",56,1
"5819",1,0,425,2,1,2,"1461fdf",57,1
"5919",1,0,1003,6,1,2,"1461fdf",58,1
"6019",0,1,917,1,3,2,"1461fdf",59,1
"6123",1,0,718,4,1,2,"1461fdf",60,1
"6221",1,1,149,3,3,2,"1461fdf",61,1
"6319",0,1,428,5,1,2,"1461fdf",62,1
"6419",0,0,126,6,6,2,"1461fdf",63,1
"6519",0,0,1012,1,1,2,"1461fdf",64,1
"6619",1,1,68,5,5,2,"1461fdf",65,1
"6719",1,1,140,2,2,2,"1461fdf",66,1
"6819",1,1,581,4,4,2,"1461fdf",67,1
"6919",1,1,418,3,3,2,"1461fdf",68,1
"7019",1,1,720,2,2,2,"1461fdf",69,1
"7123",1,0,890,5,1,2,"1461fdf",70,1
"7220",0,1,1248,1,6,2,"1461fdf",71,1
"7319",1,0,745,3,1,2,"1461fdf",72,1
"7419",1,1,329,1,1,2,"1461fdf",73,1
"7519",1,1,184,6,6,2,"1461fdf",74,1
"7619",1,0,363,2,1,2,"1461fdf",75,1
"7719",1,1,499,5,5,2,"1461fdf",76,1
"7819",0,1,207,1,4,2,"1461fdf",77,1
"2104",0,1,74,5,1,3,"120be16",1,1
"3104",0,1,16,1,2,3,"120be16",2,1
"4104",0,0,213,3,3,3,"120be16",3,1
"5104",0,0,946,4,4,3,"120be16",4,1
"6104",0,1,354,6,1,3,"120be16",5,1
"795",0,0,634,1,1,3,"120be16",6,1
"820",0,0,355,2,2,3,"120be16",7,1
"920",0,0,660,5,5,3,"120be16",8,1
"1020",1,1,358,6,6,3,"120be16",9,1
"1120",0,1,453,4,1,3,"120be16",10,1
"1220",0,1,664,3,1,3,"120be16",11,1
"1320",1,0,447,2,1,3,"120be16",12,1
"1420",1,1,414,1,1,3,"120be16",13,1
"1520",0,1,426,5,1,3,"120be16",14,1
"1620",1,1,381,4,4,3,"120be16",15,1
"1720",1,1,396,3,3,3,"120be16",16,1
"1820",-1,-1,0,6,6,3,"120be16",17,1
"1920",1,1,346,5,5,3,"120be16",18,1
"2020",0,1,752,3,1,3,"120be16",19,1
"2124",1,1,737,2,2,3,"120be16",20,1
"2222",0,1,434,1,6,3,"120be16",21,1
"2320",0,1,522,4,1,3,"120be16",22,1
"2420",0,1,424,1,5,3,"120be16",23,1
"2520",1,1,379,3,3,3,"120be16",24,1
"2620",0,1,547,4,1,3,"120be16",25,1
"2720",1,1,424,1,1,3,"120be16",26,1
"2820",0,1,564,1,6,3,"120be16",27,1
"2920",0,1,373,1,2,3,"120be16",28,1
"3020",1,1,657,4,4,3,"120be16",29,1
"3124",1,1,407,6,6,3,"120be16",30,1
"3222",1,1,309,2,2,3,"120be16",31,1
"3320",1,1,437,5,5,3,"120be16",32,1
"3420",0,1,507,1,3,3,"120be16",33,1
"3520",1,1,569,4,4,3,"120be16",34,1
"3620",1,1,360,1,1,3,"120be16",35,1
"3720",0,1,363,1,2,3,"120be16",36,1
"3820",0,1,483,1,3,3,"120be16",37,1
"3920",1,1,443,6,6,3,"120be16",38,1
"4020",0,1,359,5,1,3,"120be16",39,1
"4124",0,1,396,4,1,3,"120be16",40,1
"4222",1,1,431,2,2,3,"120be16",41,1
"4320",1,1,568,5,5,3,"120be16",42,1
"4420",1,1,421,3,3,3,"120be16",43,1
"4520",0,1,443,1,6,3,"120be16",44,1
"4620",1,1,633,3,3,3,"120be16",45,1
"4720",1,1,457,1,1,3,"120be16",46,1
"4820",1,1,350,5,5,3,"120be16",47,1
"4920",1,1,357,6,6,3,"120be16",48,1
"5020",0,1,418,1,2,3,"120be16",49,1
"5124",0,1,396,5,1,3,"120be16",50,1
"5222",1,1,353,4,4,3,"120be16",51,1
"5320",0,1,367,1,6,3,"120be16",52,1
"5420",0,1,505,3,1,3,"120be16",53,1
"5520",0,1,415,4,1,3,"120be16",54,1
"5620",1,1,344,2,2,3,"120be16",55,1
"5720",1,1,563,3,3,3,"120be16",56,1
"5820",0,1,363,1,3,3,"120be16",57,1
"5920",1,1,341,6,6,3,"120be16",58,1
"6020",0,1,400,1,2,3,"120be16",59,1
"6124",0,1,1995,1,4,3,"120be16",60,1
"6222",1,1,354,4,4,3,"120be16",61,1
"6320",1,1,427,5,5,3,"120be16",62,1
"6420",1,1,306,1,1,3,"120be16",63,1
"6520",1,1,434,2,2,3,"120be16",64,1
"6620",0,1,695,5,1,3,"120be16",65,1
"6720",0,1,462,1,6,3,"120be16",66,1
"6820",0,1,307,1,4,3,"120be16",67,1
"6920",1,1,593,2,2,3,"120be16",68,1
"7020",1,1,207,6,6,3,"120be16",69,1
"7124",1,1,328,3,3,3,"120be16",70,1
"7221",1,0,422,2,1,3,"120be16",71,1
"7320",0,1,728,6,1,3,"120be16",72,1
"7420",0,0,296,4,4,3,"120be16",73,1
"7520",0,1,381,5,1,3,"120be16",74,1
"7620",1,1,370,5,5,3,"120be16",75,1
"7720",0,1,356,3,1,3,"120be16",76,1
"7820",1,1,348,1,1,3,"120be16",77,1
"2105",0,1,883,6,1,1,"1edbe50",1,1
"3105",1,1,987,2,2,1,"1edbe50",2,1
"4105",1,1,1044,3,3,1,"1edbe50",3,1
"5105",0,1,476,5,1,1,"1edbe50",4,1
"6105",0,1,614,1,2,1,"1edbe50",5,1
"796",1,1,536,5,5,1,"1edbe50",6,1
"821",1,1,877,1,1,1,"1edbe50",7,1
"921",0,1,472,4,1,1,"1edbe50",8,1
"1021",0,0,1939,4,4,1,"1edbe50",9,1
"1121",1,1,1771,6,6,1,"1edbe50",10,1
"1221",0,1,759,1,3,1,"1edbe50",11,1
"1321",0,1,370,3,1,1,"1edbe50",12,1
"1421",0,1,483,1,2,1,"1edbe50",13,1
"1521",1,1,539,5,5,1,"1edbe50",14,1
"1621",0,1,1077,5,1,1,"1edbe50",15,1
"1721",1,1,413,3,3,1,"1edbe50",16,1
"1821",1,1,1786,1,1,1,"1edbe50",17,1
"1921",1,1,1945,2,2,1,"1edbe50",18,1
"2021",1,1,697,4,4,1,"1edbe50",19,1
"2125",0,1,617,4,1,1,"1edbe50",20,1
"2223",1,1,1786,6,6,1,"1edbe50",21,1
"2321",0,1,416,6,1,1,"1edbe50",22,1
"2421",0,1,662,1,3,1,"1edbe50",23,1
"2521",0,1,802,1,2,1,"1edbe50",24,1
"2621",0,1,764,6,1,1,"1edbe50",25,1
"2721",1,1,1552,4,4,1,"1edbe50",26,1
"2821",1,1,615,1,1,1,"1edbe50",27,1
"2921",1,1,704,5,5,1,"1edbe50",28,1
"3021",1,1,157,3,3,1,"1edbe50",29,1
"3125",1,1,229,2,2,1,"1edbe50",30,1
"3223",1,1,461,6,6,1,"1edbe50",31,1
"3321",0,1,258,1,4,1,"1edbe50",32,1
"3421",0,1,168,5,1,1,"1edbe50",33,1
"3521",0,1,198,6,1,1,"1edbe50",34,1
"3621",-1,-1,0,3,1,1,"1edbe50",35,1
"3721",0,1,311,1,5,1,"1edbe50",36,1
"3821",1,1,1492,3,3,1,"1edbe50",37,1
"3921",1,1,1962,6,6,1,"1edbe50",38,1
"4021",0,0,1171,5,5,1,"1edbe50",39,1
"4125",1,1,373,2,2,1,"1edbe50",40,1
"4223",0,1,176,1,2,1,"1edbe50",41,1
"4321",0,1,343,1,4,1,"1edbe50",42,1
"4421",1,1,280,1,1,1,"1edbe50",43,1
"4521",0,0,1722,4,4,1,"1edbe50",44,1
"4621",1,1,1148,5,5,1,"1edbe50",45,1
"4721",0,1,262,2,1,1,"1edbe50",46,1
"4821",-1,-1,0,5,1,1,"1edbe50",47,1
"4921",1,1,1431,2,2,1,"1edbe50",48,1
"5021",0,1,1484,1,3,1,"1edbe50",49,1
"5125",1,1,809,3,3,1,"1edbe50",50,1
"5223",1,1,616,6,6,1,"1edbe50",51,1
"5321",0,1,346,6,1,1,"1edbe50",52,1
"5421",0,1,245,4,1,1,"1edbe50",53,1
"5521",1,1,356,4,4,1,"1edbe50",54,1
"5621",1,1,156,1,1,1,"1edbe50",55,1
"5721",0,1,394,2,1,1,"1edbe50",56,1
"5821",0,1,958,4,1,1,"1edbe50",57,1
"5921",1,1,543,1,1,1,"1edbe50",58,1
"6021",-1,-1,0,5,5,1,"1edbe50",59,1
"6125",1,1,493,6,6,1,"1edbe50",60,1
"6223",0,1,537,5,1,1,"1edbe50",61,1
"6321",1,1,263,4,4,1,"1edbe50",62,1
"6421",-1,-1,0,3,1,1,"1edbe50",63,1
"6521",0,1,895,1,6,1,"1edbe50",64,1
"6621",-1,-1,0,3,3,1,"1edbe50",65,1
"6721",1,1,220,2,2,1,"1edbe50",66,1
"6821",0,1,962,6,1,1,"1edbe50",67,1
"6921",1,1,1535,5,5,1,"1edbe50",68,1
"7021",-1,-1,0,1,2,1,"1edbe50",69,1
"7125",-1,-1,0,4,4,1,"1edbe50",70,1
"7222",-1,-1,0,1,5,1,"1edbe50",71,1
"7321",0,0,1933,3,3,1,"1edbe50",72,1
"7421",1,1,335,2,2,1,"1edbe50",73,1
"7521",1,1,163,1,1,1,"1edbe50",74,1
"7621",1,1,386,6,6,1,"1edbe50",75,1
"7721",0,1,494,4,1,1,"1edbe50",76,1
"7821",0,1,163,1,3,1,"1edbe50",77,1
"2106",1,1,107,2,2,1,"7b9562f",1,1
"3106",0,1,249,1,3,1,"7b9562f",2,1
"4106",0,0,46,5,5,1,"7b9562f",3,1
"5106",1,0,631,4,1,1,"7b9562f",4,1
"6106",0,1,213,1,2,1,"7b9562f",5,1
"797",0,0,144,6,6,1,"7b9562f",6,1
"822",0,1,228,5,1,1,"7b9562f",7,1
"922",0,1,8,6,1,1,"7b9562f",8,1
"1022",1,1,304,4,4,1,"7b9562f",9,1
"1122",1,1,236,1,1,1,"7b9562f",10,1
"1222",1,1,51,3,3,1,"7b9562f",11,1
"1322",0,0,108,5,5,1,"7b9562f",12,1
"1422",0,1,259,1,4,1,"7b9562f",13,1
"1522",0,0,84,3,3,1,"7b9562f",14,1
"1622",0,1,837,1,2,1,"7b9562f",15,1
"1722",1,1,70,2,2,1,"7b9562f",16,1
"1822",1,1,125,1,1,1,"7b9562f",17,1
"1922",1,1,305,6,6,1,"7b9562f",18,1
"2022",1,1,60,4,4,1,"7b9562f",19,1
"2126",0,1,1920,6,1,1,"7b9562f",20,1
"2224",0,1,116,1,5,1,"7b9562f",21,1
"2322",0,1,98,1,3,1,"7b9562f",22,1
"2422",1,1,219,3,3,1,"7b9562f",23,1
"2522",0,1,322,1,5,1,"7b9562f",24,1
"2622",0,1,455,4,1,1,"7b9562f",25,1
"2722",1,1,248,6,6,1,"7b9562f",26,1
"2822",1,1,179,1,1,1,"7b9562f",27,1
"2922",1,0,90,2,1,1,"7b9562f",28,1
"3022",1,1,159,4,4,1,"7b9562f",29,1
"3126",0,0,174,5,5,1,"7b9562f",30,1
"3224",1,1,101,2,2,1,"7b9562f",31,1
"3322",1,0,374,1,3,1,"7b9562f",32,1
"3422",0,1,363,6,1,1,"7b9562f",33,1
"3522",1,1,1094,2,2,1,"7b9562f",34,1
"3622",0,1,309,1,3,1,"7b9562f",35,1
"3722",1,1,432,1,1,1,"7b9562f",36,1
"3822",0,1,170,4,1,1,"7b9562f",37,1
"3922",1,1,150,3,3,1,"7b9562f",38,1
"4022",1,0,296,1,2,1,"7b9562f",39,1
"4126",0,1,725,5,1,1,"7b9562f",40,1
"4224",1,1,325,6,6,1,"7b9562f",41,1
"4322",1,1,333,5,5,1,"7b9562f",42,1
"4422",0,1,463,6,1,1,"7b9562f",43,1
"4522",0,0,214,4,4,1,"7b9562f",44,1
"4622",1,1,243,5,5,1,"7b9562f",45,1
"4722",0,1,157,5,1,1,"7b9562f",46,1
"4822",0,0,296,3,3,1,"7b9562f",47,1
"4922",1,0,202,1,2,1,"7b9562f",48,1
"5022",1,1,257,1,1,1,"7b9562f",49,1
"5126",1,1,46,2,2,1,"7b9562f",50,1
"5224",1,0,1141,3,1,1,"7b9562f",51,1
"5322",1,1,357,6,6,1,"7b9562f",52,1
"5422",0,1,177,6,1,1,"7b9562f",53,1
"5522",1,1,312,4,4,1,"7b9562f",54,1
"5622",0,1,1999,4,1,1,"7b9562f",55,1
"5722",1,1,209,4,4,1,"7b9562f",56,1
"5822",0,1,340,1,5,1,"7b9562f",57,1
"5922",1,1,266,1,1,1,"7b9562f",58,1
"6022",0,1,566,1,6,1,"7b9562f",59,1
"6126",0,1,426,4,1,1,"7b9562f",60,1
"6224",1,1,166,2,2,1,"7b9562f",61,1
"6322",0,0,1547,3,3,1,"7b9562f",62,1
"6422",1,0,554,2,1,1,"7b9562f",63,1
"6522",1,0,304,1,3,1,"7b9562f",64,1
"6622",1,1,52,6,6,1,"7b9562f",65,1
"6722",0,0,250,5,5,1,"7b9562f",66,1
"6822",1,1,144,5,5,1,"7b9562f",67,1
"6922",0,1,1338,3,1,1,"7b9562f",68,1
"7022",1,1,225,3,3,1,"7b9562f",69,1
"7126",1,1,180,2,2,1,"7b9562f",70,1
"7223",1,1,244,1,1,1,"7b9562f",71,1
"7322",0,1,248,4,1,1,"7b9562f",72,1
"7422",1,1,360,4,4,1,"7b9562f",73,1
"7522",0,1,277,5,1,1,"7b9562f",74,1
"7622",1,1,292,6,6,1,"7b9562f",75,1
"7722",0,1,244,1,6,1,"7b9562f",76,1
"7822",0,1,196,2,1,1,"7b9562f",77,1
"2107",1,0,722,1,2,3,"1d950be",1,1
"3107",1,0,288,1,3,3,"1d950be",2,1
"4107",0,1,292,1,6,3,"1d950be",3,1
"5107",0,1,479,4,1,3,"1d950be",4,1
"6107",1,1,267,3,3,3,"1d950be",5,1
"798",0,0,259,5,5,3,"1d950be",6,1
"823",1,1,250,6,6,3,"1d950be",7,1
"923",1,1,121,4,4,3,"1d950be",8,1
"1023",1,1,297,2,2,3,"1d950be",9,1
"1123",1,1,287,1,1,3,"1d950be",10,1
"1223",0,1,385,1,5,3,"1d950be",11,1
"1323",0,1,422,1,5,3,"1d950be",12,1
"1423",0,1,556,6,1,3,"1d950be",13,1
"1523",1,1,260,4,4,3,"1d950be",14,1
"1623",1,1,278,6,6,3,"1d950be",15,1
"1723",1,0,264,3,1,3,"1d950be",16,1
"1823",1,1,249,5,5,3,"1d950be",17,1
"1923",1,1,249,3,3,3,"1d950be",18,1
"2023",0,1,287,1,4,3,"1d950be",19,1
"2127",1,1,500,1,1,3,"1d950be",20,1
"2225",1,1,272,2,2,3,"1d950be",21,1
"2323",1,0,242,1,2,3,"1d950be",22,1
"2423",1,1,234,2,2,3,"1d950be",23,1
"2523",1,1,290,4,4,3,"1d950be",24,1
"2623",0,0,363,6,6,3,"1d950be",25,1
"2723",0,1,238,1,3,3,"1d950be",26,1
"2823",1,1,188,3,3,3,"1d950be",27,1
"2923",0,1,387,5,1,3,"1d950be",28,1
"3023",1,1,290,5,5,3,"1d950be",29,1
"3127",0,1,691,1,6,3,"1d950be",30,1
"3225",1,0,289,1,2,3,"1d950be",31,1
"3323",0,1,442,4,1,3,"1d950be",32,1
"3423",1,1,236,1,1,3,"1d950be",33,1
"3523",1,1,289,1,1,3,"1d950be",34,1
"3623",1,1,249,3,3,3,"1d950be",35,1
"3723",1,1,264,5,5,3,"1d950be",36,1
"3823",1,0,263,1,2,3,"1d950be",37,1
"3923",0,1,272,3,1,3,"1d950be",38,1
"4023",0,0,390,6,6,3,"1d950be",39,1
"4127",0,1,295,1,4,3,"1d950be",40,1
"4225",0,0,238,4,4,3,"1d950be",41,1
"4323",0,1,301,5,1,3,"1d950be",42,1
"4423",0,1,438,1,6,3,"1d950be",43,1
"4523",1,1,220,2,2,3,"1d950be",44,1
"4623",0,1,475,6,1,3,"1d950be",45,1
"4723",1,1,391,2,2,3,"1d950be",46,1
"4823",1,1,219,3,3,3,"1d950be",47,1
"4923",0,1,388,3,1,3,"1d950be",48,1
"5023",0,1,257,1,5,3,"1d950be",49,1
"5127",1,1,521,5,5,3,"1d950be",50,1
"5225",1,1,274,4,4,3,"1d950be",51,1
"5323",1,1,212,6,6,3,"1d950be",52,1
"5423",1,1,281,1,1,3,"1d950be",53,1
"5523",0,1,297,4,1,3,"1d950be",54,1
"5623",0,1,266,1,2,3,"1d950be",55,1
"5723",0,1,329,4,1,3,"1d950be",56,1
"5823",1,1,274,1,1,3,"1d950be",57,1
"5923",1,1,247,6,6,3,"1d950be",58,1
"6023",0,1,401,1,6,3,"1d950be",59,1
"6127",1,1,346,4,4,3,"1d950be",60,1
"6225",0,1,288,5,1,3,"1d950be",61,1
"6323",1,1,283,2,2,3,"1d950be",62,1
"6423",1,1,250,3,3,3,"1d950be",63,1
"6523",1,0,258,1,2,3,"1d950be",64,1
"6623",0,1,266,3,1,3,"1d950be",65,1
"6723",1,1,309,5,5,3,"1d950be",66,1
"6823",0,1,297,6,1,3,"1d950be",67,1
"6923",0,0,461,6,6,3,"1d950be",68,1
"7023",1,0,315,1,2,3,"1d950be",69,1
"7127",0,1,283,1,4,3,"1d950be",70,1
"7224",1,1,252,3,3,3,"1d950be",71,1
"7323",1,1,445,4,4,3,"1d950be",72,1
"7423",1,1,273,1,1,3,"1d950be",73,1
"7523",0,1,304,5,1,3,"1d950be",74,1
"7623",1,1,264,2,2,3,"1d950be",75,1
"7723",0,1,265,3,1,3,"1d950be",76,1
"7823",1,1,310,5,5,3,"1d950be",77,1
"2108",0,1,371,1,6,2,"1f08a1e",1,1
"3108",1,1,291,1,1,2,"1f08a1e",2,1
"4108",0,1,357,1,4,2,"1f08a1e",3,1
"5108",1,1,293,5,5,2,"1f08a1e",4,1
"6108",0,1,357,1,3,2,"1f08a1e",5,1
"799",1,1,314,2,2,2,"1f08a1e",6,1
"824",1,1,298,4,4,2,"1f08a1e",7,1
"924",1,0,300,1,2,2,"1f08a1e",8,1
"1024",1,1,398,6,6,2,"1f08a1e",9,1
"1124",1,1,303,3,3,2,"1f08a1e",10,1
"1224",0,1,305,1,5,2,"1f08a1e",11,1
"1324",1,1,355,1,1,2,"1f08a1e",12,1
"1424",1,1,325,5,5,2,"1f08a1e",13,1
"1524",1,1,504,2,2,2,"1f08a1e",14,1
"1624",0,1,374,1,5,2,"1f08a1e",15,1
"1724",1,1,362,6,6,2,"1f08a1e",16,1
"1824",1,0,312,2,1,2,"1f08a1e",17,1
"1924",0,1,346,1,3,2,"1f08a1e",18,1
"2024",0,1,300,6,1,2,"1f08a1e",19,1
"2128",1,1,317,3,3,2,"1f08a1e",20,1
"2226",0,1,316,1,4,2,"1f08a1e",21,1
"2324",1,1,304,4,4,2,"1f08a1e",22,1
"2424",1,1,321,4,4,2,"1f08a1e",23,1
"2524",1,1,274,6,6,2,"1f08a1e",24,1
"2624",0,1,293,4,1,2,"1f08a1e",25,1
"2724",0,1,310,2,1,2,"1f08a1e",26,1
"2824",1,1,312,5,5,2,"1f08a1e",27,1
"2924",1,1,492,3,3,2,"1f08a1e",28,1
"3024",1,1,268,1,1,2,"1f08a1e",29,1
"3128",0,1,351,1,6,2,"1f08a1e",30,1
"3226",0,1,270,5,1,2,"1f08a1e",31,1
"3324",1,1,289,2,2,2,"1f08a1e",32,1
"3424",0,1,291,3,1,2,"1f08a1e",33,1
"3524",0,1,293,1,5,2,"1f08a1e",34,1
"3624",1,1,359,1,1,2,"1f08a1e",35,1
"3724",0,1,298,4,1,2,"1f08a1e",36,1
"3824",0,1,283,6,1,2,"1f08a1e",37,1
"3924",1,0,287,1,2,2,"1f08a1e",38,1
"4024",1,1,254,5,5,2,"1f08a1e",39,1
"4128",1,1,257,6,6,2,"1f08a1e",40,1
"4226",1,1,275,2,2,2,"1f08a1e",41,1
"4324",0,1,309,1,3,2,"1f08a1e",42,1
"4424",1,1,295,4,4,2,"1f08a1e",43,1
"4524",1,1,249,3,3,2,"1f08a1e",44,1
"4624",1,1,235,3,3,2,"1f08a1e",45,1
"4724",1,1,286,5,5,2,"1f08a1e",46,1
"4824",1,0,254,2,1,2,"1f08a1e",47,1
"4924",1,1,273,4,4,2,"1f08a1e",48,1
"5024",0,1,306,1,6,2,"1f08a1e",49,1
"5128",0,1,260,4,1,2,"1f08a1e",50,1
"5226",0,1,407,1,5,2,"1f08a1e",51,1
"5324",1,1,296,1,1,2,"1f08a1e",52,1
"5424",1,1,281,6,6,2,"1f08a1e",53,1
"5524",1,1,251,2,2,2,"1f08a1e",54,1
"5624",0,1,283,1,3,2,"1f08a1e",55,1
"5724",0,1,252,1,3,2,"1f08a1e",56,1
"5824",1,1,267,5,5,2,"1f08a1e",57,1
"5924",1,1,289,2,2,2,"1f08a1e",58,1
"6024",1,1,242,6,6,2,"1f08a1e",59,1
"6128",0,1,307,6,1,2,"1f08a1e",60,1
"6226",1,1,291,1,1,2,"1f08a1e",61,1
"6324",1,1,228,4,4,2,"1f08a1e",62,1
"6424",1,0,264,1,2,2,"1f08a1e",63,1
"6524",0,1,281,1,4,2,"1f08a1e",64,1
"6624",0,1,330,1,5,2,"1f08a1e",65,1
"6724",1,1,269,3,3,2,"1f08a1e",66,1
"6824",0,1,189,4,1,2,"1f08a1e",67,1
"6924",0,1,304,3,1,2,"1f08a1e",68,1
"7024",1,1,259,5,5,2,"1f08a1e",69,1
"7128",1,0,325,1,2,2,"1f08a1e",70,1
"7225",0,1,356,1,6,2,"1f08a1e",71,1
"7324",1,1,295,4,4,2,"1f08a1e",72,1
"7424",1,1,344,1,1,2,"1f08a1e",73,1
"7524",0,1,250,5,1,2,"1f08a1e",74,1
"7624",1,1,298,3,3,2,"1f08a1e",75,1
"7724",1,1,268,2,2,2,"1f08a1e",76,1
"7824",1,1,283,6,6,2,"1f08a1e",77,1
"2109",1,1,739,1,1,1,"1ba0e63",1,1
"3109",1,1,448,2,2,1,"1ba0e63",2,1
"4109",1,0,505,6,1,1,"1ba0e63",3,1
"5109",1,0,349,1,3,1,"1ba0e63",4,1
"6109",0,0,305,6,6,1,"1ba0e63",5,1
"7100",1,1,391,5,5,1,"1ba0e63",6,1
"825",1,1,432,4,4,1,"1ba0e63",7,1
"925",1,1,506,3,3,1,"1ba0e63",8,1
"1025",0,1,228,1,2,1,"1ba0e63",9,1
"1125",0,1,337,4,1,1,"1ba0e63",10,1
"1225",0,1,327,5,1,1,"1ba0e63",11,1
"1325",1,1,375,3,3,1,"1ba0e63",12,1
"1425",0,1,478,1,6,1,"1ba0e63",13,1
"1525",1,1,481,2,2,1,"1ba0e63",14,1
"1625",1,1,505,4,4,1,"1ba0e63",15,1
"1725",1,1,411,5,5,1,"1ba0e63",16,1
"1825",0,1,395,1,4,1,"1ba0e63",17,1
"1925",1,1,384,6,6,1,"1ba0e63",18,1
"2025",1,1,272,1,1,1,"1ba0e63",19,1
"2129",0,1,555,1,3,1,"1ba0e63",20,1
"2227",1,0,326,1,5,1,"1ba0e63",21,1
"2325",1,0,507,2,1,1,"1ba0e63",22,1
"2425",1,1,741,6,6,1,"1ba0e63",23,1
"2525",0,0,722,1,1,1,"1ba0e63",24,1
"2625",1,1,1648,4,4,1,"1ba0e63",25,1
"2725",0,1,289,4,1,1,"1ba0e63",26,1
"2825",0,1,223,1,6,1,"1ba0e63",27,1
"2925",1,0,485,1,2,1,"1ba0e63",28,1
"3025",1,0,417,5,1,1,"1ba0e63",29,1
"3129",0,1,332,3,1,1,"1ba0e63",30,1
"3227",1,1,1521,5,5,1,"1ba0e63",31,1
"3325",1,1,296,3,3,1,"1ba0e63",32,1
"3425",0,0,368,2,2,1,"1ba0e63",33,1
"3525",0,1,782,6,1,1,"1ba0e63",34,1
"3625",1,1,321,1,1,1,"1ba0e63",35,1
"3725",1,1,425,4,4,1,"1ba0e63",36,1
"3825",0,1,301,1,3,1,"1ba0e63",37,1
"3925",1,1,367,5,5,1,"1ba0e63",38,1
"4025",1,0,377,1,4,1,"1ba0e63",39,1
"4129",1,1,392,6,6,1,"1ba0e63",40,1
"4227",0,1,431,5,1,1,"1ba0e63",41,1
"4325",1,0,415,2,1,1,"1ba0e63",42,1
"4425",1,1,305,3,3,1,"1ba0e63",43,1
"4525",1,1,396,2,2,1,"1ba0e63",44,1
"4625",1,1,403,6,6,1,"1ba0e63",45,1
"4725",0,0,343,5,5,1,"1ba0e63",46,1
"4825",1,0,246,1,2,1,"1ba0e63",47,1
"4925",1,0,291,1,4,1,"1ba0e63",48,1
"5025",1,1,866,3,3,1,"1ba0e63",49,1
"5129",1,1,1424,1,1,1,"1ba0e63",50,1
"5227",1,1,263,2,2,1,"1ba0e63",51,1
"5325",0,1,426,6,1,1,"1ba0e63",52,1
"5425",0,1,882,1,5,1,"1ba0e63",53,1
"5525",1,1,1375,4,4,1,"1ba0e63",54,1
"5625",1,0,420,1,3,1,"1ba0e63",55,1
"5725",1,1,443,4,4,1,"1ba0e63",56,1
"5825",1,0,461,2,1,1,"1ba0e63",57,1
"5925",1,1,429,1,1,1,"1ba0e63",58,1
"6025",0,1,267,1,4,1,"1ba0e63",59,1
"6129",1,1,461,2,2,1,"1ba0e63",60,1
"6227",1,1,238,3,3,1,"1ba0e63",61,1
"6325",0,1,354,1,3,1,"1ba0e63",62,1
"6425",0,1,423,5,1,1,"1ba0e63",63,1
"6525",0,1,487,1,6,1,"1ba0e63",64,1
"6625",1,1,1303,6,6,1,"1ba0e63",65,1
"6725",1,1,578,5,5,1,"1ba0e63",66,1
"6825",0,1,877,6,1,1,"1ba0e63",67,1
"6925",1,1,339,4,4,1,"1ba0e63",68,1
"7025",1,1,990,2,2,1,"1ba0e63",69,1
"7129",1,0,548,3,1,1,"1ba0e63",70,1
"7226",1,0,272,1,2,1,"1ba0e63",71,1
"7325",0,1,275,1,4,1,"1ba0e63",72,1
"7425",0,0,489,3,3,1,"1ba0e63",73,1
"7525",1,1,582,1,1,1,"1ba0e63",74,1
"7625",1,1,694,5,5,1,"1ba0e63",75,1
"7725",1,0,1289,5,1,1,"1ba0e63",76,1
"7825",1,1,355,6,6,1,"1ba0e63",77,1
"2130",1,1,987,2,2,1,"1549257",1,1
"3130",1,1,587,4,4,1,"1549257",2,1
"4130",1,0,490,2,1,1,"1549257",3,1
"5130",0,0,446,1,1,1,"1549257",4,1
"6130",1,0,576,6,1,1,"1549257",5,1
"7101",1,0,622,1,4,1,"1549257",6,1
"826",1,0,609,1,3,1,"1549257",7,1
"926",0,1,527,5,1,1,"1549257",8,1
"1026",0,0,540,3,3,1,"1549257",9,1
"1126",1,1,443,5,5,1,"1549257",10,1
"1226",1,1,416,6,6,1,"1549257",11,1
"1326",0,1,532,1,3,1,"1549257",12,1
"1426",1,1,459,1,1,1,"1549257",13,1
"1526",0,0,580,4,4,1,"1549257",14,1
"1626",0,1,600,1,6,1,"1549257",15,1
"1726",1,1,365,2,2,1,"1549257",16,1
"1826",1,1,348,5,5,1,"1549257",17,1
"1926",1,1,465,6,6,1,"1549257",18,1
"2026",0,1,612,5,1,1,"1549257",19,1
"2131",1,0,477,1,4,1,"1549257",20,1
"2228",1,0,396,2,1,1,"1549257",21,1
"2326",1,1,427,3,3,1,"1549257",22,1
"2426",0,0,75,1,1,1,"1549257",23,1
"2526",0,1,402,1,6,1,"1549257",24,1
"2626",1,0,358,1,3,1,"1549257",25,1
"2726",0,1,739,1,2,1,"1549257",26,1
"2826",1,0,365,4,1,1,"1549257",27,1
"2926",1,1,465,4,4,1,"1549257",28,1
"3026",0,1,610,5,1,1,"1549257",29,1
"3131",0,0,518,5,5,1,"1549257",30,1
"3228",1,1,393,3,3,1,"1549257",31,1
"3326",1,1,411,6,6,1,"1549257",32,1
"3426",1,1,386,2,2,1,"1549257",33,1
"3526",0,1,634,1,4,1,"1549257",34,1
"3626",1,0,417,1,3,1,"1549257",35,1
"3726",0,1,437,1,6,1,"1549257",36,1
"3826",1,1,376,2,2,1,"1549257",37,1
"3926",1,0,476,1,2,1,"1549257",38,1
"4026",1,1,659,3,3,1,"1549257",39,1
"4131",1,1,466,5,5,1,"1549257",40,1
"4228",0,1,506,5,1,1,"1549257",41,1
"4326",1,1,442,4,4,1,"1549257",42,1
"4426",0,0,442,6,6,1,"1549257",43,1
"4526",1,1,416,1,1,1,"1549257",44,1
"4626",1,1,476,2,2,1,"1549257",45,1
"4726",1,1,382,5,5,1,"1549257",46,1
"4826",0,1,596,1,6,1,"1549257",47,1
"4926",0,1,539,1,3,1,"1549257",48,1
"5026",0,1,381,1,5,1,"1549257",49,1
"5131",1,0,441,2,1,1,"1549257",50,1
"5228",1,1,490,3,3,1,"1549257",51,1
"5326",1,1,528,4,4,1,"1549257",52,1
"5426",1,1,346,1,1,1,"1549257",53,1
"5526",0,1,549,1,4,1,"1549257",54,1
"5626",1,1,459,6,6,1,"1549257",55,1
"5726",1,1,466,3,3,1,"1549257",56,1
"5826",1,1,324,1,1,1,"1549257",57,1
"5926",0,1,486,1,5,1,"1549257",58,1
"6026",0,1,450,1,6,1,"1549257",59,1
"6131",1,1,447,5,5,1,"1549257",60,1
"6228",1,1,554,6,6,1,"1549257",61,1
"6326",1,1,405,4,4,1,"1549257",62,1
"6426",0,1,347,1,4,1,"1549257",63,1
"6526",1,1,340,2,2,1,"1549257",64,1
"6626",1,0,347,2,1,1,"1549257",65,1
"6726",0,1,384,1,3,1,"1549257",66,1
"6826",1,1,427,5,5,1,"1549257",67,1
"6926",0,1,443,2,1,1,"1549257",68,1
"7026",1,1,1205,1,1,1,"1549257",69,1
"7130",1,1,424,4,4,1,"1549257",70,1
"7227",0,1,443,1,4,1,"1549257",71,1
"7326",0,1,1306,1,6,1,"1549257",72,1
"7426",0,1,620,5,1,1,"1549257",73,1
"7526",1,1,713,2,2,1,"1549257",74,1
"7626",1,0,1969,3,1,1,"1549257",75,1
"7726",1,1,521,6,6,1,"1549257",76,1
"7826",1,1,434,3,3,1,"1549257",77,1
"2132",0,1,450,4,1,3,"174496e",1,2
"3132",1,1,368,1,1,3,"174496e",2,2
"4132",0,1,316,1,3,3,"174496e",3,2
"5132",1,1,106,3,3,3,"174496e",4,2
"6132",1,0,269,1,2,3,"174496e",5,2
"7102",1,1,226,4,4,3,"174496e",6,2
"827",0,0,279,6,6,3,"174496e",7,2
"927",1,1,338,5,5,3,"174496e",8,2
"1027",0,1,253,1,6,3,"174496e",9,2
"1127",1,1,266,2,2,3,"174496e",10,2
"1227",0,1,294,1,5,3,"174496e",11,2
"1327",1,1,291,6,6,3,"174496e",12,2
"1427",1,1,383,1,1,3,"174496e",13,2
"1527",1,1,252,3,3,3,"174496e",14,2
"1627",1,1,296,4,4,3,"174496e",15,2
"1727",1,1,270,2,2,3,"174496e",16,2
"1827",0,1,315,2,1,3,"174496e",17,2
"1927",0,1,236,1,5,3,"174496e",18,2
"2027",0,1,277,1,3,3,"174496e",19,2
"2133",0,1,269,1,4,3,"174496e",20,2
"2229",1,1,125,5,5,3,"174496e",21,2
"2327",0,1,340,1,6,3,"174496e",22,2
"2427",1,1,367,6,6,3,"174496e",23,2
"2527",1,1,276,5,5,3,"174496e",24,2
"2627",0,1,363,2,1,3,"174496e",25,2
"2727",0,0,236,2,2,3,"174496e",26,2
"2827",0,1,241,1,6,3,"174496e",27,2
"2927",1,1,433,1,1,3,"174496e",28,2
"3027",1,1,428,3,3,3,"174496e",29,2
"3133",0,1,324,5,1,3,"174496e",30,2
"3229",0,1,244,1,3,3,"174496e",31,2
"3327",1,1,259,4,4,3,"174496e",32,2
"3427",0,1,515,4,1,3,"174496e",33,2
"3527",0,1,339,3,1,3,"174496e",34,2
"3627",1,1,278,3,3,3,"174496e",35,2
"3727",0,1,458,5,1,3,"174496e",36,2
"3827",1,1,414,1,1,3,"174496e",37,2
"3927",0,1,246,6,1,3,"174496e",38,2
"4027",1,1,444,4,4,3,"174496e",39,2
"4133",1,0,263,2,1,3,"174496e",40,2
"4229",1,1,369,5,5,3,"174496e",41,2
"4327",1,1,325,2,2,3,"174496e",42,2
"4427",0,0,268,6,6,3,"174496e",43,2
"4527",0,1,287,4,1,3,"174496e",44,2
"4627",0,1,273,4,1,3,"174496e",45,2
"4727",1,1,145,4,4,3,"174496e",46,2
"4827",1,1,662,2,2,3,"174496e",47,2
"4927",0,1,270,3,1,3,"174496e",48,2
"5027",0,1,356,1,6,3,"174496e",49,2
"5133",1,1,335,3,3,3,"174496e",50,2
"5229",0,1,376,5,1,3,"174496e",51,2
"5327",1,1,406,1,1,3,"174496e",52,2
"5427",1,1,461,6,6,3,"174496e",53,2
"5527",1,0,325,1,2,3,"174496e",54,2
"5627",1,1,259,5,5,3,"174496e",55,2
"5727",1,1,252,3,3,3,"174496e",56,2
"5827",1,0,925,1,2,3,"174496e",57,2
"5927",0,1,332,1,5,3,"174496e",58,2
"6027",1,1,398,2,2,3,"174496e",59,2
"6133",0,1,359,1,4,3,"174496e",60,2
"6229",1,1,320,6,6,3,"174496e",61,2
"6327",1,1,435,5,5,3,"174496e",62,2
"6427",0,1,352,1,3,3,"174496e",63,2
"6527",0,1,456,1,6,3,"174496e",64,2
"6627",1,1,210,4,4,3,"174496e",65,2
"6727",1,1,469,1,1,3,"174496e",66,2
"6827",1,1,554,6,6,3,"174496e",67,2
"6927",0,1,288,1,4,3,"174496e",68,2
"7027",0,1,343,5,1,3,"174496e",69,2
"7131",1,0,305,2,1,3,"174496e",70,2
"7228",0,1,29,3,1,3,"174496e",71,2
"7327",0,1,327,6,1,3,"174496e",72,2
"7427",1,1,229,2,2,3,"174496e",73,2
"7527",0,0,222,1,1,3,"174496e",74,2
"7627",1,1,340,5,5,3,"174496e",75,2
"7727",1,1,130,3,3,3,"174496e",76,2
"7827",1,1,203,4,4,3,"174496e",77,2
"2134",1,1,332,6,6,2,"1756f5f",1,2
"3134",0,1,699,3,1,2,"1756f5f",2,2
"4134",1,0,449,2,1,2,"1756f5f",3,2
"5134",0,0,399,4,4,2,"1756f5f",4,2
"6134",1,1,311,1,1,2,"1756f5f",5,2
"7103",0,1,393,6,1,2,"1756f5f",6,2
"828",0,1,399,4,1,2,"1756f5f",7,2
"928",1,1,745,5,5,2,"1756f5f",8,2
"1028",1,1,321,2,2,2,"1756f5f",9,2
"1128",1,1,1159,3,3,2,"1756f5f",10,2
"1228",0,1,334,5,1,2,"1756f5f",11,2
"1328",0,1,475,2,1,2,"1756f5f",12,2
"1428",0,1,450,5,1,2,"1756f5f",13,2
"1528",0,1,398,3,1,2,"1756f5f",14,2
"1628",0,1,409,1,4,2,"1756f5f",15,2
"1728",1,1,351,6,6,2,"1756f5f",16,2
"1828",1,1,325,5,5,2,"1756f5f",17,2
"1928",0,1,432,1,6,2,"1756f5f",18,2
"2028",1,1,366,3,3,2,"1756f5f",19,2
"2135",1,1,637,1,1,2,"1756f5f",20,2
"2230",0,0,655,4,4,2,"1756f5f",21,2
"2328",1,1,525,2,2,2,"1756f5f",22,2
"2428",1,1,382,5,5,2,"1756f5f",23,2
"2528",0,0,235,4,4,2,"1756f5f",24,2
"2628",0,1,534,6,1,2,"1756f5f",25,2
"2728",1,1,320,2,2,2,"1756f5f",26,2
"2828",0,1,538,1,3,2,"1756f5f",27,2
"2928",1,1,472,6,6,2,"1756f5f",28,2
"3028",1,0,526,1,2,2,"1756f5f",29,2
"3135",0,1,530,4,1,2,"1756f5f",30,2
"3230",0,1,497,5,1,2,"1756f5f",31,2
"3328",1,1,754,1,1,2,"1756f5f",32,2
"3428",0,0,351,3,3,2,"1756f5f",33,2
"3528",0,1,791,1,4,2,"1756f5f",34,2
"3628",0,0,470,4,4,2,"1756f5f",35,2
"3728",0,1,345,2,1,2,"1756f5f",36,2
"3828",1,1,382,5,5,2,"1756f5f",37,2
"3928",1,1,314,3,3,2,"1756f5f",38,2
"4028",1,1,348,2,2,2,"1756f5f",39,2
"4135",0,1,338,1,3,2,"1756f5f",40,2
"4230",1,1,512,1,1,2,"1756f5f",41,2
"4328",0,1,505,1,5,2,"1756f5f",42,2
"4428",0,1,396,1,6,2,"1756f5f",43,2
"4528",1,1,465,6,6,2,"1756f5f",44,2
"4628",1,1,360,6,6,2,"1756f5f",45,2
"4728",0,1,413,4,1,2,"1756f5f",46,2
"4828",0,1,1169,3,1,2,"1756f5f",47,2
"4928",0,1,813,1,6,2,"1756f5f",48,2
"5028",0,1,572,5,1,2,"1756f5f",49,2
"5135",1,1,873,5,5,2,"1756f5f",50,2
"5230",1,1,491,1,1,2,"1756f5f",51,2
"5328",1,0,348,1,2,2,"1756f5f",52,2
"5428",0,0,490,2,2,2,"1756f5f",53,2
"5528",1,1,439,4,4,2,"1756f5f",54,2
"5628",1,1,382,3,3,2,"1756f5f",55,2
"5728",1,1,415,6,6,2,"1756f5f",56,2
"5828",0,1,73,6,1,2,"1756f5f",57,2
"5928",1,1,512,5,5,2,"1756f5f",58,2
"6028",0,0,456,2,2,2,"1756f5f",59,2
"6135",1,1,462,1,1,2,"1756f5f",60,2
"6230",0,1,468,1,3,2,"1756f5f",61,2
"6328",0,1,603,2,1,2,"1756f5f",62,2
"6428",0,0,876,3,3,2,"1756f5f",63,2
"6528",1,1,413,4,4,2,"1756f5f",64,2
"6628",0,1,590,1,4,2,"1756f5f",65,2
"6728",0,1,574,1,5,2,"1756f5f",66,2
"6828",1,1,459,6,6,2,"1756f5f",67,2
"6928",0,1,362,1,4,2,"1756f5f",68,2
"7028",1,0,388,1,2,2,"1756f5f",69,2
"7132",1,1,551,1,1,2,"1756f5f",70,2
"7229",0,1,547,1,6,2,"1756f5f",71,2
"7328",0,1,580,5,1,2,"1756f5f",72,2
"7428",1,1,509,2,2,2,"1756f5f",73,2
"7528",1,1,430,3,3,2,"1756f5f",74,2
"7628",1,1,497,5,5,2,"1756f5f",75,2
"7728",1,0,349,1,3,2,"1756f5f",76,2
"7828",1,1,438,4,4,2,"1756f5f",77,2
"2136",1,1,164,3,3,3,"172870b",1,2
"3136",0,1,570,5,1,3,"172870b",2,2
"4136",1,1,450,2,2,3,"172870b",3,2
"5136",0,1,302,1,3,3,"172870b",4,2
"6136",1,1,343,5,5,3,"172870b",5,2
"7104",1,1,226,4,4,3,"172870b",6,2
"829",1,0,197,1,2,3,"172870b",7,2
"929",0,1,363,1,4,3,"172870b",8,2
"1029",1,1,464,6,6,3,"172870b",9,2
"1129",0,1,411,6,1,3,"172870b",10,2
"1229",1,1,101,1,1,3,"172870b",11,2
"1329",1,1,265,2,2,3,"172870b",12,2
"1429",1,1,538,4,4,3,"172870b",13,2
"1529",1,0,347,2,1,3,"172870b",14,2
"1629",1,1,108,5,5,3,"172870b",15,2
"1729",1,0,322,1,5,3,"172870b",16,2
"1829",1,1,890,3,3,3,"172870b",17,2
"1929",1,1,104,6,6,3,"172870b",18,2
"2029",1,1,309,1,1,3,"172870b",19,2
"2137",0,1,271,4,1,3,"172870b",20,2
"2231",0,1,451,6,1,3,"172870b",21,2
"2329",1,0,306,3,1,3,"172870b",22,2
"2429",1,1,187,2,2,3,"172870b",23,2
"2529",0,1,143,1,5,3,"172870b",24,2
"2629",1,1,232,5,5,3,"172870b",25,2
"2729",0,1,249,4,1,3,"172870b",26,2
"2829",0,0,100,1,1,3,"172870b",27,2
"2929",1,1,470,3,3,3,"172870b",28,2
"3029",1,0,409,1,6,3,"172870b",29,2
"3137",1,0,317,1,2,3,"172870b",30,2
"3231",1,0,470,1,3,3,"172870b",31,2
"3329",1,1,223,6,6,3,"172870b",32,2
"3429",1,1,258,4,4,3,"172870b",33,2
"3529",1,1,295,4,4,3,"172870b",34,2
"3629",0,0,239,1,1,3,"172870b",35,2
"3729",0,0,247,2,2,3,"172870b",36,2
"3829",1,1,277,5,5,3,"172870b",37,2
"3929",0,1,294,1,4,3,"172870b",38,2
"4029",0,1,389,6,1,3,"172870b",39,2
"4137",0,1,305,3,1,3,"172870b",40,2
"4231",1,1,530,3,3,3,"172870b",41,2
"4329",1,0,293,2,1,3,"172870b",42,2
"4429",0,1,242,1,5,3,"172870b",43,2
"4529",1,1,470,6,6,3,"172870b",44,2
"4629",1,1,100,1,1,3,"172870b",45,2
"4729",0,0,279,5,5,3,"172870b",46,2
"4829",0,1,270,1,3,3,"172870b",47,2
"4929",1,1,1202,6,6,3,"172870b",48,2
"5029",0,1,105,1,5,3,"172870b",49,2
"5137",0,1,428,6,1,3,"172870b",50,2
"5231",1,1,266,2,2,3,"172870b",51,2
"5329",0,1,1429,1,4,3,"172870b",52,2
"5429",1,0,410,1,2,3,"172870b",53,2
"5529",1,1,279,3,3,3,"172870b",54,2
"5629",1,1,309,4,4,3,"172870b",55,2
"5729",1,1,48,5,5,3,"172870b",56,2
"5829",0,1,323,1,6,3,"172870b",57,2
"5929",0,1,245,1,4,3,"172870b",58,2
"6029",1,1,254,2,2,3,"172870b",59,2
"6137",1,1,355,1,1,3,"172870b",60,2
"6231",0,1,396,1,5,3,"172870b",61,2
"6329",1,1,276,3,3,3,"172870b",62,2
"6429",1,1,234,6,6,3,"172870b",63,2
"6529",1,1,270,4,4,3,"172870b",64,2
"6629",1,0,382,2,1,3,"172870b",65,2
"6729",0,1,307,3,1,3,"172870b",66,2
"6829",1,1,394,1,1,3,"172870b",67,2
"6929",1,1,308,5,5,3,"172870b",68,2
"7029",0,1,317,1,5,3,"172870b",69,2
"7133",1,1,530,6,6,3,"172870b",70,2
"7230",0,1,364,1,4,3,"172870b",71,2
"7329",1,1,349,2,2,3,"172870b",72,2
"7429",0,1,327,6,1,3,"172870b",73,2
"7529",1,1,494,3,3,3,"172870b",74,2
"7629",1,0,232,3,1,3,"172870b",75,2
"7729",1,0,582,2,1,3,"172870b",76,2
"7829",1,1,265,4,4,3,"172870b",77,2
"2138",1,0,398,4,1,3,"1e5ffee",1,2
"3138",1,1,387,3,3,3,"1e5ffee",2,2
"4138",1,1,472,5,5,3,"1e5ffee",3,2
"5138",0,1,408,1,3,3,"1e5ffee",4,2
"6138",1,1,454,6,6,3,"1e5ffee",5,2
"7105",1,0,421,2,1,3,"1e5ffee",6,2
"830",0,1,610,1,5,3,"1e5ffee",7,2
"930",1,1,292,4,4,3,"1e5ffee",8,2
"1030",1,1,379,1,1,3,"1e5ffee",9,2
"1130",0,1,384,1,6,3,"1e5ffee",10,2
"1230",1,1,423,2,2,3,"1e5ffee",11,2
"1330",1,1,476,5,5,3,"1e5ffee",12,2
"1430",1,1,609,4,4,3,"1e5ffee",13,2
"1530",0,0,326,6,6,3,"1e5ffee",14,2
"1630",0,1,403,6,1,3,"1e5ffee",15,2
"1730",0,1,465,4,1,3,"1e5ffee",16,2
"1830",1,0,519,3,1,3,"1e5ffee",17,2
"1930",1,1,310,1,1,3,"1e5ffee",18,2
"2030",1,1,388,3,3,3,"1e5ffee",19,2
"2139",0,1,633,2,1,3,"1e5ffee",20,2
"2232",0,1,471,1,5,3,"1e5ffee",21,2
"2330",1,1,348,2,2,3,"1e5ffee",22,2
"2430",1,1,361,3,3,3,"1e5ffee",23,2
"2530",1,1,367,1,1,3,"1e5ffee",24,2
"2630",0,1,486,3,1,3,"1e5ffee",25,2
"2730",1,1,596,2,2,3,"1e5ffee",26,2
"2830",0,1,426,1,4,3,"1e5ffee",27,2
"2930",0,1,472,5,1,3,"1e5ffee",28,2
"3030",1,0,517,1,2,3,"1e5ffee",29,2
"3139",1,1,378,4,4,3,"1e5ffee",30,2
"3232",1,1,376,5,5,3,"1e5ffee",31,2
"3330",1,1,398,6,6,3,"1e5ffee",32,2
"3430",0,1,412,1,6,3,"1e5ffee",33,2
"3530",1,1,377,6,6,3,"1e5ffee",34,2
"3630",0,1,343,4,1,3,"1e5ffee",35,2
"3730",1,1,526,3,3,3,"1e5ffee",36,2
"3830",1,1,420,1,1,3,"1e5ffee",37,2
"3930",1,1,403,4,4,3,"1e5ffee",38,2
"4030",0,1,352,1,5,3,"1e5ffee",39,2
"4139",0,1,397,6,1,3,"1e5ffee",40,2
"4232",1,0,355,1,2,3,"1e5ffee",41,2
"4330",1,1,464,2,2,3,"1e5ffee",42,2
"4430",0,1,366,3,1,3,"1e5ffee",43,2
"4530",1,1,389,5,5,3,"1e5ffee",44,2
"4630",1,1,490,3,3,3,"1e5ffee",45,2
"4730",1,0,361,2,1,3,"1e5ffee",46,2
"4830",1,1,454,5,5,3,"1e5ffee",47,2
"4930",0,1,363,4,1,3,"1e5ffee",48,2
"5030",1,1,393,6,6,3,"1e5ffee",49,2
"5139",0,1,303,6,1,3,"1e5ffee",50,2
"5232",1,1,348,4,4,3,"1e5ffee",51,2
"5330",0,1,490,1,5,3,"1e5ffee",52,2
"5430",1,1,504,2,2,3,"1e5ffee",53,2
"5530",1,1,533,1,1,3,"1e5ffee",54,2
"5630",0,1,410,3,1,3,"1e5ffee",55,2
"5730",0,1,415,1,3,3,"1e5ffee",56,2
"5830",0,1,413,1,4,3,"1e5ffee",57,2
"5930",1,1,323,5,5,3,"1e5ffee",58,2
"6030",1,1,457,6,6,3,"1e5ffee",59,2
"6139",0,1,408,1,5,3,"1e5ffee",60,2
"6232",1,1,357,2,2,3,"1e5ffee",61,2
"6330",1,1,395,1,1,3,"1e5ffee",62,2
"6430",0,1,473,6,1,3,"1e5ffee",63,2
"6530",1,1,390,3,3,3,"1e5ffee",64,2
"6630",1,1,390,4,4,3,"1e5ffee",65,2
"6730",1,0,395,1,2,3,"1e5ffee",66,2
"6830",0,1,377,3,1,3,"1e5ffee",67,2
"6930",0,1,382,5,1,3,"1e5ffee",68,2
"7030",0,1,358,1,2,3,"1e5ffee",69,2
"7134",1,1,347,5,5,3,"1e5ffee",70,2
"7231",0,1,385,4,1,3,"1e5ffee",71,2
"7330",1,1,360,3,3,3,"1e5ffee",72,2
"7430",0,0,381,4,4,3,"1e5ffee",73,2
"7530",1,1,356,1,1,3,"1e5ffee",74,2
"7630",0,0,338,6,6,3,"1e5ffee",75,2
"7730",0,1,361,1,6,3,"1e5ffee",76,2
"7830",1,1,358,2,2,3,"1e5ffee",77,2
"2140",1,1,1027,2,2,2,"13a9af6",1,2
"3140",0,1,1141,1,5,2,"13a9af6",2,2
"4140",0,0,1225,4,4,2,"13a9af6",3,2
"5140",0,1,309,1,4,2,"13a9af6",4,2
"6140",-1,-1,0,1,1,2,"13a9af6",5,2
"7106",0,0,179,6,6,2,"13a9af6",6,2
"831",0,1,184,6,1,2,"13a9af6",7,2
"931",1,1,187,5,5,2,"13a9af6",8,2
"1031",1,1,149,3,3,2,"13a9af6",9,2
"1131",0,1,279,3,1,2,"13a9af6",10,2
"1231",1,0,1163,2,1,2,"13a9af6",11,2
"1331",1,0,805,3,1,2,"13a9af6",12,2
"1431",0,0,808,1,1,2,"13a9af6",13,2
"1531",0,1,809,6,1,2,"13a9af6",14,2
"1631",1,1,764,6,6,2,"13a9af6",15,2
"1731",1,1,311,4,4,2,"13a9af6",16,2
"1831",1,1,180,2,2,2,"13a9af6",17,2
"1931",0,0,1413,3,3,2,"13a9af6",18,2
"2031",1,1,451,5,5,2,"13a9af6",19,2
"2141",1,0,1011,1,2,2,"13a9af6",20,2
"2233",0,1,261,4,1,2,"13a9af6",21,2
"2331",1,0,448,5,1,2,"13a9af6",22,2
"2431",0,1,579,5,1,2,"13a9af6",23,2
"2531",1,0,570,1,2,2,"13a9af6",24,2
"2631",-1,-1,0,3,3,2,"13a9af6",25,2
"2731",1,1,373,1,1,2,"13a9af6",26,2
"2831",0,1,280,1,4,2,"13a9af6",27,2
"2931",0,1,1544,1,3,2,"13a9af6",28,2
"3031",1,1,252,4,4,2,"13a9af6",29,2
"3141",0,0,606,5,5,2,"13a9af6",30,2
"3233",1,1,300,2,2,2,"13a9af6",31,2
"3331",0,0,878,6,6,2,"13a9af6",32,2
"3431",1,0,1300,1,6,2,"13a9af6",33,2
"3531",-1,-1,0,1,4,2,"13a9af6",34,2
"3631",1,1,243,4,4,2,"13a9af6",35,2
"3731",1,1,1434,1,1,2,"13a9af6",36,2
"3831",-1,-1,0,2,1,2,"13a9af6",37,2
"3931",0,0,1373,3,3,2,"13a9af6",38,2
"4031",1,1,1060,2,2,2,"13a9af6",39,2
"4141",-1,-1,0,6,1,2,"13a9af6",40,2
"4233",0,0,975,5,5,2,"13a9af6",41,2
"4331",0,1,110,3,1,2,"13a9af6",42,2
"4431",1,1,761,6,6,2,"13a9af6",43,2
"4531",0,1,267,1,5,2,"13a9af6",44,2
"4631",0,1,537,4,1,2,"13a9af6",45,2
"4731",0,1,437,1,6,2,"13a9af6",46,2
"4831",-1,-1,0,5,5,2,"13a9af6",47,2
"4931",-1,-1,0,2,2,2,"13a9af6",48,2
"5031",1,1,941,3,3,2,"13a9af6",49,2
"5141",0,0,350,6,6,2,"13a9af6",50,2
"5233",0,1,1440,1,3,2,"13a9af6",51,2
"5331",1,0,1898,1,2,2,"13a9af6",52,2
"5431",-1,-1,0,1,1,2,"13a9af6",53,2
"5531",0,0,1054,4,4,2,"13a9af6",54,2
"5631",0,1,1086,5,1,2,"13a9af6",55,2
"5731",1,1,724,4,4,2,"13a9af6",56,2
"5831",0,1,1008,4,1,2,"13a9af6",57,2
"5931",0,0,1101,5,5,2,"13a9af6",58,2
"6031",0,1,378,1,5,2,"13a9af6",59,2
"6141",1,1,429,1,1,2,"13a9af6",60,2
"6233",0,1,1604,2,1,2,"13a9af6",61,2
"6331",1,0,1826,3,1,2,"13a9af6",62,2
"6431",0,0,786,3,3,2,"13a9af6",63,2
"6531",-1,-1,0,2,2,2,"13a9af6",64,2
"6631",0,1,1301,6,1,2,"13a9af6",65,2
"6731",0,0,1061,6,6,2,"13a9af6",66,2
"6831",1,1,467,6,6,2,"13a9af6",67,2
"6931",0,0,1152,2,2,2,"13a9af6",68,2
"7031",0,1,377,1,4,2,"13a9af6",69,2
"7135",1,1,1027,3,3,2,"13a9af6",70,2
"7232",0,1,214,5,1,2,"13a9af6",71,2
"7331",1,1,286,5,5,2,"13a9af6",72,2
"7431",0,1,714,1,2,2,"13a9af6",73,2
"7531",0,0,1155,1,1,2,"13a9af6",74,2
"7631",0,1,733,1,3,2,"13a9af6",75,2
"7731",1,1,549,4,4,2,"13a9af6",76,2
"7831",-1,-1,0,1,6,2,"13a9af6",77,2
"2142",0,1,921,2,1,2,"13ef7b5",1,2
"3142",1,1,314,6,6,2,"13ef7b5",2,2
"4142",1,1,317,5,5,2,"13ef7b5",3,2
"5142",0,1,373,4,1,2,"13ef7b5",4,2
"6142",1,1,229,2,2,2,"13ef7b5",5,2
"7107",1,1,628,4,4,2,"13ef7b5",6,2
"832",0,1,288,6,1,2,"13ef7b5",7,2
"932",0,1,302,5,1,2,"13ef7b5",8,2
"1032",1,1,764,3,3,2,"13ef7b5",9,2
"1132",1,1,269,1,1,2,"13ef7b5",10,2
"1232",0,1,304,1,3,2,"13ef7b5",11,2
"1332",1,1,286,1,1,2,"13ef7b5",12,2
"1432",1,1,321,3,3,2,"13ef7b5",13,2
"1532",1,1,320,4,4,2,"13ef7b5",14,2
"1632",1,1,339,2,2,2,"13ef7b5",15,2
"1732",0,1,774,3,1,2,"13ef7b5",16,2
"1832",1,1,690,5,5,2,"13ef7b5",17,2
"1932",1,1,295,6,6,2,"13ef7b5",18,2
"2032",0,1,1005,2,1,2,"13ef7b5",19,2
"2143",0,1,325,1,4,2,"13ef7b5",20,2
"2234",0,1,375,5,1,2,"13ef7b5",21,2
"2332",0,1,366,1,6,2,"13ef7b5",22,2
"2432",1,1,883,3,3,2,"13ef7b5",23,2
"2532",0,1,356,1,6,2,"13ef7b5",24,2
"2632",0,1,399,5,1,2,"13ef7b5",25,2
"2732",0,1,303,3,1,2,"13ef7b5",26,2
"2832",1,1,635,4,4,2,"13ef7b5",27,2
"2932",1,1,429,6,6,2,"13ef7b5",28,2
"3032",1,1,334,1,1,2,"13ef7b5",29,2
"3143",1,1,888,2,2,2,"13ef7b5",30,2
"3234",0,1,317,1,4,2,"13ef7b5",31,2
"3332",0,1,825,2,1,2,"13ef7b5",32,2
"3432",1,1,589,5,5,2,"13ef7b5",33,2
"3532",1,1,314,3,3,2,"13ef7b5",34,2
"3632",1,1,357,2,2,2,"13ef7b5",35,2
"3732",0,1,1361,1,4,2,"13ef7b5",36,2
"3832",0,1,475,1,5,2,"13ef7b5",37,2
"3932",1,1,93,1,1,2,"13ef7b5",38,2
"4032",1,1,381,5,5,2,"13ef7b5",39,2
"4143",1,1,294,6,6,2,"13ef7b5",40,2
"4234",0,1,292,3,1,2,"13ef7b5",41,2
"4332",1,1,357,4,4,2,"13ef7b5",42,2
"4432",0,1,347,6,1,2,"13ef7b5",43,2
"4532",0,1,309,1,2,2,"13ef7b5",44,2
"4632",0,1,404,1,4,2,"13ef7b5",45,2
"4732",0,1,708,1,2,2,"13ef7b5",46,2
"4832",1,1,518,2,2,2,"13ef7b5",47,2
"4932",1,1,296,5,5,2,"13ef7b5",48,2
"5032",1,1,559,4,4,2,"13ef7b5",49,2
"5143",0,1,362,1,3,2,"13ef7b5",50,2
"5234",1,1,410,1,1,2,"13ef7b5",51,2
"5332",0,1,421,6,1,2,"13ef7b5",52,2
"5432",1,1,628,3,3,2,"13ef7b5",53,2
"5532",0,1,891,5,1,2,"13ef7b5",54,2
"5632",1,1,573,6,6,2,"13ef7b5",55,2
"5732",0,1,946,4,1,2,"13ef7b5",56,2
"5832",1,1,686,6,6,2,"13ef7b5",57,2
"5932",0,1,924,1,2,2,"13ef7b5",58,2
"6032",1,1,253,3,3,2,"13ef7b5",59,2
"6143",1,1,874,1,1,2,"13ef7b5",60,2
"6234",0,1,331,1,3,2,"13ef7b5",61,2
"6332",1,1,1744,2,2,2,"13ef7b5",62,2
"6432",0,1,325,1,5,2,"13ef7b5",63,2
"6532",0,1,286,1,6,2,"13ef7b5",64,2
"6632",1,1,293,5,5,2,"13ef7b5",65,2
"6732",1,1,475,4,4,2,"13ef7b5",66,2
"6832",0,1,273,1,4,2,"13ef7b5",67,2
"6932",1,1,319,6,6,2,"13ef7b5",68,2
"7032",0,1,255,3,1,2,"13ef7b5",69,2
"7136",1,1,398,3,3,2,"13ef7b5",70,2
"7233",0,1,279,2,1,2,"13ef7b5",71,2
"7332",0,0,739,5,5,2,"13ef7b5",72,2
"7432",1,1,300,1,1,2,"13ef7b5",73,2
"7532",0,1,275,1,5,2,"13ef7b5",74,2
"7632",1,1,521,4,4,2,"13ef7b5",75,2
"7732",1,1,345,2,2,2,"13ef7b5",76,2
"7832",0,1,419,6,1,2,"13ef7b5",77,2
"2144",1,1,394,1,1,1,"137ef5e",1,2
"3144",1,0,412,2,1,1,"137ef5e",2,2
"4144",1,1,204,2,2,1,"137ef5e",3,2
"5144",1,1,292,6,6,1,"137ef5e",4,2
"6144",0,1,437,4,1,1,"137ef5e",5,2
"7108",0,1,342,6,1,1,"137ef5e",6,2
"833",1,1,295,4,4,1,"137ef5e",7,2
"933",0,0,414,3,3,1,"137ef5e",8,2
"1033",0,1,526,1,5,1,"137ef5e",9,2
"1133",1,1,305,5,5,1,"137ef5e",10,2
"1233",0,1,97,1,3,1,"137ef5e",11,2
"1333",1,1,485,6,6,1,"137ef5e",12,2
"1433",0,1,307,1,3,1,"137ef5e",13,2
"1533",1,1,428,1,1,1,"137ef5e",14,2
"1633",0,1,249,6,1,1,"137ef5e",15,2
"1733",0,0,222,3,3,1,"137ef5e",16,2
"1833",0,1,352,4,1,1,"137ef5e",17,2
"1933",0,1,488,5,1,1,"137ef5e",18,2
"2033",1,1,304,4,4,1,"137ef5e",19,2
"2145",1,1,425,5,5,1,"137ef5e",20,2
"2235",1,1,324,2,2,1,"137ef5e",21,2
"2333",1,0,620,1,2,1,"137ef5e",22,2
"2433",0,0,324,4,4,1,"137ef5e",23,2
"2533",0,1,293,4,1,1,"137ef5e",24,2
"2633",0,1,195,2,1,1,"137ef5e",25,2
"2733",1,1,314,6,6,1,"137ef5e",26,2
"2833",0,1,301,1,5,1,"137ef5e",27,2
"2933",1,1,220,5,5,1,"137ef5e",28,2
"3033",0,1,317,1,6,1,"137ef5e",29,2
"3145",1,1,320,2,2,1,"137ef5e",30,2
"3235",0,1,306,1,3,1,"137ef5e",31,2
"3333",1,1,219,1,1,1,"137ef5e",32,2
"3433",1,1,239,3,3,1,"137ef5e",33,2
"3533",0,1,322,5,1,1,"137ef5e",34,2
"3633",0,1,311,1,3,1,"137ef5e",35,2
"3733",1,1,467,5,5,1,"137ef5e",36,2
"3833",0,1,322,4,1,1,"137ef5e",37,2
"3933",1,1,726,1,1,1,"137ef5e",38,2
"4033",1,1,369,3,3,1,"137ef5e",39,2
"4145",1,1,354,4,4,1,"137ef5e",40,2
"4235",0,1,279,1,2,1,"137ef5e",41,2
"4333",1,1,520,6,6,1,"137ef5e",42,2
"4433",0,1,394,6,1,1,"137ef5e",43,2
"4533",1,1,312,2,2,1,"137ef5e",44,2
"4633",0,1,558,3,1,1,"137ef5e",45,2
"4733",1,1,487,6,6,1,"137ef5e",46,2
"4833",0,1,320,6,1,1,"137ef5e",47,2
"4933",1,1,284,5,5,1,"137ef5e",48,2
"5033",0,1,312,2,1,1,"137ef5e",49,2
"5145",0,1,694,4,1,1,"137ef5e",50,2
"5235",0,1,562,1,5,1,"137ef5e",51,2
"5333",1,1,350,1,1,1,"137ef5e",52,2
"5433",1,1,312,2,2,1,"137ef5e",53,2
"5533",1,1,251,4,4,1,"137ef5e",54,2
"5633",1,1,520,3,3,1,"137ef5e",55,2
"5733",1,0,319,1,5,1,"137ef5e",56,2
"5833",1,1,285,5,5,1,"137ef5e",57,2
"5933",0,1,371,1,4,1,"137ef5e",58,2
"6033",0,1,306,3,1,1,"137ef5e",59,2
"6145",0,1,371,2,1,1,"137ef5e",60,2
"6235",1,1,412,4,4,1,"137ef5e",61,2
"6333",1,1,310,3,3,1,"137ef5e",62,2
"6433",1,1,295,2,2,1,"137ef5e",63,2
"6533",1,1,496,1,1,1,"137ef5e",64,2
"6633",0,1,542,1,6,1,"137ef5e",65,2
"6733",1,1,329,6,6,1,"137ef5e",66,2
"6833",1,1,328,4,4,1,"137ef5e",67,2
"6933",1,1,392,3,3,1,"137ef5e",68,2
"7033",1,1,340,1,1,1,"137ef5e",69,2
"7137",1,1,485,5,5,1,"137ef5e",70,2
"7234",0,1,454,1,6,1,"137ef5e",71,2
"7333",1,1,329,6,6,1,"137ef5e",72,2
"7433",1,1,309,2,2,1,"137ef5e",73,2
"7533",0,1,430,1,4,1,"137ef5e",74,2
"7633",0,1,679,3,1,1,"137ef5e",75,2
"7733",1,0,409,1,2,1,"137ef5e",76,2
"7833",0,1,346,5,1,1,"137ef5e",77,2
"2146",0,1,1217,4,1,1,"1849720",1,2
"3146",0,0,835,1,1,1,"1849720",2,2
"4146",0,1,1383,1,6,1,"1849720",3,2
"5146",0,1,1258,2,1,1,"1849720",4,2
"6146",0,1,1547,1,3,1,"1849720",5,2
"7109",0,0,1731,3,3,1,"1849720",6,2
"834",0,0,1357,6,6,1,"1849720",7,2
"934",0,0,1713,5,5,1,"1849720",8,2
"1034",0,0,1917,4,4,1,"1849720",9,2
"1134",0,0,1794,2,2,1,"1849720",10,2
"1234",0,1,1730,1,5,1,"1849720",11,2
"1334",0,1,1996,1,6,1,"1849720",12,2
"1434",-1,-1,0,1,1,1,"1849720",13,2
"1534",-1,-1,0,1,3,1,"1849720",14,2
"1634",-1,-1,0,4,1,1,"1849720",15,2
"1734",0,1,1418,2,1,1,"1849720",16,2
"1834",0,0,1789,5,5,1,"1849720",17,2
"1934",0,0,1180,4,4,1,"1849720",18,2
"2034",0,0,1987,3,3,1,"1849720",19,2
"2147",0,1,1427,1,5,1,"1849720",20,2
"2236",0,0,1408,2,2,1,"1849720",21,2
"2334",0,0,1372,6,6,1,"1849720",22,2
"2434",0,1,1246,1,5,1,"1849720",23,2
"2534",0,1,1925,2,1,1,"1849720",24,2
"2634",0,0,1800,5,5,1,"1849720",25,2
"2734",0,1,1600,1,6,1,"1849720",26,2
"2834",0,0,1035,1,1,1,"1849720",27,2
"2934",0,0,1959,2,2,1,"1849720",28,2
"3034",0,1,1720,3,1,1,"1849720",29,2
"3147",0,0,1398,6,6,1,"1849720",30,2
"3236",0,1,1624,4,1,1,"1849720",31,2
"3334",0,0,1917,4,4,1,"1849720",32,2
"3434",0,0,1033,3,3,1,"1849720",33,2
"3534",0,0,1108,6,6,1,"1849720",34,2
"3634",0,0,1239,3,3,1,"1849720",35,2
"3734",0,0,1474,1,1,1,"1849720",36,2
"3834",0,1,1126,6,1,1,"1849720",37,2
"3934",0,0,1766,2,2,1,"1849720",38,2
"4034",0,0,1091,4,4,1,"1849720",39,2
"4147",0,1,1689,2,1,1,"1849720",40,2
"4236",0,1,1678,1,4,1,"1849720",41,2
"4334",0,0,1473,5,5,1,"1849720",42,2
"4434",0,1,1881,3,1,1,"1849720",43,2
"4534",0,1,1541,5,1,1,"1849720",44,2
"4634",0,0,880,6,6,1,"1849720",45,2
"4734",0,1,1515,3,1,1,"1849720",46,2
"4834",0,0,2003,5,5,1,"1849720",47,2
"4934",0,1,1298,1,2,1,"1849720",48,2
"5034",0,0,1381,1,1,1,"1849720",49,2
"5147",0,1,1837,4,1,1,"1849720",50,2
"5236",0,1,1944,1,6,1,"1849720",51,2
"5334",0,0,1318,3,3,1,"1849720",52,2
"5434",0,0,1557,4,4,1,"1849720",53,2
"5534",0,0,1069,2,2,1,"1849720",54,2
"5634",0,1,1434,1,5,1,"1849720",55,2
"5734",0,1,1213,1,4,1,"1849720",56,2
"5834",0,0,1474,4,4,1,"1849720",57,2
"5934",0,0,1051,6,6,1,"1849720",58,2
"6034",0,1,1088,6,1,1,"1849720",59,2
"6147",0,1,1700,3,1,1,"1849720",60,2
"6236",0,0,1373,1,1,1,"1849720",61,2
"6334",0,0,1466,2,2,1,"1849720",62,2
"6434",0,0,1338,5,5,1,"1849720",63,2
"6534",0,1,1698,2,1,1,"1849720",64,2
"6634",0,0,1132,3,3,1,"1849720",65,2
"6734",0,1,1520,5,1,1,"1849720",66,2
"6834",-1,-1,0,6,6,1,"1849720",67,2
"6934",0,0,518,1,1,1,"1849720",68,2
"7034",0,1,1338,1,5,1,"1849720",69,2
"7138",1,0,1604,1,4,1,"1849720",70,2
"7235",1,1,1838,3,3,1,"1849720",71,2
"7334",0,1,1609,1,2,1,"1849720",72,2
"7434",-1,-1,0,4,4,1,"1849720",73,2
"7534",0,1,506,1,6,1,"1849720",74,2
"7634",0,0,357,2,2,1,"1849720",75,2
"7734",1,1,1494,5,5,1,"1849720",76,2
"7834",-1,-1,0,1,3,1,"1849720",77,2
"2148",1,1,527,2,2,3,"121d34a",1,2
"3148",1,1,423,4,4,3,"121d34a",2,2
"4148",1,1,530,5,5,3,"121d34a",3,2
"5148",1,0,476,1,2,3,"121d34a",4,2
"6148",1,1,569,3,3,3,"121d34a",5,2
"7139",0,1,485,5,1,3,"121d34a",6,2
"835",1,1,392,6,6,3,"121d34a",7,2
"935",0,1,504,1,4,3,"121d34a",8,2
"1035",1,1,397,1,1,3,"121d34a",9,2
"1135",0,1,537,3,1,3,"121d34a",10,2
"1235",0,1,441,1,6,3,"121d34a",11,2
"1335",0,1,130,1,3,3,"121d34a",12,2
"1435",1,1,374,4,4,3,"121d34a",13,2
"1535",1,1,1812,3,3,3,"121d34a",14,2
"1635",1,1,561,1,1,3,"121d34a",15,2
"1735",1,1,361,2,2,3,"121d34a",16,2
"1835",0,1,487,1,6,3,"121d34a",17,2
"1935",0,1,484,5,1,3,"121d34a",18,2
"2035",1,1,472,6,6,3,"121d34a",19,2
"2149",1,1,485,5,5,3,"121d34a",20,2
"2237",0,1,632,1,2,3,"121d34a",21,2
"2335",0,1,387,4,1,3,"121d34a",22,2
"2435",1,0,1330,2,1,3,"121d34a",23,2
"2535",0,1,753,1,6,3,"121d34a",24,2
"2635",1,1,563,6,6,3,"121d34a",25,2
"2735",1,1,248,5,5,3,"121d34a",26,2
"2835",1,1,514,2,2,3,"121d34a",27,2
"2935",1,1,290,3,3,3,"121d34a",28,2
"3035",0,1,397,4,1,3,"121d34a",29,2
"3149",1,1,483,1,1,3,"121d34a",30,2
"3237",1,1,378,4,4,3,"121d34a",31,2
"3335",0,1,400,5,1,3,"121d34a",32,2
"3435",0,1,303,3,1,3,"121d34a",33,2
"3535",1,1,352,1,1,3,"121d34a",34,2
"3635",0,1,346,1,3,3,"121d34a",35,2
"3735",0,0,930,3,3,3,"121d34a",36,2
"3835",1,1,398,4,4,3,"121d34a",37,2
"3935",0,1,322,1,6,3,"121d34a",38,2
"4035",1,0,1970,1,2,3,"121d34a",39,2
"4149",0,1,455,1,5,3,"121d34a",40,2
"4237",0,1,941,4,1,3,"121d34a",41,2
"4335",1,1,1196,6,6,3,"121d34a",42,2
"4435",1,1,641,5,5,3,"121d34a",43,2
"4535",1,1,376,2,2,3,"121d34a",44,2
"4635",1,1,318,4,4,3,"121d34a",45,2
"4735",1,1,509,3,3,3,"121d34a",46,2
"4835",1,0,447,1,2,3,"121d34a",47,2
"4935",0,1,47,4,1,3,"121d34a",48,2
"5035",0,1,284,1,5,3,"121d34a",49,2
"5149",1,1,496,5,5,3,"121d34a",50,2
"5237",0,1,497,6,1,3,"121d34a",51,2
"5335",1,1,344,1,1,3,"121d34a",52,2
"5435",1,1,678,6,6,3,"121d34a",53,2
"5535",-1,-1,0,2,2,3,"121d34a",54,2
"5635",0,1,479,1,3,3,"121d34a",55,2
"5735",1,1,286,5,5,3,"121d34a",56,2
"5835",1,1,359,1,1,3,"121d34a",57,2
"5935",0,1,374,4,1,3,"121d34a",58,2
"6035",0,1,414,6,1,3,"121d34a",59,2
"6149",1,0,340,1,2,3,"121d34a",60,2
"6237",0,1,346,1,5,3,"121d34a",61,2
"6335",1,1,367,4,4,3,"121d34a",62,2
"6435",0,1,291,3,1,3,"121d34a",63,2
"6535",1,1,445,6,6,3,"121d34a",64,2
"6635",0,0,540,3,3,3,"121d34a",65,2
"6735",1,1,299,2,2,3,"121d34a",66,2
"6835",0,1,1075,1,6,3,"121d34a",67,2
"6935",1,0,391,2,1,3,"121d34a",68,2
"7035",1,1,360,4,4,3,"121d34a",69,2
"7140",1,1,302,1,1,3,"121d34a",70,2
"7236",1,1,335,2,2,3,"121d34a",71,2
"7335",0,1,303,5,1,3,"121d34a",72,2
"7435",1,1,631,5,5,3,"121d34a",73,2
"7535",0,1,697,3,1,3,"121d34a",74,2
"7635",1,1,1055,6,6,3,"121d34a",75,2
"7735",1,1,574,3,3,3,"121d34a",76,2
"7835",1,0,642,4,1,3,"121d34a",77,2
"2150",1,1,309,1,1,1,"12a3ce7",1,2
"3150",1,0,532,1,4,1,"12a3ce7",2,2
"4150",1,0,367,1,3,1,"12a3ce7",3,2
"5150",1,0,530,2,1,1,"12a3ce7",4,2
"6150",0,0,265,6,6,1,"12a3ce7",5,2
"7141",1,1,414,5,5,1,"12a3ce7",6,2
"836",1,1,845,2,2,1,"12a3ce7",7,2
"936",1,0,340,5,1,1,"12a3ce7",8,2
"1036",1,1,494,4,4,1,"12a3ce7",9,2
"1136",1,1,412,3,3,1,"12a3ce7",10,2
"1236",1,0,346,6,1,1,"12a3ce7",11,2
"1336",1,1,149,1,1,1,"12a3ce7",12,2
"1436",1,1,203,2,2,1,"12a3ce7",13,2
"1536",1,1,247,3,3,1,"12a3ce7",14,2
"1636",1,0,52,6,1,1,"12a3ce7",15,2
"1736",1,1,281,6,6,1,"12a3ce7",16,2
"1836",1,0,540,2,1,1,"12a3ce7",17,2
"1936",1,0,284,4,1,1,"12a3ce7",18,2
"2036",1,1,280,4,4,1,"12a3ce7",19,2
"2151",0,1,437,5,1,1,"12a3ce7",20,2
"2238",0,0,269,5,5,1,"12a3ce7",21,2
"2336",1,0,448,3,1,1,"12a3ce7",22,2
"2436",0,1,140,1,6,1,"12a3ce7",23,2
"2536",1,0,245,4,1,1,"12a3ce7",24,2
"2636",0,0,218,2,2,1,"12a3ce7",25,2
"2736",1,1,540,1,1,1,"12a3ce7",26,2
"2836",1,0,365,1,5,1,"12a3ce7",27,2
"2936",1,0,653,1,3,1,"12a3ce7",28,2
"3036",0,0,269,4,4,1,"12a3ce7",29,2
"3151",1,1,413,5,5,1,"12a3ce7",30,2
"3238",1,1,223,3,3,1,"12a3ce7",31,2
"3336",1,1,207,6,6,1,"12a3ce7",32,2
"3436",1,0,322,2,1,1,"12a3ce7",33,2
