"","keys","accuracy","rt","Fimg","Simg","feature_index","subID","trialNum","run"
"2",0,0,549,4,4,1,"156435d",1,1
"3",0,0,369,3,3,1,"156435d",2,1
"4",0,1,330,1,6,1,"156435d",3,1
"5",1,1,483,5,5,1,"156435d",4,1
"6",0,1,559,2,1,1,"156435d",5,1
"7",0,0,358,1,1,1,"156435d",6,1
"8",0,1,447,4,1,1,"156435d",7,1
"9",1,1,350,2,2,1,"156435d",8,1
"10",0,1,465,1,5,1,"156435d",9,1
"11",0,1,511,1,3,1,"156435d",10,1
"12",1,1,498,6,6,1,"156435d",11,1
"13",0,1,326,3,1,1,"156435d",12,1
"14",0,1,1621,6,1,1,"156435d",13,1
"15",0,0,376,6,6,1,"156435d",14,1
"16",0,1,238,1,5,1,"156435d",15,1
"17",1,1,484,2,2,1,"156435d",16,1
"18",1,1,2,3,3,1,"156435d",17,1
"19",1,1,311,4,4,1,"156435d",18,1
"20",1,0,334,2,1,1,"156435d",19,1
"21",1,1,293,5,5,1,"156435d",20,1
"22",0,1,422,4,1,1,"156435d",21,1
"23",1,1,316,1,1,1,"156435d",22,1
"24",0,1,489,1,4,1,"156435d",23,1
"25",0,1,1085,6,1,1,"156435d",24,1
"26",1,1,555,2,2,1,"156435d",25,1
"27",1,1,527,5,5,1,"156435d",26,1
"28",1,1,679,6,6,1,"156435d",27,1
"29",0,1,362,1,2,1,"156435d",28,1
"30",1,1,448,1,1,1,"156435d",29,1
"31",0,1,625,3,1,1,"156435d",30,1
"32",0,1,529,5,1,1,"156435d",31,1
"33",1,1,432,3,3,1,"156435d",32,1
"34",0,0,317,4,4,1,"156435d",33,1
"35",1,1,336,4,4,1,"156435d",34,1
"36",1,1,531,3,3,1,"156435d",35,1
"37",1,1,425,2,2,1,"156435d",36,1
"38",0,1,409,3,1,1,"156435d",37,1
"39",0,1,951,4,1,1,"156435d",38,1
"40",1,1,366,1,1,1,"156435d",39,1
"41",0,1,545,1,6,1,"156435d",40,1
"42",1,1,388,6,6,1,"156435d",41,1
"43",0,1,560,1,5,1,"156435d",42,1
"44",0,1,529,2,1,1,"156435d",43,1
"45",1,1,438,5,5,1,"156435d",44,1
"46",0,1,543,1,3,1,"156435d",45,1
"47",1,1,452,6,6,1,"156435d",46,1
"48",1,1,412,2,2,1,"156435d",47,1
"49",1,1,493,4,4,1,"156435d",48,1
"50",0,1,303,6,1,1,"156435d",49,1
"51",1,1,430,5,5,1,"156435d",50,1
"52",0,1,355,1,5,1,"156435d",51,1
"53",1,0,440,2,1,1,"156435d",52,1
"54",0,1,241,1,4,1,"156435d",53,1
"55",1,1,655,3,3,1,"156435d",54,1
"56",1,1,426,1,1,1,"156435d",55,1
"57",0,1,585,3,1,1,"156435d",56,1
"58",1,1,302,6,6,1,"156435d",57,1
"59",1,1,359,5,5,1,"156435d",58,1
"60",1,1,454,2,2,1,"156435d",59,1
"61",1,1,360,3,3,1,"156435d",60,1
"62",0,1,427,1,6,1,"156435d",61,1
"63",1,1,491,1,1,1,"156435d",62,1
"64",0,1,418,4,1,1,"156435d",63,1
"65",0,1,370,2,1,1,"156435d",64,1
"66",0,1,346,1,5,1,"156435d",65,1
"67",1,1,468,4,4,1,"156435d",66,1
"68",0,1,693,4,1,1,"156435d",67,1
"69",1,1,387,1,1,1,"156435d",68,1
"70",0,1,340,1,5,1,"156435d",69,1
"71",1,1,303,5,5,1,"156435d",70,1
"72",0,1,495,1,3,1,"156435d",71,1
"73",1,0,346,1,2,1,"156435d",72,1
"74",1,1,304,4,4,1,"156435d",73,1
"75",1,1,437,2,2,1,"156435d",74,1
"76",1,1,1216,6,6,1,"156435d",75,1
"77",0,1,1184,6,1,1,"156435d",76,1
"78",1,1,541,3,3,1,"156435d",77,1
"210",1,1,1096,2,2,1,"1b87990",1,1
"310",1,0,632,6,1,1,"1b87990",2,1
"410",0,1,533,2,1,1,"1b87990",3,1
"510",0,0,472,4,4,1,"1b87990",4,1
"610",1,0,473,1,4,1,"1b87990",5,1
"79",0,0,453,6,6,1,"1b87990",6,1
"81",1,1,486,1,1,1,"1b87990",7,1
"91",1,1,842,5,5,1,"1b87990",8,1
"101",1,0,568,1,3,1,"1b87990",9,1
"111",1,0,465,5,1,1,"1b87990",10,1
"121",0,0,545,3,3,1,"1b87990",11,1
"131",0,1,465,4,1,1,"1b87990",12,1
"141",0,0,497,1,1,1,"1b87990",13,1
"151",1,1,382,4,4,1,"1b87990",14,1
"161",1,1,488,5,5,1,"1b87990",15,1
"171",1,1,349,3,3,1,"1b87990",16,1
"181",1,0,319,2,1,1,"1b87990",17,1
"191",1,0,488,3,1,1,"1b87990",18,1
"201",0,0,368,2,2,1,"1b87990",19,1
"211",1,0,905,1,5,1,"1b87990",20,1
"221",1,0,310,6,1,1,"1b87990",21,1
"231",0,0,395,6,6,1,"1b87990",22,1
"241",1,1,354,2,2,1,"1b87990",23,1
"251",1,1,344,3,3,1,"1b87990",24,1
"261",0,1,339,1,3,1,"1b87990",25,1
"271",1,1,394,6,6,1,"1b87990",26,1
"281",1,0,489,4,1,1,"1b87990",27,1
"291",1,1,317,4,4,1,"1b87990",28,1
"301",0,1,318,2,1,1,"1b87990",29,1
"311",0,0,357,5,5,1,"1b87990",30,1
"321",0,1,332,1,6,1,"1b87990",31,1
"331",0,1,309,1,5,1,"1b87990",32,1
"341",1,1,318,1,1,1,"1b87990",33,1
"351",1,1,389,3,3,1,"1b87990",34,1
"361",0,1,304,2,1,1,"1b87990",35,1
"371",1,0,286,3,1,1,"1b87990",36,1
"381",0,1,325,1,4,1,"1b87990",37,1
"391",0,0,399,1,1,1,"1b87990",38,1
"401",0,0,1930,6,6,1,"1b87990",39,1
"411",1,1,291,4,4,1,"1b87990",40,1
"421",1,1,467,2,2,1,"1b87990",41,1
"431",0,1,497,1,5,1,"1b87990",42,1
"441",0,0,520,5,5,1,"1b87990",43,1
"451",0,1,385,1,6,1,"1b87990",44,1
"461",1,1,1877,6,6,1,"1b87990",45,1
"471",1,1,503,4,4,1,"1b87990",46,1
"481",0,1,411,1,6,1,"1b87990",47,1
"491",0,1,349,5,1,1,"1b87990",48,1
"501",1,1,323,3,3,1,"1b87990",49,1
"511",1,0,322,4,1,1,"1b87990",50,1
"521",0,1,382,3,1,1,"1b87990",51,1
"531",1,1,284,1,1,1,"1b87990",52,1
"541",1,0,304,2,1,1,"1b87990",53,1
"551",1,1,262,5,5,1,"1b87990",54,1
"561",1,1,360,2,2,1,"1b87990",55,1
"571",1,0,526,1,6,1,"1b87990",56,1
"581",1,1,299,2,2,1,"1b87990",57,1
"591",1,1,562,3,3,1,"1b87990",58,1
"601",0,1,1088,5,1,1,"1b87990",59,1
"611",0,1,286,4,1,1,"1b87990",60,1
"621",1,0,347,2,1,1,"1b87990",61,1
"631",1,1,362,6,6,1,"1b87990",62,1
"641",0,1,330,3,1,1,"1b87990",63,1
"651",0,0,945,5,5,1,"1b87990",64,1
"661",1,1,276,4,4,1,"1b87990",65,1
"671",1,1,272,1,1,1,"1b87990",66,1
"681",0,1,267,5,1,1,"1b87990",67,1
"691",1,1,290,2,2,1,"1b87990",68,1
"701",0,1,304,3,1,1,"1b87990",69,1
"711",1,1,346,4,4,1,"1b87990",70,1
"721",1,1,673,6,6,1,"1b87990",71,1
"731",0,1,245,1,2,1,"1b87990",72,1
"741",0,1,284,1,6,1,"1b87990",73,1
"751",0,1,389,4,1,1,"1b87990",74,1
"761",1,1,399,1,1,1,"1b87990",75,1
"771",1,1,333,5,5,1,"1b87990",76,1
"781",1,1,366,3,3,1,"1b87990",77,1
"212",1,1,511,1,1,2,"171be3e",1,1
"312",1,1,498,5,5,2,"171be3e",2,1
"412",0,1,530,1,6,2,"171be3e",3,1
"512",1,1,412,6,6,2,"171be3e",4,1
"612",0,1,425,4,1,2,"171be3e",5,1
"710",0,1,423,1,5,2,"171be3e",6,1
"82",1,1,337,3,3,2,"171be3e",7,1
"92",0,1,324,3,1,2,"171be3e",8,1
"102",1,0,319,2,1,2,"171be3e",9,1
"112",1,1,344,4,4,2,"171be3e",10,1
"122",1,1,317,2,2,2,"171be3e",11,1
"132",0,1,493,1,5,2,"171be3e",12,1
"142",1,1,422,1,1,2,"171be3e",13,1
"152",1,1,327,6,6,2,"171be3e",14,1
"162",1,1,650,3,3,2,"171be3e",15,1
"172",1,1,391,4,4,2,"171be3e",16,1
"182",0,0,961,2,2,2,"171be3e",17,1
"192",0,1,539,1,3,2,"171be3e",18,1
"202",0,1,295,4,1,2,"171be3e",19,1
"213",0,1,909,1,6,2,"171be3e",20,1
"222",0,1,347,1,2,2,"171be3e",21,1
"232",0,0,436,5,5,2,"171be3e",22,1
"242",1,1,333,1,1,2,"171be3e",23,1
"252",0,1,287,3,1,2,"171be3e",24,1
"262",0,1,305,5,1,2,"171be3e",25,1
"272",1,1,334,3,3,2,"171be3e",26,1
"282",1,1,328,6,6,2,"171be3e",27,1
"292",0,1,459,4,1,2,"171be3e",28,1
"302",1,1,442,5,5,2,"171be3e",29,1
"313",0,1,265,1,6,2,"171be3e",30,1
"322",1,1,537,4,4,2,"171be3e",31,1
"332",1,1,305,2,2,2,"171be3e",32,1
"342",0,1,445,1,2,2,"171be3e",33,1
"352",0,1,450,5,1,2,"171be3e",34,1
"362",0,1,521,1,6,2,"171be3e",35,1
"372",0,0,307,3,3,2,"171be3e",36,1
"382",1,1,359,1,1,2,"171be3e",37,1
"392",0,1,264,3,1,2,"171be3e",38,1
"402",1,1,430,2,2,2,"171be3e",39,1
"413",1,1,327,5,5,2,"171be3e",40,1
"422",0,1,360,1,2,2,"171be3e",41,1
"432",0,0,338,4,4,2,"171be3e",42,1
"442",0,1,298,1,4,2,"171be3e",43,1
"452",1,1,309,6,6,2,"171be3e",44,1
"462",0,1,359,6,1,2,"171be3e",45,1
"472",1,0,235,1,2,2,"171be3e",46,1
"482",1,1,301,3,3,2,"171be3e",47,1
"492",1,1,263,4,4,2,"171be3e",48,1
"502",-1,-1,0,5,5,2,"171be3e",49,1
"513",1,1,409,2,2,2,"171be3e",50,1
"522",1,1,282,1,1,2,"171be3e",51,1
"532",0,1,495,5,1,2,"171be3e",52,1
"542",0,1,497,1,4,2,"171be3e",53,1
"552",1,1,513,6,6,2,"171be3e",54,1
"562",0,1,436,3,1,2,"171be3e",55,1
"572",1,1,315,3,3,2,"171be3e",56,1
"582",0,1,274,1,4,2,"171be3e",57,1
"592",1,1,362,5,5,2,"171be3e",58,1
"602",0,1,273,1,3,2,"171be3e",59,1
"613",1,1,334,1,1,2,"171be3e",60,1
"622",0,1,255,1,6,2,"171be3e",61,1
"632",0,1,410,2,1,2,"171be3e",62,1
"642",1,1,517,2,2,2,"171be3e",63,1
"652",0,1,698,1,5,2,"171be3e",64,1
"662",1,1,339,4,4,2,"171be3e",65,1
"672",1,1,1235,6,6,2,"171be3e",66,1
"682",0,1,229,5,1,2,"171be3e",67,1
"692",1,1,340,5,5,2,"171be3e",68,1
"702",1,1,833,2,2,2,"171be3e",69,1
"712",0,1,293,1,2,2,"171be3e",70,1
"722",1,1,471,1,1,2,"171be3e",71,1
"732",0,1,248,1,4,2,"171be3e",72,1
"742",0,1,349,1,3,2,"171be3e",73,1
"752",1,1,403,6,6,2,"171be3e",74,1
"762",1,1,384,3,3,2,"171be3e",75,1
"772",1,1,354,4,4,2,"171be3e",76,1
"782",0,1,235,6,1,2,"171be3e",77,1
"214",1,0,449,6,1,2,"161c7f1",1,1
"314",1,1,324,5,5,2,"161c7f1",2,1
"414",0,1,301,1,3,2,"161c7f1",3,1
"514",1,0,319,5,1,2,"161c7f1",4,1
"614",0,0,224,2,2,2,"161c7f1",5,1
"713",1,1,338,3,3,2,"161c7f1",6,1
"83",1,0,347,1,2,2,"161c7f1",7,1
"93",1,1,246,1,1,2,"161c7f1",8,1
"103",1,0,215,1,4,2,"161c7f1",9,1
"113",0,0,260,4,4,2,"161c7f1",10,1
"123",1,1,495,6,6,2,"161c7f1",11,1
"133",1,0,243,5,1,2,"161c7f1",12,1
"143",1,1,710,4,4,2,"161c7f1",13,1
"153",0,1,210,3,1,2,"161c7f1",14,1
"163",0,0,28,3,3,2,"161c7f1",15,1
"173",1,0,886,6,1,2,"161c7f1",16,1
"183",0,0,216,2,2,2,"161c7f1",17,1
"193",0,0,267,6,6,2,"161c7f1",18,1
"203",1,1,246,5,5,2,"161c7f1",19,1
"215",0,1,241,1,4,2,"161c7f1",20,1
"223",1,1,90,1,1,2,"161c7f1",21,1
"233",0,1,222,1,2,2,"161c7f1",22,1
"243",1,0,239,1,4,2,"161c7f1",23,1
"253",1,0,522,5,1,2,"161c7f1",24,1
"263",0,1,188,1,2,2,"161c7f1",25,1
"273",0,0,296,2,2,2,"161c7f1",26,1
"283",0,0,235,4,4,2,"161c7f1",27,1
"293",1,1,278,1,1,2,"161c7f1",28,1
"303",0,0,1337,5,5,2,"161c7f1",29,1
"315",0,1,595,1,6,2,"161c7f1",30,1
"323",1,1,245,6,6,2,"161c7f1",31,1
"333",1,1,232,3,3,2,"161c7f1",32,1
"343",0,1,237,1,3,2,"161c7f1",33,1
"353",1,1,295,5,5,2,"161c7f1",34,1
"363",1,1,226,6,6,2,"161c7f1",35,1
"373",0,1,604,3,1,2,"161c7f1",36,1
"383",0,1,287,4,1,2,"161c7f1",37,1
"393",1,1,257,3,3,2,"161c7f1",38,1
"403",1,1,263,1,1,2,"161c7f1",39,1
"415",0,1,265,1,5,2,"161c7f1",40,1
"423",0,1,339,2,1,2,"161c7f1",41,1
"433",0,1,301,6,1,2,"161c7f1",42,1
"443",1,1,954,4,4,2,"161c7f1",43,1
"453",1,1,229,2,2,2,"161c7f1",44,1
"463",0,1,271,1,4,2,"161c7f1",45,1
"473",0,1,263,6,1,2,"161c7f1",46,1
"483",1,1,298,3,3,2,"161c7f1",47,1
"493",0,1,452,3,1,2,"161c7f1",48,1
"503",0,1,352,5,1,2,"161c7f1",49,1
"515",1,1,265,4,4,2,"161c7f1",50,1
"523",1,1,262,2,2,2,"161c7f1",51,1
"533",1,1,369,6,6,2,"161c7f1",52,1
"543",1,1,269,1,1,2,"161c7f1",53,1
"553",1,0,238,1,2,2,"161c7f1",54,1
"563",1,1,244,5,5,2,"161c7f1",55,1
"573",0,1,700,1,6,2,"161c7f1",56,1
"583",1,1,319,2,2,2,"161c7f1",57,1
"593",1,1,226,3,3,2,"161c7f1",58,1
"603",1,1,494,5,5,2,"161c7f1",59,1
"615",1,1,319,6,6,2,"161c7f1",60,1
"623",1,1,563,4,4,2,"161c7f1",61,1
"633",0,1,252,1,3,2,"161c7f1",62,1
"643",0,1,263,1,2,2,"161c7f1",63,1
"653",0,1,193,5,1,2,"161c7f1",64,1
"663",0,1,301,1,4,2,"161c7f1",65,1
"673",1,1,248,1,1,2,"161c7f1",66,1
"683",0,1,390,1,3,2,"161c7f1",67,1
"693",1,1,253,3,3,2,"161c7f1",68,1
"703",0,1,233,2,1,2,"161c7f1",69,1
"714",0,1,530,4,1,2,"161c7f1",70,1
"723",0,1,236,1,5,2,"161c7f1",71,1
"733",1,1,230,2,2,2,"161c7f1",72,1
"743",0,1,233,1,6,2,"161c7f1",73,1
"753",1,1,237,4,4,2,"161c7f1",74,1
"763",1,1,111,5,5,2,"161c7f1",75,1
"773",1,1,410,1,1,2,"161c7f1",76,1
"783",1,1,549,6,6,2,"161c7f1",77,1
"216",0,0,1230,1,1,3,"11fd9fc",1,1
"316",1,0,374,3,1,3,"11fd9fc",2,1
"416",1,1,267,6,6,3,"11fd9fc",3,1
"516",1,0,286,6,1,3,"11fd9fc",4,1
"616",1,0,318,2,1,3,"11fd9fc",5,1
"715",1,0,340,4,1,3,"11fd9fc",6,1
"84",0,0,333,4,4,3,"11fd9fc",7,1
"94",1,1,343,3,3,3,"11fd9fc",8,1
"104",0,0,662,2,2,3,"11fd9fc",9,1
"114",0,0,390,5,5,3,"11fd9fc",10,1
"124",1,0,262,5,1,3,"11fd9fc",11,1
"134",1,1,110,6,6,3,"11fd9fc",12,1
"144",0,1,353,3,1,3,"11fd9fc",13,1
"154",0,1,526,5,1,3,"11fd9fc",14,1
"164",1,1,360,1,1,3,"11fd9fc",15,1
"174",1,1,383,2,2,3,"11fd9fc",16,1
"184",0,0,457,4,4,3,"11fd9fc",17,1
"194",1,0,334,2,1,3,"11fd9fc",18,1
"204",1,1,1786,5,5,3,"11fd9fc",19,1
"217",1,0,338,1,4,3,"11fd9fc",20,1
"224",0,1,444,6,1,3,"11fd9fc",21,1
"234",1,1,342,3,3,3,"11fd9fc",22,1
"244",1,1,334,3,3,3,"11fd9fc",23,1
"254",0,0,374,5,5,3,"11fd9fc",24,1
"264",1,1,481,6,6,3,"11fd9fc",25,1
"274",1,0,1119,1,2,3,"11fd9fc",26,1
"284",1,1,345,2,2,3,"11fd9fc",27,1
"294",1,0,324,1,5,3,"11fd9fc",28,1
"304",0,1,796,4,1,3,"11fd9fc",29,1
"317",1,1,339,1,1,3,"11fd9fc",30,1
"324",1,1,769,4,4,3,"11fd9fc",31,1
"334",0,1,376,3,1,3,"11fd9fc",32,1
"344",0,1,104,6,1,3,"11fd9fc",33,1
"354",1,1,307,6,6,3,"11fd9fc",34,1
"364",1,1,403,4,4,3,"11fd9fc",35,1
"374",0,1,290,5,1,3,"11fd9fc",36,1
"384",1,0,354,1,3,3,"11fd9fc",37,1
"394",0,1,472,2,1,3,"11fd9fc",38,1
"404",1,0,302,1,4,3,"11fd9fc",39,1
"417",1,1,318,2,2,3,"11fd9fc",40,1
"424",0,0,292,1,1,3,"11fd9fc",41,1
"434",0,0,314,3,3,3,"11fd9fc",42,1
"444",1,1,972,5,5,3,"11fd9fc",43,1
"454",0,1,339,6,1,3,"11fd9fc",44,1
"464",1,0,364,1,4,3,"11fd9fc",45,1
"474",0,1,297,5,1,3,"11fd9fc",46,1
"484",1,1,450,1,1,3,"11fd9fc",47,1
"494",1,1,299,6,6,3,"11fd9fc",48,1
"504",1,0,396,1,3,3,"11fd9fc",49,1
"517",0,0,387,5,5,3,"11fd9fc",50,1
"524",1,1,293,4,4,3,"11fd9fc",51,1
"534",1,1,333,2,2,3,"11fd9fc",52,1
"544",0,1,334,6,1,3,"11fd9fc",53,1
"554",1,1,311,3,3,3,"11fd9fc",54,1
"564",0,1,330,2,1,3,"11fd9fc",55,1
"574",1,1,353,3,3,3,"11fd9fc",56,1
"584",1,1,311,6,6,3,"11fd9fc",57,1
"594",0,0,303,1,1,3,"11fd9fc",58,1
"604",1,1,391,5,5,3,"11fd9fc",59,1
"617",1,0,479,2,1,3,"11fd9fc",60,1
"624",1,1,367,4,4,3,"11fd9fc",61,1
"634",0,1,376,4,1,3,"11fd9fc",62,1
"644",1,1,440,2,2,3,"11fd9fc",63,1
"654",0,1,296,1,5,3,"11fd9fc",64,1
"664",1,0,353,6,1,3,"11fd9fc",65,1
"674",1,0,303,3,1,3,"11fd9fc",66,1
"684",0,1,295,1,5,3,"11fd9fc",67,1
"694",1,1,559,6,6,3,"11fd9fc",68,1
"704",0,0,421,2,2,3,"11fd9fc",69,1
"716",1,0,372,1,6,3,"11fd9fc",70,1
"724",1,0,329,1,4,3,"11fd9fc",71,1
"734",1,0,755,1,3,3,"11fd9fc",72,1
"744",1,1,266,3,3,3,"11fd9fc",73,1
"754",1,1,165,1,1,3,"11fd9fc",74,1
"764",0,1,327,2,1,3,"11fd9fc",75,1
"774",1,1,500,4,4,3,"11fd9fc",76,1
"784",0,0,292,5,5,3,"11fd9fc",77,1
"218",1,1,395,5,5,1,"1be6c28",1,1
"318",0,1,713,2,1,1,"1be6c28",2,1
"418",1,1,458,4,4,1,"1be6c28",3,1
"518",0,1,360,5,1,1,"1be6c28",4,1
"618",0,1,351,4,1,1,"1be6c28",5,1
"717",1,1,319,2,2,1,"1be6c28",6,1
"85",1,0,399,1,3,1,"1be6c28",7,1
"95",1,1,369,1,1,1,"1be6c28",8,1
"105",0,0,328,3,3,1,"1be6c28",9,1
"115",0,1,346,6,1,1,"1be6c28",10,1
"125",1,1,310,6,6,1,"1be6c28",11,1
"135",1,0,367,2,1,1,"1be6c28",12,1
"145",0,1,323,5,1,1,"1be6c28",13,1
"155",0,1,354,6,1,1,"1be6c28",14,1
"165",0,1,337,4,1,1,"1be6c28",15,1
"175",1,1,317,5,5,1,"1be6c28",16,1
"185",1,1,303,4,4,1,"1be6c28",17,1
"195",1,1,286,1,1,1,"1be6c28",18,1
"205",1,1,257,2,2,1,"1be6c28",19,1
"219",1,1,238,3,3,1,"1be6c28",20,1
"225",1,1,317,6,6,1,"1be6c28",21,1
"235",1,0,270,3,1,1,"1be6c28",22,1
"245",0,1,308,5,1,1,"1be6c28",23,1
"255",1,1,312,3,3,1,"1be6c28",24,1
"265",1,0,293,3,1,1,"1be6c28",25,1
"275",1,1,551,2,2,1,"1be6c28",26,1
"285",1,1,425,5,5,1,"1be6c28",27,1
"295",0,0,561,6,6,1,"1be6c28",28,1
"305",1,0,502,1,2,1,"1be6c28",29,1
"319",0,1,281,4,1,1,"1be6c28",30,1
"325",0,1,289,6,1,1,"1be6c28",31,1
"335",0,0,354,4,4,1,"1be6c28",32,1
"345",1,1,305,1,1,1,"1be6c28",33,1
"355",1,1,400,4,4,1,"1be6c28",34,1
"365",1,0,415,1,2,1,"1be6c28",35,1
"375",0,1,325,1,6,1,"1be6c28",36,1
"385",1,1,476,2,2,1,"1be6c28",37,1
"395",0,0,355,6,6,1,"1be6c28",38,1
"405",1,1,341,5,5,1,"1be6c28",39,1
"419",1,1,447,3,3,1,"1be6c28",40,1
"425",1,1,413,1,1,1,"1be6c28",41,1
"435",1,0,302,3,1,1,"1be6c28",42,1
"445",-1,-1,0,4,1,1,"1be6c28",43,1
"455",-1,-1,0,1,5,1,"1be6c28",44,1
"465",1,0,352,1,2,1,"1be6c28",45,1
"475",0,1,313,1,6,1,"1be6c28",46,1
"485",1,1,288,6,6,1,"1be6c28",47,1
"495",1,0,428,1,3,1,"1be6c28",48,1
"505",0,0,575,5,5,1,"1be6c28",49,1
"519",1,1,406,4,4,1,"1be6c28",50,1
"525",0,0,517,1,1,1,"1be6c28",51,1
"535",1,0,302,5,1,1,"1be6c28",52,1
"545",1,1,294,2,2,1,"1be6c28",53,1
"555",1,1,280,3,3,1,"1be6c28",54,1
"565",0,1,334,4,1,1,"1be6c28",55,1
"575",1,1,430,1,1,1,"1be6c28",56,1
"585",0,1,325,4,1,1,"1be6c28",57,1
"595",0,1,181,1,6,1,"1be6c28",58,1
"605",0,1,672,1,5,1,"1be6c28",59,1
"619",1,1,349,3,3,1,"1be6c28",60,1
"625",1,1,371,2,2,1,"1be6c28",61,1
"635",1,0,282,1,2,1,"1be6c28",62,1
"645",1,1,419,6,6,1,"1be6c28",63,1
"655",1,0,312,3,1,1,"1be6c28",64,1
"665",1,1,177,4,4,1,"1be6c28",65,1
"675",1,1,361,5,5,1,"1be6c28",66,1
"685",1,1,469,2,2,1,"1be6c28",67,1
"695",0,1,404,6,1,1,"1be6c28",68,1
"705",1,1,365,1,1,1,"1be6c28",69,1
"718",1,1,367,3,3,1,"1be6c28",70,1
"725",0,1,296,1,4,1,"1be6c28",71,1
"735",1,1,432,6,6,1,"1be6c28",72,1
"745",1,0,275,1,3,1,"1be6c28",73,1
"755",1,0,206,1,2,1,"1be6c28",74,1
"765",0,1,329,5,1,1,"1be6c28",75,1
"775",1,1,241,4,4,1,"1be6c28",76,1
"785",1,1,263,5,5,1,"1be6c28",77,1
"220",1,1,593,4,4,3,"10dc201",1,1
"320",1,1,409,3,3,3,"10dc201",2,1
"420",1,0,405,4,1,3,"10dc201",3,1
"520",1,1,582,5,5,3,"10dc201",4,1
"620",0,1,346,5,1,3,"10dc201",5,1
"719",0,1,349,3,1,3,"10dc201",6,1
"86",0,0,433,6,6,3,"10dc201",7,1
"96",1,1,341,1,1,3,"10dc201",8,1
"106",1,0,290,2,1,3,"10dc201",9,1
"116",1,1,363,2,2,3,"10dc201",10,1
"126",0,1,296,6,1,3,"10dc201",11,1
"136",1,1,339,6,6,3,"10dc201",12,1
"146",1,1,352,3,3,3,"10dc201",13,1
"156",1,1,410,2,2,3,"10dc201",14,1
"166",1,1,380,5,5,3,"10dc201",15,1
"176",1,0,311,2,1,3,"10dc201",16,1
"186",0,1,274,5,1,3,"10dc201",17,1
"196",1,1,269,1,1,3,"10dc201",18,1
"206",0,1,246,1,4,3,"10dc201",19,1
"2110",0,1,289,1,6,3,"10dc201",20,1
"226",0,1,269,3,1,3,"10dc201",21,1
"236",1,1,767,4,4,3,"10dc201",22,1
"246",1,1,410,2,2,3,"10dc201",23,1
"256",0,0,285,4,4,3,"10dc201",24,1
"266",0,1,282,1,2,3,"10dc201",25,1
"276",0,1,291,1,6,3,"10dc201",26,1
"286",1,1,262,3,3,3,"10dc201",27,1
"296",0,1,307,4,1,3,"10dc201",28,1
"306",1,1,318,6,6,3,"10dc201",29,1
"3110",1,1,203,1,1,3,"10dc201",30,1
"326",1,1,360,5,5,3,"10dc201",31,1
"336",0,1,7,3,1,3,"10dc201",32,1
"346",0,1,275,5,1,3,"10dc201",33,1
"356",1,1,276,6,6,3,"10dc201",34,1
"366",0,1,329,1,4,3,"10dc201",35,1
"376",1,1,462,3,3,3,"10dc201",36,1
"386",0,1,321,1,3,3,"10dc201",37,1
"396",1,1,389,1,1,3,"10dc201",38,1
"406",1,1,313,2,2,3,"10dc201",39,1
"4110",0,1,226,1,5,3,"10dc201",40,1
"426",1,0,261,1,2,3,"10dc201",41,1
"436",1,1,303,5,5,3,"10dc201",42,1
"446",0,0,305,4,4,3,"10dc201",43,1
"456",0,1,380,1,6,3,"10dc201",44,1
"466",1,1,430,3,3,3,"10dc201",45,1
"476",0,1,248,1,5,3,"10dc201",46,1
"486",1,1,284,5,5,3,"10dc201",47,1
"496",1,1,400,2,2,3,"10dc201",48,1
"506",0,1,290,1,3,3,"10dc201",49,1
"5110",1,0,173,1,2,3,"10dc201",50,1
"526",1,1,209,1,1,3,"10dc201",51,1
"536",0,0,332,4,4,3,"10dc201",52,1
"546",0,1,262,4,1,3,"10dc201",53,1
"556",0,0,235,6,6,3,"10dc201",54,1
"566",0,1,422,1,6,3,"10dc201",55,1
"576",0,1,298,4,1,3,"10dc201",56,1
"586",1,1,269,3,3,3,"10dc201",57,1
"596",1,0,375,1,2,3,"10dc201",58,1
"606",1,1,546,4,4,3,"10dc201",59,1
"6110",0,0,282,1,1,3,"10dc201",60,1
"626",0,1,253,1,6,3,"10dc201",61,1
"636",0,1,289,1,3,3,"10dc201",62,1
"646",0,1,210,5,1,3,"10dc201",63,1
"656",1,1,550,5,5,3,"10dc201",64,1
"666",1,1,178,6,6,3,"10dc201",65,1
"676",1,1,222,2,2,3,"10dc201",66,1
"686",1,1,158,3,3,3,"10dc201",67,1
"696",0,1,257,1,6,3,"10dc201",68,1
"706",0,1,291,1,4,3,"10dc201",69,1
"7110",0,1,199,5,1,3,"10dc201",70,1
"726",1,0,266,1,3,3,"10dc201",71,1
"736",1,0,374,2,1,3,"10dc201",72,1
"746",0,0,192,5,5,3,"10dc201",73,1
"756",1,1,339,1,1,3,"10dc201",74,1
"766",1,1,486,4,4,3,"10dc201",75,1
"776",1,1,541,6,6,3,"10dc201",76,1
"786",1,1,797,2,2,3,"10dc201",77,1
"227",1,1,716,3,3,2,"1a2b142",1,1
"327",1,1,252,2,2,2,"1a2b142",2,1
"427",1,1,358,5,5,2,"1a2b142",3,1
"527",0,1,440,5,1,2,"1a2b142",4,1
"627",0,1,402,1,4,2,"1a2b142",5,1
"720",1,1,828,1,1,2,"1a2b142",6,1
"87",1,0,313,2,1,2,"1a2b142",7,1
"97",0,1,465,6,1,2,"1a2b142",8,1
"107",1,1,423,4,4,2,"1a2b142",9,1
"117",1,1,355,6,6,2,"1a2b142",10,1
"127",1,0,298,3,1,2,"1a2b142",11,1
"137",1,1,287,2,2,2,"1a2b142",12,1
"147",1,1,313,5,5,2,"1a2b142",13,1
"157",0,1,306,1,5,2,"1a2b142",14,1
"167",0,1,1218,3,1,2,"1a2b142",15,1
"177",0,1,379,1,6,2,"1a2b142",16,1
"187",1,0,287,1,2,2,"1a2b142",17,1
"197",1,1,550,1,1,2,"1a2b142",18,1
"207",1,1,366,6,6,2,"1a2b142",19,1
"2111",0,1,451,1,4,2,"1a2b142",20,1
"228",1,1,139,4,4,2,"1a2b142",21,1
"237",1,1,425,3,3,2,"1a2b142",22,1
"247",1,1,401,2,2,2,"1a2b142",23,1
"257",0,1,291,1,4,2,"1a2b142",24,1
"267",1,1,324,4,4,2,"1a2b142",25,1
"277",0,0,441,5,5,2,"1a2b142",26,1
"287",0,1,661,1,5,2,"1a2b142",27,1
"297",0,1,671,6,1,2,"1a2b142",28,1
"307",1,1,551,3,3,2,"1a2b142",29,1
"3111",1,1,1211,6,6,2,"1a2b142",30,1
"328",1,0,302,1,3,2,"1a2b142",31,1
"337",0,0,266,1,1,2,"1a2b142",32,1
"347",1,0,767,1,2,2,"1a2b142",33,1
"357",1,1,371,5,5,2,"1a2b142",34,1
"367",1,0,337,1,2,2,"1a2b142",35,1
"377",1,1,288,1,1,2,"1a2b142",36,1
"387",1,1,273,6,6,2,"1a2b142",37,1
"397",0,1,269,3,1,2,"1a2b142",38,1
"407",1,1,308,2,2,2,"1a2b142",39,1
"4111",1,1,682,4,4,2,"1a2b142",40,1
"428",0,1,1003,6,1,2,"1a2b142",41,1
"437",0,1,1379,1,5,2,"1a2b142",42,1
"447",0,1,1287,4,1,2,"1a2b142",43,1
"457",1,1,316,3,3,2,"1a2b142",44,1
"467",1,1,314,6,6,2,"1a2b142",45,1
"477",0,1,471,6,1,2,"1a2b142",46,1
"487",1,0,290,1,2,2,"1a2b142",47,1
"497",1,1,412,5,5,2,"1a2b142",48,1
"507",1,0,628,1,3,2,"1a2b142",49,1
"5111",0,1,630,1,5,2,"1a2b142",50,1
"528",-1,-1,0,4,4,2,"1a2b142",51,1
"537",1,1,519,3,3,2,"1a2b142",52,1
"547",1,1,744,2,2,2,"1a2b142",53,1
"557",0,1,636,1,4,2,"1a2b142",54,1
"567",1,1,340,1,1,2,"1a2b142",55,1
"577",0,1,260,6,1,2,"1a2b142",56,1
"587",1,0,284,1,2,2,"1a2b142",57,1
"597",0,0,786,3,3,2,"1a2b142",58,1
"607",0,1,580,3,1,2,"1a2b142",59,1
"6111",1,1,273,2,2,2,"1a2b142",60,1
"628",0,1,342,1,4,2,"1a2b142",61,1
"637",1,1,482,1,1,2,"1a2b142",62,1
"647",1,1,321,4,4,2,"1a2b142",63,1
"657",0,0,285,5,5,2,"1a2b142",64,1
"667",1,1,359,6,6,2,"1a2b142",65,1
"677",0,1,444,1,5,2,"1a2b142",66,1
"687",0,1,510,1,6,2,"1a2b142",67,1
"697",1,1,428,2,2,2,"1a2b142",68,1
"707",0,1,346,4,1,2,"1a2b142",69,1
"7111",0,1,402,5,1,2,"1a2b142",70,1
"727",1,1,250,4,4,2,"1a2b142",71,1
"737",0,1,386,2,1,2,"1a2b142",72,1
"747",0,1,314,3,1,2,"1a2b142",73,1
"757",1,1,230,3,3,2,"1a2b142",74,1
"767",1,1,266,5,5,2,"1a2b142",75,1
"777",1,1,281,6,6,2,"1a2b142",76,1
"787",-1,-1,0,1,1,2,"1a2b142",77,1
"229",1,1,1193,2,2,2,"1023590",1,1
"329",0,1,1844,4,1,2,"1023590",2,1
"429",1,1,1855,3,3,2,"1023590",3,1
"529",1,1,431,1,1,2,"1023590",4,1
"629",1,1,1655,6,6,2,"1023590",5,1
"728",1,0,503,2,1,2,"1023590",6,1
"88",0,1,274,1,6,2,"1023590",7,1
"98",0,0,384,5,5,2,"1023590",8,1
"108",1,0,338,1,3,2,"1023590",9,1
"118",1,1,264,4,4,2,"1023590",10,1
"128",0,1,595,5,1,2,"1023590",11,1
"138",1,0,555,6,1,2,"1023590",12,1
"148",0,1,586,2,1,2,"1023590",13,1
"158",1,1,22,3,3,2,"1023590",14,1
"168",0,1,791,1,3,2,"1023590",15,1
"178",1,1,177,4,4,2,"1023590",16,1
"188",0,1,356,5,1,2,"1023590",17,1
"198",1,1,289,5,5,2,"1023590",18,1
"208",0,0,1094,6,6,2,"1023590",19,1
"2112",1,1,624,1,1,2,"1023590",20,1
"2210",0,0,512,2,2,2,"1023590",21,1
"238",1,0,273,4,1,2,"1023590",22,1
"248",1,1,1553,4,4,2,"1023590",23,1
"258",-1,-1,0,1,6,2,"1023590",24,1
"268",1,0,132,1,3,2,"1023590",25,1
"278",1,0,326,2,1,2,"1023590",26,1
"288",0,0,117,3,3,2,"1023590",27,1
"298",1,0,1077,4,1,2,"1023590",28,1
"308",0,0,1565,5,5,2,"1023590",29,1
"3112",1,1,445,1,1,2,"1023590",30,1
"3210",1,1,342,2,2,2,"1023590",31,1
"338",1,1,315,6,6,2,"1023590",32,1
"348",0,1,291,5,1,2,"1023590",33,1
"358",1,1,438,4,4,2,"1023590",34,1
"368",1,1,202,5,5,2,"1023590",35,1
"378",0,1,283,1,6,2,"1023590",36,1
"388",1,1,232,3,3,2,"1023590",37,1
"398",1,0,1,1,4,2,"1023590",38,1
"408",1,1,263,6,6,2,"1023590",39,1
"4112",0,0,497,2,2,2,"1023590",40,1
"4210",1,0,283,1,3,2,"1023590",41,1
"438",1,0,431,1,2,2,"1023590",42,1
"448",1,0,219,1,5,2,"1023590",43,1
"458",0,0,215,1,1,2,"1023590",44,1
"468",0,1,243,1,3,2,"1023590",45,1
"478",1,1,533,1,1,2,"1023590",46,1
"488",0,0,284,4,4,2,"1023590",47,1
"498",1,1,173,3,3,2,"1023590",48,1
"508",0,1,506,1,5,2,"1023590",49,1
"5112",1,0,453,4,1,2,"1023590",50,1
"5210",0,1,214,2,1,2,"1023590",51,1
"538",1,1,208,6,6,2,"1023590",52,1
"548",0,0,78,2,2,2,"1023590",53,1
"558",1,0,232,1,6,2,"1023590",54,1
"568",1,1,12,5,5,2,"1023590",55,1
"578",1,0,393,2,1,2,"1023590",56,1
"588",1,0,225,1,5,2,"1023590",57,1
"598",0,1,207,1,3,2,"1023590",58,1
"608",0,0,520,6,6,2,"1023590",59,1
"6112",1,0,330,1,6,2,"1023590",60,1
"6210",0,0,209,3,3,2,"1023590",61,1
"638",1,1,218,4,4,2,"1023590",62,1
"648",0,0,889,2,2,2,"1023590",63,1
"658",0,0,270,5,5,2,"1023590",64,1
"668",1,1,219,1,1,2,"1023590",65,1
"678",0,1,123,4,1,2,"1023590",66,1
"688",1,1,236,6,6,2,"1023590",67,1
"698",0,1,237,2,1,2,"1023590",68,1
"708",1,1,789,1,1,2,"1023590",69,1
"7112",0,0,78,4,4,2,"1023590",70,1
"729",1,0,392,4,1,2,"1023590",71,1
"738",0,0,293,2,2,2,"1023590",72,1
"748",1,0,49,1,3,2,"1023590",73,1
"758",0,0,803,5,5,2,"1023590",74,1
"768",0,1,419,1,6,2,"1023590",75,1
"778",1,0,300,5,1,2,"1023590",76,1
"788",1,1,296,3,3,2,"1023590",77,1
"230",1,1,80,4,4,2,"19cabe6",1,1
"330",1,0,180,3,1,2,"19cabe6",2,1
"430",1,0,257,1,5,2,"19cabe6",3,1
"530",1,1,316,2,2,2,"19cabe6",4,1
"630",1,1,225,5,5,2,"19cabe6",5,1
"730",1,1,94,3,3,2,"19cabe6",6,1
"89",1,0,510,1,4,2,"19cabe6",7,1
"99",1,1,244,6,6,2,"19cabe6",8,1
"109",1,1,439,1,1,2,"19cabe6",9,1
"119",1,0,133,6,1,2,"19cabe6",10,1
"129",1,0,434,1,2,2,"19cabe6",11,1
"139",0,1,336,5,1,2,"19cabe6",12,1
"149",1,1,210,2,2,2,"19cabe6",13,1
"159",1,1,84,5,5,2,"19cabe6",14,1
"169",1,1,233,6,6,2,"19cabe6",15,1
"179",1,0,216,1,2,2,"19cabe6",16,1
"189",1,1,14,4,4,2,"19cabe6",17,1
"199",0,1,372,6,1,2,"19cabe6",18,1
"209",1,1,104,3,3,2,"19cabe6",19,1
"2113",1,1,91,1,1,2,"19cabe6",20,1
"2211",0,1,237,1,4,2,"19cabe6",21,1
"239",0,1,69,3,1,2,"19cabe6",22,1
"249",0,1,392,6,1,2,"19cabe6",23,1
"259",0,1,352,1,5,2,"19cabe6",24,1
"269",1,1,275,2,2,2,"19cabe6",25,1
"279",1,1,456,5,5,2,"19cabe6",26,1
"289",1,1,149,4,4,2,"19cabe6",27,1
"299",0,1,155,1,4,2,"19cabe6",28,1
"309",1,1,146,1,1,2,"19cabe6",29,1
"3113",0,1,183,1,2,2,"19cabe6",30,1
"3211",1,1,39,3,3,2,"19cabe6",31,1
"339",1,1,76,6,6,2,"19cabe6",32,1
"349",0,1,631,1,3,2,"19cabe6",33,1
"359",0,1,304,6,1,2,"19cabe6",34,1
"369",0,1,234,5,1,2,"19cabe6",35,1
"379",0,0,430,2,2,2,"19cabe6",36,1
"389",1,1,55,4,4,2,"19cabe6",37,1
"399",1,0,155,1,2,2,"19cabe6",38,1
"409",0,1,164,1,3,2,"19cabe6",39,1
"4113",1,1,388,5,5,2,"19cabe6",40,1
"4211",1,1,32,3,3,2,"19cabe6",41,1
"439",1,1,135,1,1,2,"19cabe6",42,1
"449",0,1,658,4,1,2,"19cabe6",43,1
"459",1,1,656,6,6,2,"19cabe6",44,1
"469",1,1,331,3,3,2,"19cabe6",45,1
"479",1,1,577,4,4,2,"19cabe6",46,1
"489",1,1,294,6,6,2,"19cabe6",47,1
"499",0,1,136,6,1,2,"19cabe6",48,1
"509",1,0,70,2,1,2,"19cabe6",49,1
"5113",1,1,256,1,1,2,"19cabe6",50,1
"5211",0,1,145,1,5,2,"19cabe6",51,1
"539",1,1,503,5,5,2,"19cabe6",52,1
"549",0,1,644,3,1,2,"19cabe6",53,1
"559",0,1,305,1,4,2,"19cabe6",54,1
"569",0,0,210,2,2,2,"19cabe6",55,1
"579",0,1,141,3,1,2,"19cabe6",56,1
"589",1,1,61,5,5,2,"19cabe6",57,1
"599",1,1,10,2,2,2,"19cabe6",58,1
"609",1,1,572,1,1,2,"19cabe6",59,1
"6113",1,1,708,4,4,2,"19cabe6",60,1
"6211",1,0,751,2,1,2,"19cabe6",61,1
"639",0,1,175,6,1,2,"19cabe6",62,1
"649",0,1,1066,5,1,2,"19cabe6",63,1
"659",1,1,242,6,6,2,"19cabe6",64,1
"669",0,1,41,4,1,2,"19cabe6",65,1
"679",0,0,265,3,3,2,"19cabe6",66,1
"689",0,0,177,3,3,2,"19cabe6",67,1
"699",0,1,305,5,1,2,"19cabe6",68,1
"709",1,1,261,4,4,2,"19cabe6",69,1
"7113",1,1,59,5,5,2,"19cabe6",70,1
"7210",0,1,16,3,1,2,"19cabe6",71,1
"739",1,0,87,2,1,2,"19cabe6",72,1
"749",1,1,70,2,2,2,"19cabe6",73,1
"759",1,1,464,1,1,2,"19cabe6",74,1
"769",0,1,693,6,1,2,"19cabe6",75,1
"779",0,1,757,1,4,2,"19cabe6",76,1
"789",1,1,335,6,6,2,"19cabe6",77,1
"240",1,1,60,2,2,1,"16f5e83",1,1
"340",1,1,296,5,5,1,"16f5e83",2,1
"440",1,1,429,1,1,1,"16f5e83",3,1
"540",1,1,317,6,6,1,"16f5e83",4,1
"640",1,0,546,2,1,1,"16f5e83",5,1
"740",1,1,326,3,3,1,"16f5e83",6,1
"810",1,0,393,1,4,1,"16f5e83",7,1
"910",1,0,321,1,5,1,"16f5e83",8,1
"1010",1,0,242,1,3,1,"16f5e83",9,1
"1110",1,1,378,4,4,1,"16f5e83",10,1
"1210",1,0,257,1,6,1,"16f5e83",11,1
"1310",1,0,323,2,1,1,"16f5e83",12,1
"1410",1,1,320,3,3,1,"16f5e83",13,1
"1510",1,0,304,5,1,1,"16f5e83",14,1
"1610",1,1,318,5,5,1,"16f5e83",15,1
"1710",0,0,291,1,1,1,"16f5e83",16,1
"1810",1,0,277,3,1,1,"16f5e83",17,1
"1910",1,1,328,6,6,1,"16f5e83",18,1
"2010",1,0,281,1,4,1,"16f5e83",19,1
"2114",0,1,285,1,6,1,"16f5e83",20,1
"2212",1,1,324,4,4,1,"16f5e83",21,1
"2310",1,1,424,2,2,1,"16f5e83",22,1
"2410",1,1,505,5,5,1,"16f5e83",23,1
"2510",1,1,381,6,6,1,"16f5e83",24,1
"2610",1,0,299,1,4,1,"16f5e83",25,1
"2710",0,1,253,6,1,1,"16f5e83",26,1
"2810",1,1,287,1,1,1,"16f5e83",27,1
"2910",1,1,322,3,3,1,"16f5e83",28,1
"3010",1,1,322,2,2,1,"16f5e83",29,1
"3114",0,1,393,1,5,1,"16f5e83",30,1
"3212",1,1,268,4,4,1,"16f5e83",31,1
"3310",0,1,386,3,1,1,"16f5e83",32,1
"3410",0,1,303,1,2,1,"16f5e83",33,1
"3510",1,1,317,3,3,1,"16f5e83",34,1
"3610",1,1,385,6,6,1,"16f5e83",35,1
"3710",1,1,365,1,1,1,"16f5e83",36,1
"3810",1,0,275,1,2,1,"16f5e83",37,1
"3910",0,1,313,5,1,1,"16f5e83",38,1
"4010",1,1,402,2,2,1,"16f5e83",39,1
"4114",0,1,360,1,3,1,"16f5e83",40,1
"4212",1,1,565,5,5,1,"16f5e83",41,1
"4310",1,1,981,4,4,1,"16f5e83",42,1
"4410",0,1,471,4,1,1,"16f5e83",43,1
"4510",0,1,333,1,6,1,"16f5e83",44,1
"4610",1,1,302,6,6,1,"16f5e83",45,1
"4710",0,1,1046,1,5,1,"16f5e83",46,1
"4810",1,1,388,4,4,1,"16f5e83",47,1
"4910",1,1,274,1,1,1,"16f5e83",48,1
"5010",1,1,412,3,3,1,"16f5e83",49,1
"5114",0,0,291,2,2,1,"16f5e83",50,1
"5212",1,0,318,2,1,1,"16f5e83",51,1
"5310",0,1,309,1,3,1,"16f5e83",52,1
"5410",1,1,426,5,5,1,"16f5e83",53,1
"5510",0,1,525,4,1,1,"16f5e83",54,1
"5610",0,1,610,1,6,1,"16f5e83",55,1
"5710",0,1,650,1,5,1,"16f5e83",56,1
"5810",0,1,456,1,3,1,"16f5e83",57,1
"5910",1,0,341,2,1,1,"16f5e83",58,1
"6010",0,1,383,6,1,1,"16f5e83",59,1
"6114",1,1,335,3,3,1,"16f5e83",60,1
"6212",0,1,572,4,1,1,"16f5e83",61,1
"6310",0,0,470,1,1,1,"16f5e83",62,1
"6410",1,1,344,6,6,1,"16f5e83",63,1
"6510",1,1,341,5,5,1,"16f5e83",64,1
"6610",1,1,330,2,2,1,"16f5e83",65,1
"6710",1,1,395,4,4,1,"16f5e83",66,1
"6810",1,1,394,4,4,1,"16f5e83",67,1
"6910",0,1,412,1,2,1,"16f5e83",68,1
"7010",1,1,366,3,3,1,"16f5e83",69,1
"7114",1,1,437,1,1,1,"16f5e83",70,1
"7211",0,1,414,4,1,1,"16f5e83",71,1
"7310",0,1,376,1,6,1,"16f5e83",72,1
"7410",1,1,335,6,6,1,"16f5e83",73,1
"7510",1,1,287,2,2,1,"16f5e83",74,1
"7610",0,1,519,5,1,1,"16f5e83",75,1
"7710",0,1,471,1,3,1,"16f5e83",76,1
"7810",1,1,313,5,5,1,"16f5e83",77,1
"250",1,0,852,3,1,2,"1d16857",1,1
"350",1,1,720,6,6,2,"1d16857",2,1
"450",1,0,531,1,5,2,"1d16857",3,1
"550",1,1,438,5,5,2,"1d16857",4,1
"650",1,1,90,4,4,2,"1d16857",5,1
"750",1,1,227,3,3,2,"1d16857",6,1
"811",1,1,421,1,1,2,"1d16857",7,1
"911",1,0,308,2,1,2,"1d16857",8,1
"1011",0,0,289,2,2,2,"1d16857",9,1
"1111",1,0,298,4,1,2,"1d16857",10,1
"1211",1,0,366,1,6,2,"1d16857",11,1
"1311",0,1,192,5,1,2,"1d16857",12,1
"1411",1,0,105,1,6,2,"1d16857",13,1
"1511",1,0,262,1,4,2,"1d16857",14,1
"1611",1,0,404,2,1,2,"1d16857",15,1
"1711",1,1,753,6,6,2,"1d16857",16,1
"1811",1,1,383,1,1,2,"1d16857",17,1
"1911",1,1,247,5,5,2,"1d16857",18,1
"2011",1,0,70,1,3,2,"1d16857",19,1
"2115",1,1,650,3,3,2,"1d16857",20,1
"2213",0,0,368,4,4,2,"1d16857",21,1
"2311",1,1,51,2,2,2,"1d16857",22,1
"2411",1,0,314,6,1,2,"1d16857",23,1
"2511",1,1,987,2,2,2,"1d16857",24,1
"2611",1,1,245,1,1,2,"1d16857",25,1
"2711",1,0,274,1,2,2,"1d16857",26,1
"2811",1,1,68,6,6,2,"1d16857",27,1
"2911",1,1,556,4,4,2,"1d16857",28,1
"3011",1,0,451,4,1,2,"1d16857",29,1
"3115",1,1,591,3,3,2,"1d16857",30,1
"3213",1,0,481,3,1,2,"1d16857",31,1
"3311",1,0,716,5,1,2,"1d16857",32,1
"3411",1,1,233,5,5,2,"1d16857",33,1
"3511",1,0,379,5,1,2,"1d16857",34,1
"3611",0,0,354,5,5,2,"1d16857",35,1
"3711",0,0,107,4,4,2,"1d16857",36,1
"3811",0,1,584,4,1,2,"1d16857",37,1
"3911",0,0,282,2,2,2,"1d16857",38,1
"4011",1,0,487,2,1,2,"1d16857",39,1
"4115",1,0,236,1,3,2,"1d16857",40,1
"4213",0,0,293,1,1,2,"1d16857",41,1
"4311",0,0,612,6,6,2,"1d16857",42,1
"4411",1,0,644,6,1,2,"1d16857",43,1
"4511",1,1,234,3,3,2,"1d16857",44,1
"4611",0,1,322,5,1,2,"1d16857",45,1
"4711",1,0,409,6,1,2,"1d16857",46,1
"4811",0,0,754,3,3,2,"1d16857",47,1
"4911",1,1,536,1,1,2,"1d16857",48,1
"5011",1,0,430,4,1,2,"1d16857",49,1
"5115",0,0,1932,6,6,2,"1d16857",50,1
"5213",1,0,413,1,3,2,"1d16857",51,1
"5311",1,1,359,2,2,2,"1d16857",52,1
"5411",1,1,210,4,4,2,"1d16857",53,1
"5511",0,1,207,1,2,2,"1d16857",54,1
"5611",0,0,254,5,5,2,"1d16857",55,1
"5711",1,1,213,2,2,2,"1d16857",56,1
"5811",1,0,278,3,1,2,"1d16857",57,1
"5911",0,1,647,5,1,2,"1d16857",58,1
"6011",0,0,612,5,5,2,"1d16857",59,1
"6115",1,1,393,1,1,2,"1d16857",60,1
"6213",1,1,21,3,3,2,"1d16857",61,1
"6311",1,0,129,2,1,2,"1d16857",62,1
"6411",0,1,252,1,6,2,"1d16857",63,1
"6511",1,1,365,4,4,2,"1d16857",64,1
"6611",0,1,134,4,1,2,"1d16857",65,1
"6711",1,1,233,6,6,2,"1d16857",66,1
"6811",1,1,767,5,5,2,"1d16857",67,1
"6911",1,1,384,6,6,2,"1d16857",68,1
"7011",1,0,203,2,1,2,"1d16857",69,1
"7115",1,1,194,1,1,2,"1d16857",70,1
"7212",1,1,220,3,3,2,"1d16857",71,1
"7311",0,1,237,1,3,2,"1d16857",72,1
"7411",1,1,295,2,2,2,"1d16857",73,1
"7511",0,1,402,1,5,2,"1d16857",74,1
"7611",1,1,456,4,4,2,"1d16857",75,1
"7711",0,1,142,4,1,2,"1d16857",76,1
"7811",0,1,182,1,6,2,"1d16857",77,1
"260",1,1,883,3,3,3,"161f2ad",1,1
"360",1,1,590,1,1,3,"161f2ad",2,1
"460",1,1,553,5,5,3,"161f2ad",3,1
"560",1,0,471,1,2,3,"161f2ad",4,1
"660",1,0,597,1,6,3,"161f2ad",5,1
"760",0,0,365,6,6,3,"161f2ad",6,1
"812",1,0,463,1,5,3,"161f2ad",7,1
"912",0,1,215,1,3,3,"161f2ad",8,1
"1012",1,0,325,4,1,3,"161f2ad",9,1
"1112",0,0,484,2,2,3,"161f2ad",10,1
"1212",1,1,268,4,4,3,"161f2ad",11,1
"1312",0,1,260,6,1,3,"161f2ad",12,1
"1412",1,1,249,6,6,3,"161f2ad",13,1
"1512",1,1,316,3,3,3,"161f2ad",14,1
"1612",0,0,381,5,5,3,"161f2ad",15,1
"1712",0,0,267,4,4,3,"161f2ad",16,1
"1812",1,1,211,2,2,3,"161f2ad",17,1
"1912",1,0,156,1,3,3,"161f2ad",18,1
"2012",1,0,364,1,4,3,"161f2ad",19,1
"2116",1,0,268,2,1,3,"161f2ad",20,1
"2214",0,0,245,1,1,3,"161f2ad",21,1
"2312",0,1,341,5,1,3,"161f2ad",22,1
"2412",1,1,239,3,3,3,"161f2ad",23,1
"2512",1,1,231,4,4,3,"161f2ad",24,1
"2612",1,1,202,5,5,3,"161f2ad",25,1
"2712",1,1,53,2,2,3,"161f2ad",26,1
"2812",1,0,343,6,1,3,"161f2ad",27,1
"2912",1,0,137,1,2,3,"161f2ad",28,1
"3012",1,0,305,1,3,3,"161f2ad",29,1
"3116",1,1,269,6,6,3,"161f2ad",30,1
"3214",1,0,210,1,5,3,"161f2ad",31,1
"3312",-1,0,242,1,1,3,"161f2ad",32,1
"3412",-1,0,551,4,1,3,"161f2ad",33,1
"3512",-1,0,257,4,4,3,"161f2ad",34,1
"3612",0,1,322,1,2,3,"161f2ad",35,1
"3712",0,0,246,6,6,3,"161f2ad",36,1
"3812",-1,0,229,2,2,3,"161f2ad",37,1
"3912",-1,0,192,3,1,3,"161f2ad",38,1
"4012",-1,0,286,3,3,3,"161f2ad",39,1
"4116",0,0,199,5,5,3,"161f2ad",40,1
"4214",0,0,135,1,1,3,"161f2ad",41,1
"4312",0,1,353,5,1,3,"161f2ad",42,1
"4412",0,1,410,6,1,3,"161f2ad",43,1
"4512",0,1,294,4,1,3,"161f2ad",44,1
"4612",-1,0,521,3,3,3,"161f2ad",45,1
"4712",-1,0,1957,5,5,3,"161f2ad",46,1
"4812",-1,0,278,1,2,3,"161f2ad",47,1
"4912",0,0,453,1,1,3,"161f2ad",48,1
"5012",0,1,211,1,6,3,"161f2ad",49,1
"5116",0,1,440,1,5,3,"161f2ad",50,1
"5214",-1,0,128,6,6,3,"161f2ad",51,1
"5312",-1,0,201,1,3,3,"161f2ad",52,1
"5412",-1,0,214,2,2,3,"161f2ad",53,1
"5512",0,1,94,1,4,3,"161f2ad",54,1
"5612",-1,0,407,4,4,3,"161f2ad",55,1
"5712",-1,0,222,4,4,3,"161f2ad",56,1
"5812",-1,0,172,3,3,3,"161f2ad",57,1
"5912",0,1,525,1,6,3,"161f2ad",58,1
"6012",-1,0,156,1,1,3,"161f2ad",59,1
"6116",0,0,244,6,6,3,"161f2ad",60,1
"6214",-1,0,609,1,2,3,"161f2ad",61,1
"6312",-1,0,322,1,3,3,"161f2ad",62,1
"6412",-1,0,324,2,2,3,"161f2ad",63,1
"6512",0,1,232,1,4,3,"161f2ad",64,1
"6612",0,0,293,5,5,3,"161f2ad",65,1
"6712",0,1,27,1,5,3,"161f2ad",66,1
"6812",0,0,313,2,2,3,"161f2ad",67,1
"6912",1,1,204,1,1,3,"161f2ad",68,1
"7012",0,0,699,4,4,3,"161f2ad",69,1
"7116",1,1,238,3,3,3,"161f2ad",70,1
"7213",0,1,146,1,5,3,"161f2ad",71,1
"7312",0,1,364,1,3,3,"161f2ad",72,1
"7412",0,1,502,1,4,3,"161f2ad",73,1
"7512",1,1,313,5,5,3,"161f2ad",74,1
"7612",1,1,397,6,6,3,"161f2ad",75,1
"7712",0,1,188,1,6,3,"161f2ad",76,1
"7812",1,0,329,1,2,3,"161f2ad",77,1
"270",1,1,851,3,3,1,"15fff52",1,1
"370",1,0,504,1,3,1,"15fff52",2,1
"470",0,0,359,4,4,1,"15fff52",3,1
"570",1,0,432,1,5,1,"15fff52",4,1
"670",1,1,251,6,6,1,"15fff52",5,1
"770",1,0,273,1,4,1,"15fff52",6,1
"813",1,1,720,5,5,1,"15fff52",7,1
"913",0,1,234,1,2,1,"15fff52",8,1
"1013",0,1,282,6,1,1,"15fff52",9,1
"1113",1,1,198,2,2,1,"15fff52",10,1
"1213",0,0,233,1,1,1,"15fff52",11,1
"1313",0,1,180,6,1,1,"15fff52",12,1
"1413",1,1,195,3,3,1,"15fff52",13,1
"1513",0,1,221,3,1,1,"15fff52",14,1
"1613",1,1,244,5,5,1,"15fff52",15,1
"1713",1,0,49,1,2,1,"15fff52",16,1
"1813",1,1,283,6,6,1,"15fff52",17,1
"1913",1,1,229,4,4,1,"15fff52",18,1
"2013",1,0,231,1,4,1,"15fff52",19,1
"2117",1,1,130,2,2,1,"15fff52",20,1
"2215",0,1,53,5,1,1,"15fff52",21,1
"2313",1,1,179,1,1,1,"15fff52",22,1
"2413",0,1,107,1,5,1,"15fff52",23,1
"2513",0,1,167,3,1,1,"15fff52",24,1
"2613",1,0,205,2,1,1,"15fff52",25,1
"2713",0,1,497,4,1,1,"15fff52",26,1
"2813",1,1,131,1,1,1,"15fff52",27,1
"2913",0,1,99,1,6,1,"15fff52",28,1
"3013",1,1,168,3,3,1,"15fff52",29,1
"3117",1,1,239,5,5,1,"15fff52",30,1
"3215",0,0,206,2,2,1,"15fff52",31,1
"3313",1,1,201,4,4,1,"15fff52",32,1
"3413",1,1,312,6,6,1,"15fff52",33,1
"3513",0,1,179,1,5,1,"15fff52",34,1
"3613",1,1,168,2,2,1,"15fff52",35,1
"3713",1,0,156,1,2,1,"15fff52",36,1
"3813",0,1,60,1,6,1,"15fff52",37,1
"3913",0,0,435,5,5,1,"15fff52",38,1
"4013",0,1,757,3,1,1,"15fff52",39,1
"4117",1,1,237,3,3,1,"15fff52",40,1
"4215",0,1,269,1,4,1,"15fff52",41,1
"4313",1,1,283,4,4,1,"15fff52",42,1
"4413",1,1,214,6,6,1,"15fff52",43,1
"4513",-1,0,414,1,1,1,"15fff52",44,1
"4613",-1,0,198,5,5,1,"15fff52",45,1
"4713",-1,0,215,6,6,1,"15fff52",46,1
"4813",-1,0,229,2,2,1,"15fff52",47,1
"4913",-1,0,218,1,3,1,"15fff52",48,1
"5013",-1,0,239,5,1,1,"15fff52",49,1
"5117",-1,0,762,1,4,1,"15fff52",50,1
"5215",-1,0,199,1,2,1,"15fff52",51,1
"5313",-1,0,237,4,4,1,"15fff52",52,1
"5413",-1,0,357,6,1,1,"15fff52",53,1
"5513",-1,0,263,1,1,1,"15fff52",54,1
"5613",-1,0,290,3,3,1,"15fff52",55,1
"5713",-1,0,340,6,1,1,"15fff52",56,1
"5813",-1,0,214,5,1,1,"15fff52",57,1
"5913",-1,0,244,2,1,1,"15fff52",58,1
"6013",-1,-1,0,5,5,1,"15fff52",59,1
"6117",-1,0,297,4,4,1,"15fff52",60,1
"6215",-1,0,1990,6,6,1,"15fff52",61,1
"6313",-1,0,722,3,3,1,"15fff52",62,1
"6413",-1,0,237,1,3,1,"15fff52",63,1
"6513",-1,0,354,4,1,1,"15fff52",64,1
"6613",-1,0,239,2,2,1,"15fff52",65,1
"6713",-1,0,252,1,1,1,"15fff52",66,1
"6813",-1,0,1609,2,1,1,"15fff52",67,1
"6913",-1,0,364,5,1,1,"15fff52",68,1
"7013",-1,0,180,1,6,1,"15fff52",69,1
"7117",1,1,207,6,6,1,"15fff52",70,1
"7214",1,1,72,4,4,1,"15fff52",71,1
"7313",1,1,204,1,1,1,"15fff52",72,1
"7413",1,1,361,3,3,1,"15fff52",73,1
"7513",1,1,460,2,2,1,"15fff52",74,1
"7613",0,1,283,1,3,1,"15fff52",75,1
"7713",1,1,183,5,5,1,"15fff52",76,1
"7813",0,1,861,1,4,1,"15fff52",77,1
"280",0,0,82,3,3,1,"1aa2d11",1,1
"380",0,1,246,1,5,1,"1aa2d11",2,1
"480",1,1,232,5,5,1,"1aa2d11",3,1
"580",0,1,324,1,6,1,"1aa2d11",4,1
"680",1,1,71,2,2,1,"1aa2d11",5,1
"780",1,1,267,1,1,1,"1aa2d11",6,1
"814",1,1,111,6,6,1,"1aa2d11",7,1
"914",0,1,428,1,4,1,"1aa2d11",8,1
"1014",0,1,268,2,1,1,"1aa2d11",9,1
"1114",0,1,265,3,1,1,"1aa2d11",10,1
"1214",1,1,237,4,4,1,"1aa2d11",11,1
"1314",0,1,512,1,6,1,"1aa2d11",12,1
"1414",1,1,436,1,1,1,"1aa2d11",13,1
"1514",0,1,238,1,5,1,"1aa2d11",14,1
"1614",1,1,210,4,4,1,"1aa2d11",15,1
"1714",1,1,262,3,3,1,"1aa2d11",16,1
"1814",1,1,6,5,5,1,"1aa2d11",17,1
"1914",0,1,296,4,1,1,"1aa2d11",18,1
"2014",0,1,5,3,1,1,"1aa2d11",19,1
"2118",1,1,172,2,2,1,"1aa2d11",20,1
"2216",1,1,349,6,6,1,"1aa2d11",21,1
"2314",0,1,304,2,1,1,"1aa2d11",22,1
"2414",1,0,271,2,1,1,"1aa2d11",23,1
"2514",0,1,307,3,1,1,"1aa2d11",24,1
"2614",0,1,854,1,5,1,"1aa2d11",25,1
"2714",0,0,257,1,1,1,"1aa2d11",26,1
"2814",0,0,238,3,3,1,"1aa2d11",27,1
"2914",1,1,522,6,6,1,"1aa2d11",28,1
"3014",1,1,422,2,2,1,"1aa2d11",29,1
"3118",1,1,314,5,5,1,"1aa2d11",30,1
"3216",0,1,828,1,4,1,"1aa2d11",31,1
"3314",0,1,23,1,6,1,"1aa2d11",32,1
"3414",1,1,154,4,4,1,"1aa2d11",33,1
"3514",1,1,454,6,6,1,"1aa2d11",34,1
"3614",1,1,525,1,1,1,"1aa2d11",35,1
"3714",1,1,405,4,4,1,"1aa2d11",36,1
"3814",0,1,337,2,1,1,"1aa2d11",37,1
"3914",1,1,612,2,2,1,"1aa2d11",38,1
"4014",1,1,176,3,3,1,"1aa2d11",39,1
"4118",1,1,227,5,5,1,"1aa2d11",40,1
"4216",0,1,472,4,1,1,"1aa2d11",41,1
"4314",0,1,378,6,1,1,"1aa2d11",42,1
"4414",0,1,325,1,5,1,"1aa2d11",43,1
"4514",0,1,74,1,3,1,"1aa2d11",44,1
"4614",0,1,277,1,6,1,"1aa2d11",45,1
"4714",1,1,289,1,1,1,"1aa2d11",46,1
"4814",0,1,5,1,5,1,"1aa2d11",47,1
"4914",1,1,346,5,5,1,"1aa2d11",48,1
"5014",1,1,222,3,3,1,"1aa2d11",49,1
"5118",0,1,322,3,1,1,"1aa2d11",50,1
"5216",-1,-1,0,2,2,1,"1aa2d11",51,1
"5314",0,1,535,2,1,1,"1aa2d11",52,1
"5414",0,0,402,4,4,1,"1aa2d11",53,1
"5514",0,1,438,1,4,1,"1aa2d11",54,1
"5614",1,1,321,6,6,1,"1aa2d11",55,1
"5714",1,0,581,1,6,1,"1aa2d11",56,1
"5814",0,0,511,1,1,1,"1aa2d11",57,1
"5914",0,0,434,5,5,1,"1aa2d11",58,1
"6014",0,1,335,2,1,1,"1aa2d11",59,1
"6118",0,1,276,4,1,1,"1aa2d11",60,1
"6216",0,1,124,1,5,1,"1aa2d11",61,1
"6314",1,1,447,3,3,1,"1aa2d11",62,1
"6414",1,1,674,6,6,1,"1aa2d11",63,1
"6514",0,0,534,2,2,1,"1aa2d11",64,1
"6614",0,1,35,3,1,1,"1aa2d11",65,1
"6714",1,1,263,4,4,1,"1aa2d11",66,1
"6814",0,1,163,1,2,1,"1aa2d11",67,1
"6914",1,1,414,5,5,1,"1aa2d11",68,1
"7014",0,1,361,6,1,1,"1aa2d11",69,1
"7118",0,1,133,4,1,1,"1aa2d11",70,1
"7215",1,1,162,6,6,1,"1aa2d11",71,1
"7314",1,1,310,1,1,1,"1aa2d11",72,1
"7414",1,1,121,4,4,1,"1aa2d11",73,1
"7514",0,1,342,1,5,1,"1aa2d11",74,1
"7614",1,1,305,3,3,1,"1aa2d11",75,1
"7714",0,1,374,1,3,1,"1aa2d11",76,1
"7814",1,1,639,2,2,1,"1aa2d11",77,1
"290",1,1,1527,4,4,3,"1590837",1,1
"390",1,1,388,6,6,3,"1590837",2,1
"490",1,1,991,2,2,3,"1590837",3,1
"590",0,1,356,1,6,3,"1590837",4,1
"690",1,0,402,1,4,3,"1590837",5,1
"790",1,1,562,5,5,3,"1590837",6,1
"815",1,0,327,1,5,3,"1590837",7,1
"915",0,1,264,3,1,3,"1590837",8,1
"1015",1,0,300,1,2,3,"1590837",9,1
"1115",1,1,270,3,3,3,"1590837",10,1
"1215",0,0,238,1,1,3,"1590837",11,1
"1315",1,1,550,1,1,3,"1590837",12,1
"1415",1,0,285,1,4,3,"1590837",13,1
"1515",0,0,272,4,4,3,"1590837",14,1
"1615",0,1,286,3,1,3,"1590837",15,1
"1715",0,1,381,1,5,3,"1590837",16,1
"1815",1,1,264,5,5,3,"1590837",17,1
"1915",1,1,200,3,3,3,"1590837",18,1
"2015",1,1,436,6,6,3,"1590837",19,1
"2119",1,0,355,2,1,3,"1590837",20,1
"2217",1,1,73,2,2,3,"1590837",21,1
"2315",0,1,386,6,1,3,"1590837",22,1
"2415",1,0,269,1,3,3,"1590837",23,1
"2515",1,1,278,6,6,3,"1590837",24,1
"2615",1,1,299,2,2,3,"1590837",25,1
"2715",1,1,317,5,5,3,"1590837",26,1
"2815",1,1,224,4,4,3,"1590837",27,1
"2915",1,1,261,3,3,3,"1590837",28,1
"3015",0,1,456,1,5,3,"1590837",29,1
"3119",0,1,401,1,6,3,"1590837",30,1
"3217",1,0,195,2,1,3,"1590837",31,1
"3315",0,1,490,1,4,3,"1590837",32,1
"3415",1,1,417,1,1,3,"1590837",33,1
"3515",0,1,223,1,4,3,"1590837",34,1
"3615",1,1,253,6,6,3,"1590837",35,1
"3715",1,1,283,5,5,3,"1590837",36,1
"3815",1,1,248,2,2,3,"1590837",37,1
"3915",1,1,217,1,1,3,"1590837",38,1
"4015",1,1,273,3,3,3,"1590837",39,1
"4119",1,1,414,4,4,3,"1590837",40,1
"4217",1,0,498,2,1,3,"1590837",41,1
"4315",0,1,402,1,6,3,"1590837",42,1
"4415",0,1,83,5,1,3,"1590837",43,1
"4515",0,1,209,3,1,3,"1590837",44,1
"4615",1,0,206,3,1,3,"1590837",45,1
"4715",1,1,184,3,3,3,"1590837",46,1
"4815",1,1,384,6,6,3,"1590837",47,1
"4915",0,1,470,5,1,3,"1590837",48,1
"5015",1,1,243,2,2,3,"1590837",49,1
"5119",0,1,363,6,1,3,"1590837",50,1
"5217",1,1,200,5,5,3,"1590837",51,1
"5315",0,1,320,4,1,3,"1590837",52,1
"5415",1,1,384,4,4,3,"1590837",53,1
"5515",1,1,454,1,1,3,"1590837",54,1
"5615",1,0,332,1,2,3,"1590837",55,1
"5715",0,1,349,3,1,3,"1590837",56,1
"5815",1,1,597,1,1,3,"1590837",57,1
"5915",1,0,445,1,2,3,"1590837",58,1
"6015",1,1,291,4,4,3,"1590837",59,1
"6119",0,1,356,1,6,3,"1590837",60,1
"6217",1,1,590,3,3,3,"1590837",61,1
"6315",0,1,274,1,4,3,"1590837",62,1
"6415",1,1,255,6,6,3,"1590837",63,1
"6515",1,1,691,2,2,3,"1590837",64,1
"6615",0,0,419,5,5,3,"1590837",65,1
"6715",0,1,232,1,5,3,"1590837",66,1
"6815",1,0,221,1,2,3,"1590837",67,1
"6915",1,1,711,4,4,3,"1590837",68,1
"7015",0,0,557,1,1,3,"1590837",69,1
"7119",1,0,285,1,4,3,"1590837",70,1
"7216",1,1,295,3,3,3,"1590837",71,1
"7315",1,1,20,6,6,3,"1590837",72,1
"7415",0,1,285,6,1,3,"1590837",73,1
"7515",1,0,383,1,3,3,"1590837",74,1
"7615",1,1,216,2,2,3,"1590837",75,1
"7715",0,1,382,5,1,3,"1590837",76,1
"7815",1,1,43,5,5,3,"1590837",77,1
"2100",1,1,181,6,6,2,"13802e6",1,1
"3100",1,0,493,1,4,2,"13802e6",2,1
"4100",1,0,600,1,5,2,"13802e6",3,1
"5100",1,1,1246,3,3,2,"13802e6",4,1
"6100",1,0,497,1,3,2,"13802e6",5,1
"791",0,0,375,2,2,2,"13802e6",6,1
"816",0,0,539,4,4,2,"13802e6",7,1
"916",1,0,297,1,2,2,"13802e6",8,1
"1016",1,1,282,5,5,2,"13802e6",9,1
"1116",0,1,280,1,6,2,"13802e6",10,1
"1216",0,0,263,1,1,2,"13802e6",11,1
"1316",0,0,461,4,4,2,"13802e6",12,1
"1416",0,0,237,6,6,2,"13802e6",13,1
"1516",1,1,257,5,5,2,"13802e6",14,1
"1616",0,1,174,3,1,2,"13802e6",15,1
"1716",0,1,325,1,4,2,"13802e6",16,1
"1816",0,1,277,6,1,2,"13802e6",17,1
"1916",1,1,301,3,3,2,"13802e6",18,1
"2016",1,1,280,1,1,2,"13802e6",19,1
"2120",0,1,235,5,1,2,"13802e6",20,1
"2218",1,0,285,1,2,2,"13802e6",21,1
"2316",1,1,496,2,2,2,"13802e6",22,1
"2416",1,1,273,4,4,2,"13802e6",23,1
"2516",0,1,265,3,1,2,"13802e6",24,1
"2616",1,1,340,6,6,2,"13802e6",25,1
"2716",1,0,293,2,1,2,"13802e6",26,1
"2816",0,1,82,1,6,2,"13802e6",27,1
"2916",1,1,268,3,3,2,"13802e6",28,1
"3016",1,1,91,1,1,2,"13802e6",29,1
"3120",1,1,189,2,2,2,"13802e6",30,1
"3218",1,1,93,5,5,2,"13802e6",31,1
"3316",0,1,1061,1,5,2,"13802e6",32,1
"3416",0,1,302,1,4,2,"13802e6",33,1
"3516",1,1,350,5,5,2,"13802e6",34,1
"3616",1,1,470,3,3,2,"13802e6",35,1
"3716",1,1,306,4,4,2,"13802e6",36,1
"3816",0,1,570,1,6,2,"13802e6",37,1
"3916",0,1,625,1,5,2,"13802e6",38,1
"4016",1,0,57,3,1,2,"13802e6",39,1
"4120",0,1,286,1,4,2,"13802e6",40,1
"4218",1,1,437,1,1,2,"13802e6",41,1
"4316",1,0,451,2,1,2,"13802e6",42,1
"4416",1,1,430,6,6,2,"13802e6",43,1
"4516",1,1,383,2,2,2,"13802e6",44,1
"4616",0,1,1981,1,4,2,"13802e6",45,1
"4716",1,1,629,5,5,2,"13802e6",46,1
"4816",1,1,1999,6,6,2,"13802e6",47,1
"4916",1,0,614,1,2,2,"13802e6",48,1
"5016",0,1,717,1,6,2,"13802e6",49,1
"5120",1,1,757,1,1,2,"13802e6",50,1
"5218",1,1,1505,2,2,2,"13802e6",51,1
"5316",0,1,1667,5,1,2,"13802e6",52,1
"5416",0,1,268,1,3,2,"13802e6",53,1
"5516",1,1,665,3,3,2,"13802e6",54,1
"5616",1,1,373,4,4,2,"13802e6",55,1
"5716",1,1,360,1,1,2,"13802e6",56,1
"5816",1,1,154,6,6,2,"13802e6",57,1
"5916",1,1,523,4,4,2,"13802e6",58,1
"6016",0,1,605,6,1,2,"13802e6",59,1
"6120",1,1,477,5,5,2,"13802e6",60,1
"6218",1,1,297,3,3,2,"13802e6",61,1
"6316",1,1,648,2,2,2,"13802e6",62,1
"6416",0,1,1882,5,1,2,"13802e6",63,1
"6516",1,0,731,2,1,2,"13802e6",64,1
"6616",0,1,296,4,1,2,"13802e6",65,1
"6716",1,0,339,3,1,2,"13802e6",66,1
"6816",1,1,168,1,1,2,"13802e6",67,1
"6916",0,1,102,1,4,2,"13802e6",68,1
"7016",1,1,410,5,5,2,"13802e6",69,1
"7120",1,1,801,6,6,2,"13802e6",70,1
"7217",1,1,1682,3,3,2,"13802e6",71,1
"7316",0,1,550,1,3,2,"13802e6",72,1
"7416",0,1,1174,6,1,2,"13802e6",73,1
"7516",1,1,498,4,4,2,"13802e6",74,1
"7616",1,1,1726,2,2,2,"13802e6",75,1
"7716",0,1,473,5,1,2,"13802e6",76,1
"7816",1,0,142,2,1,2,"13802e6",77,1
"2101",1,0,597,3,1,2,"127412f",1,1
"3101",1,1,342,3,3,2,"127412f",2,1
"4101",0,1,438,1,5,2,"127412f",3,1
"5101",1,1,294,4,4,2,"127412f",4,1
"6101",1,1,260,1,1,2,"127412f",5,1
"792",1,1,282,5,5,2,"127412f",6,1
"817",1,0,317,1,2,2,"127412f",7,1
"917",1,1,298,6,6,2,"127412f",8,1
"1017",0,1,298,1,6,2,"127412f",9,1
"1117",0,0,306,2,2,2,"127412f",10,1
"1217",1,0,256,4,1,2,"127412f",11,1
"1317",1,1,779,1,1,2,"127412f",12,1
"1417",1,0,461,2,1,2,"127412f",13,1
"1517",0,1,283,1,3,2,"127412f",14,1
"1617",0,1,955,1,6,2,"127412f",15,1
"1717",1,1,317,5,5,2,"127412f",16,1
"1817",1,1,417,3,3,2,"127412f",17,1
"1917",1,1,300,4,4,2,"127412f",18,1
"2017",1,1,356,2,2,2,"127412f",19,1
"2121",1,1,472,6,6,2,"127412f",20,1
"2219",0,1,324,1,4,2,"127412f",21,1
"2317",0,1,274,5,1,2,"127412f",22,1
"2417",1,1,275,3,3,2,"127412f",23,1
"2517",1,1,324,5,5,2,"127412f",24,1
"2617",1,1,308,6,6,2,"127412f",25,1
"2717",1,1,305,4,4,2,"127412f",26,1
"2817",0,1,371,1,4,2,"127412f",27,1
"2917",1,1,429,1,1,2,"127412f",28,1
"3017",0,1,322,6,1,2,"127412f",29,1
"3121",1,0,301,1,2,2,"127412f",30,1
"3219",0,1,315,1,3,2,"127412f",31,1
"3317",0,1,296,1,5,2,"127412f",32,1
"3417",1,1,336,2,2,2,"127412f",33,1
"3517",0,1,424,1,4,2,"127412f",34,1
"3617",0,1,292,2,1,2,"127412f",35,1
"3717",0,1,1193,6,1,2,"127412f",36,1
"3817",0,0,302,6,6,2,"127412f",37,1
"3917",1,1,256,4,4,2,"127412f",38,1
"4017",1,1,271,2,2,2,"127412f",39,1
"4121",0,1,285,1,5,2,"127412f",40,1
"4219",0,1,288,3,1,2,"127412f",41,1
"4317",1,1,61,5,5,2,"127412f",42,1
"4417",1,1,255,3,3,2,"127412f",43,1
"4517",1,1,282,1,1,2,"127412f",44,1
"4617",1,1,242,6,6,2,"127412f",45,1
"4717",1,1,349,3,3,2,"127412f",46,1
"4817",1,1,253,5,5,2,"127412f",47,1
"4917",1,1,337,1,1,2,"127412f",48,1
"5017",0,1,448,6,1,2,"127412f",49,1
"5121",1,1,338,4,4,2,"127412f",50,1
"5219",0,1,363,1,2,2,"127412f",51,1
"5317",1,1,313,2,2,2,"127412f",52,1
"5417",0,1,277,4,1,2,"127412f",53,1
"5517",1,0,336,3,1,2,"127412f",54,1
"5617",0,1,319,5,1,2,"127412f",55,1
"5717",0,0,1524,4,4,2,"127412f",56,1
"5817",0,1,409,4,1,2,"127412f",57,1
"5917",1,0,731,2,1,2,"127412f",58,1
"6017",0,1,1830,1,5,2,"127412f",59,1
"6121",1,1,1087,2,2,2,"127412f",60,1
"6219",1,1,1246,1,1,2,"127412f",61,1
"6317",1,1,1998,5,5,2,"127412f",62,1
"6417",0,1,1979,1,6,2,"127412f",63,1
"6517",1,1,615,6,6,2,"127412f",64,1
"6617",0,1,285,3,1,2,"127412f",65,1
"6717",1,1,351,3,3,2,"127412f",66,1
"6817",1,1,337,3,3,2,"127412f",67,1
"6917",1,1,384,5,5,2,"127412f",68,1
"7017",1,1,89,6,6,2,"127412f",69,1
"7121",1,1,332,2,2,2,"127412f",70,1
"7218",1,0,363,2,1,2,"127412f",71,1
"7317",1,1,338,1,1,2,"127412f",72,1
"7417",0,1,422,1,6,2,"127412f",73,1
"7517",1,1,366,4,4,2,"127412f",74,1
"7617",0,1,543,3,1,2,"127412f",75,1
"7717",0,1,155,4,1,2,"127412f",76,1
"7817",0,1,280,5,1,2,"127412f",77,1
"2102",1,1,1281,6,6,1,"1f976bb",1,1
"3102",1,0,554,2,1,1,"1f976bb",2,1
"4102",1,1,524,1,1,1,"1f976bb",3,1
"5102",1,1,488,5,5,1,"1f976bb",4,1
"6102",0,1,441,6,1,1,"1f976bb",5,1
"793",0,1,504,5,1,1,"1f976bb",6,1
"818",1,1,426,2,2,1,"1f976bb",7,1
"918",1,1,467,3,3,1,"1f976bb",8,1
"1018",1,1,378,4,4,1,"1f976bb",9,1
"1118",0,1,531,4,1,1,"1f976bb",10,1
"1218",1,0,1162,1,3,1,"1f976bb",11,1
"1318",1,1,390,4,4,1,"1f976bb",12,1
"1418",1,1,693,6,6,1,"1f976bb",13,1
"1518",0,0,428,1,1,1,"1f976bb",14,1
"1618",1,0,552,1,5,1,"1f976bb",15,1
"1718",1,0,454,1,2,1,"1f976bb",16,1
"1818",1,0,368,4,1,1,"1f976bb",17,1
"1918",1,1,489,3,3,1,"1f976bb",18,1
"2018",1,1,434,5,5,1,"1f976bb",19,1
"2122",1,1,493,2,2,1,"1f976bb",20,1
"2220",1,0,456,3,1,1,"1f976bb",21,1
"2318",0,1,496,1,6,1,"1f976bb",22,1
"2418",0,1,1692,3,1,1,"1f976bb",23,1
"2518",1,1,433,3,3,1,"1f976bb",24,1
"2618",0,1,664,4,1,1,"1f976bb",25,1
"2718",1,1,677,5,5,1,"1f976bb",26,1
"2818",0,1,979,1,6,1,"1f976bb",27,1
"2918",1,1,1180,6,6,1,"1f976bb",28,1
"3018",-1,-1,0,4,4,1,"1f976bb",29,1
"3122",0,1,1023,5,1,1,"1f976bb",30,1
"3220",1,1,1144,2,2,1,"1f976bb",31,1
"3318",0,1,462,1,2,1,"1f976bb",32,1
"3418",1,1,366,1,1,1,"1f976bb",33,1
"3518",1,1,450,2,2,1,"1f976bb",34,1
"3618",0,1,371,1,3,1,"1f976bb",35,1
"3718",1,1,506,3,3,1,"1f976bb",36,1
"3818",0,1,1114,6,1,1,"1f976bb",37,1
"3918",1,1,418,4,4,1,"1f976bb",38,1
"4018",1,1,571,6,6,1,"1f976bb",39,1
"4122",0,1,613,2,1,1,"1f976bb",40,1
"4220",0,1,1157,1,5,1,"1f976bb",41,1
"4318",0,1,465,4,1,1,"1f976bb",42,1
"4418",1,1,945,1,1,1,"1f976bb",43,1
"4518",1,1,538,5,5,1,"1f976bb",44,1
"4618",1,1,422,2,2,1,"1f976bb",45,1
"4718",0,1,398,5,1,1,"1f976bb",46,1
"4818",-1,-1,0,1,4,1,"1f976bb",47,1
"4918",1,1,440,1,1,1,"1f976bb",48,1
"5018",0,1,419,6,1,1,"1f976bb",49,1
"5122",0,0,708,4,4,1,"1f976bb",50,1
"5220",1,1,455,3,3,1,"1f976bb",51,1
"5318",1,1,377,6,6,1,"1f976bb",52,1
"5418",1,1,491,5,5,1,"1f976bb",53,1
"5518",0,1,422,1,2,1,"1f976bb",54,1
"5618",0,1,475,3,1,1,"1f976bb",55,1
"5718",0,1,516,1,2,1,"1f976bb",56,1
"5818",0,1,539,1,3,1,"1f976bb",57,1
"5918",1,1,411,1,1,1,"1f976bb",58,1
"6018",1,1,386,6,6,1,"1f976bb",59,1
"6122",1,1,325,2,2,1,"1f976bb",60,1
"6220",1,1,599,3,3,1,"1f976bb",61,1
"6318",1,1,1485,4,4,1,"1f976bb",62,1
"6418",0,1,651,1,5,1,"1f976bb",63,1
"6518",0,1,376,6,1,1,"1f976bb",64,1
"6618",0,1,476,4,1,1,"1f976bb",65,1
"6718",1,1,368,5,5,1,"1f976bb",66,1
"6818",1,1,327,5,5,1,"1f976bb",67,1
"6918",1,1,640,4,4,1,"1f976bb",68,1
"7018",0,1,442,1,2,1,"1f976bb",69,1
"7122",1,0,415,1,5,1,"1f976bb",70,1
"7219",1,1,703,2,2,1,"1f976bb",71,1
"7318",0,1,489,1,6,1,"1f976bb",72,1
"7418",0,1,519,3,1,1,"1f976bb",73,1
"7518",1,1,511,1,1,1,"1f976bb",74,1
"7618",0,1,561,4,1,1,"1f976bb",75,1
"7718",1,1,476,6,6,1,"1f976bb",76,1
"7818",1,1,634,3,3,1,"1f976bb",77,1
"2103",1,1,282,2,2,3,"1a699ad",1,1
"3103",0,1,645,6,1,3,"1a699ad",2,1
"4103",1,0,324,1,2,3,"1a699ad",3,1
"5103",0,1,284,1,4,3,"1a699ad",4,1
"6103",1,1,315,6,6,3,"1a699ad",5,1
"794",0,0,298,5,5,3,"1a699ad",6,1
"819",1,1,93,4,4,3,"1a699ad",7,1
"919",1,1,303,1,1,3,"1a699ad",8,1
"1019",-1,0,179,3,3,3,"1a699ad",9,1
"1119",1,0,176,1,3,3,"1a699ad",10,1
"1219",0,1,279,5,1,3,"1a699ad",11,1
"1319",1,1,30,6,6,3,"1a699ad",12,1
"1419",0,0,322,2,2,3,"1a699ad",13,1
"1519",0,1,554,5,1,3,"1a699ad",14,1
"1619",0,1,309,1,2,3,"1a699ad",15,1
"1719",1,0,501,3,1,3,"1a699ad",16,1
"1819",1,1,554,4,4,3,"1a699ad",17,1
"1919",1,1,352,3,3,3,"1a699ad",18,1
"2019",0,1,436,6,1,3,"1a699ad",19,1
"2123",1,1,302,1,1,3,"1a699ad",20,1
"2221",1,1,542,5,5,3,"1a699ad",21,1
"2319",1,0,887,1,4,3,"1a699ad",22,1
"2419",1,1,342,4,4,3,"1a699ad",23,1
"2519",1,1,285,2,2,3,"1a699ad",24,1
"2619",0,1,284,2,1,3,"1a699ad",25,1
"2719",1,1,290,5,5,3,"1a699ad",26,1
"2819",0,1,622,6,1,3,"1a699ad",27,1
"2919",1,0,532,3,1,3,"1a699ad",28,1
"3019",-1,-1,0,1,1,3,"1a699ad",29,1
"3123",1,0,455,1,4,3,"1a699ad",30,1
"3221",1,1,532,6,6,3,"1a699ad",31,1
"3319",1,1,363,3,3,3,"1a699ad",32,1
"3419",1,0,471,1,5,3,"1a699ad",33,1
"3519",1,1,343,4,4,3,"1a699ad",34,1
"3619",0,1,418,1,4,3,"1a699ad",35,1
"3719",0,1,432,1,6,3,"1a699ad",36,1
"3819",0,0,383,6,6,3,"1a699ad",37,1
"3919",1,0,502,1,2,3,"1a699ad",38,1
"4019",0,1,404,1,3,3,"1a699ad",39,1
"4123",1,1,520,3,3,3,"1a699ad",40,1
"4221",1,1,740,5,5,3,"1a699ad",41,1
"4319",1,1,815,2,2,3,"1a699ad",42,1
"4419",1,1,427,1,1,3,"1a699ad",43,1
"4519",1,0,648,1,5,3,"1a699ad",44,1
"4619",1,0,441,1,2,3,"1a699ad",45,1
"4719",1,1,535,4,4,3,"1a699ad",46,1
"4819",1,0,429,1,4,3,"1a699ad",47,1
"4919",1,1,438,1,1,3,"1a699ad",48,1
"5019",1,1,420,2,2,3,"1a699ad",49,1
"5123",0,1,354,6,1,3,"1a699ad",50,1
"5221",1,0,496,5,1,3,"1a699ad",51,1
"5319",1,1,375,6,6,3,"1a699ad",52,1
"5419",1,0,487,1,3,3,"1a699ad",53,1
"5519",0,0,353,3,3,3,"1a699ad",54,1
"5619",0,0,442,5,5,3,"1a699ad",55,1
"5719",0,1,377,1,6,3,"1a699ad",56,1
"5819",0,0,361,5,5,3,"1a699ad",57,1
"5919",1,0,292,1,2,3,"1a699ad",58,1
"6019",1,1,347,3,3,3,"1a699ad",59,1
"6123",1,1,648,1,1,3,"1a699ad",60,1
"6221",0,1,465,5,1,3,"1a699ad",61,1
"6319",1,1,605,6,6,3,"1a699ad",62,1
"6419",0,1,522,1,4,3,"1a699ad",63,1
"6519",0,0,404,2,2,3,"1a699ad",64,1
"6619",0,1,333,1,3,3,"1a699ad",65,1
"6719",1,1,290,4,4,3,"1a699ad",66,1
"6819",0,1,1143,4,1,3,"1a699ad",67,1
"6919",1,1,385,2,2,3,"1a699ad",68,1
"7019",1,1,342,4,4,3,"1a699ad",69,1
"7123",1,1,367,1,1,3,"1a699ad",70,1
"7220",1,0,1347,6,1,3,"1a699ad",71,1
"7319",0,1,1582,2,1,3,"1a699ad",72,1
"7419",1,0,972,3,1,3,"1a699ad",73,1
"7519",0,1,387,1,5,3,"1a699ad",74,1
"7619",1,1,476,6,6,3,"1a699ad",75,1
"7719",1,1,328,5,5,3,"1a699ad",76,1
"7819",1,1,374,3,3,3,"1a699ad",77,1
"2104",1,0,648,1,5,2,"1614112",1,1
"3104",0,0,374,1,1,2,"1614112",2,1
"4104",1,0,396,1,2,2,"1614112",3,1
"5104",1,1,359,2,2,2,"1614112",4,1
"6104",1,0,335,4,1,2,"1614112",5,1
"795",1,1,323,4,4,2,"1614112",6,1
"820",1,1,445,5,5,2,"1614112",7,1
"920",1,0,335,3,1,2,"1614112",8,1
"1020",1,1,587,6,6,2,"1614112",9,1
"1120",1,1,404,3,3,2,"1614112",10,1
"1220",1,0,280,6,1,2,"1614112",11,1
"1320",1,0,345,6,1,2,"1614112",12,1
"1420",1,1,409,2,2,2,"1614112",13,1
"1520",1,1,226,3,3,2,"1614112",14,1
"1620",1,1,287,5,5,2,"1614112",15,1
"1720",0,1,344,3,1,2,"1614112",16,1
"1820",1,0,283,1,2,2,"1614112",17,1
"1920",1,1,249,1,1,2,"1614112",18,1
"2020",0,1,378,1,5,2,"1614112",19,1
"2124",0,1,317,1,4,2,"1614112",20,1
"2222",0,0,334,4,4,2,"1614112",21,1
"2320",1,1,259,6,6,2,"1614112",22,1
"2420",1,1,273,1,1,2,"1614112",23,1
"2520",0,1,300,4,1,2,"1614112",24,1
"2620",0,1,296,1,3,2,"1614112",25,1
"2720",1,1,362,6,6,2,"1614112",26,1
"2820",1,1,304,2,2,2,"1614112",27,1
"2920",0,1,344,5,1,2,"1614112",28,1
"3020",0,1,424,1,6,2,"1614112",29,1
"3124",1,1,350,5,5,2,"1614112",30,1
"3222",1,1,341,3,3,2,"1614112",31,1
"3320",1,0,386,1,2,2,"1614112",32,1
"3420",1,1,338,4,4,2,"1614112",33,1
"3520",1,1,404,5,5,2,"1614112",34,1
"3620",1,0,393,1,2,2,"1614112",35,1
"3720",1,1,296,4,4,2,"1614112",36,1
"3820",0,0,329,2,2,2,"1614112",37,1
"3920",0,1,160,6,1,2,"1614112",38,1
"4020",1,1,367,6,6,2,"1614112",39,1
"4124",1,1,307,3,3,2,"1614112",40,1
"4222",0,1,337,1,3,2,"1614112",41,1
"4320",0,1,349,4,1,2,"1614112",42,1
"4420",0,1,377,5,1,2,"1614112",43,1
"4520",1,1,425,1,1,2,"1614112",44,1
"4620",1,1,278,4,4,2,"1614112",45,1
"4720",1,1,286,5,5,2,"1614112",46,1
"4820",1,0,263,2,1,2,"1614112",47,1
"4920",0,1,362,1,4,2,"1614112",48,1
"5020",1,1,306,1,1,2,"1614112",49,1
"5124",1,1,271,6,6,2,"1614112",50,1
"5222",0,1,363,6,1,2,"1614112",51,1
"5320",0,1,288,3,1,2,"1614112",52,1
"5420",0,1,1381,1,5,2,"1614112",53,1
"5520",1,1,387,3,3,2,"1614112",54,1
"5620",1,1,562,2,2,2,"1614112",55,1
"5720",1,0,338,2,1,2,"1614112",56,1
"5820",0,1,663,1,5,2,"1614112",57,1
"5920",0,1,365,4,1,2,"1614112",58,1
"6020",1,1,351,6,6,2,"1614112",59,1
"6124",1,1,330,1,1,2,"1614112",60,1
"6222",0,0,810,4,4,2,"1614112",61,1
"6320",0,1,501,1,3,2,"1614112",62,1
"6420",1,1,301,2,2,2,"1614112",63,1
"6520",1,1,337,3,3,2,"1614112",64,1
"6620",1,1,412,5,5,2,"1614112",65,1
"6720",0,1,458,1,6,2,"1614112",66,1
"6820",0,1,613,5,1,2,"1614112",67,1
"6920",1,1,279,2,2,2,"1614112",68,1
"7020",1,1,399,5,5,2,"1614112",69,1
"7124",1,1,404,4,4,2,"1614112",70,1
"7221",1,1,320,6,6,2,"1614112",71,1
"7320",1,0,409,2,1,2,"1614112",72,1
"7420",0,1,297,4,1,2,"1614112",73,1
"7520",0,1,706,1,6,2,"1614112",74,1
"7620",1,1,703,3,3,2,"1614112",75,1
"7720",0,1,761,3,1,2,"1614112",76,1
"7820",1,1,545,1,1,2,"1614112",77,1
"2105",0,1,1316,1,4,1,"141f4f2",1,1
"3105",-1,-1,0,1,6,1,"141f4f2",2,1
"4105",-1,-1,0,2,2,1,"141f4f2",3,1
"5105",-1,-1,0,2,1,1,"141f4f2",4,1
"6105",-1,-1,0,5,5,1,"141f4f2",5,1
"796",-1,-1,0,4,4,1,"141f4f2",6,1
"821",-1,-1,0,6,6,1,"141f4f2",7,1
"921",0,0,817,3,3,1,"141f4f2",8,1
"1021",-1,-1,0,1,1,1,"141f4f2",9,1
"1121",-1,-1,0,1,5,1,"141f4f2",10,1
"1221",-1,-1,0,3,1,1,"141f4f2",11,1
"1321",-1,-1,0,1,2,1,"141f4f2",12,1
"1421",-1,-1,0,5,1,1,"141f4f2",13,1
"1521",-1,-1,0,3,3,1,"141f4f2",14,1
"1621",-1,-1,0,5,5,1,"141f4f2",15,1
"1721",-1,-1,0,4,1,1,"141f4f2",16,1
"1821",-1,-1,0,6,6,1,"141f4f2",17,1
"1921",-1,-1,0,4,4,1,"141f4f2",18,1
"2021",-1,-1,0,2,2,1,"141f4f2",19,1
"2125",-1,-1,0,6,1,1,"141f4f2",20,1
"2223",-1,-1,0,1,1,1,"141f4f2",21,1
"2321",-1,-1,0,1,3,1,"141f4f2",22,1
"2421",-1,-1,0,1,4,1,"141f4f2",23,1
"2521",-1,-1,0,6,6,1,"141f4f2",24,1
"2621",-1,-1,0,2,2,1,"141f4f2",25,1
"2721",-1,-1,0,3,3,1,"141f4f2",26,1
"2821",-1,-1,0,1,1,1,"141f4f2",27,1
"2921",-1,-1,0,5,1,1,"141f4f2",28,1
"3021",-1,-1,0,5,5,1,"141f4f2",29,1
"3125",-1,-1,0,4,4,1,"141f4f2",30,1
"3223",-1,-1,0,1,2,1,"141f4f2",31,1
"3321",-1,-1,0,1,6,1,"141f4f2",32,1
"3421",-1,-1,0,3,1,1,"141f4f2",33,1
"3521",-1,-1,0,4,4,1,"141f4f2",34,1
"3621",-1,-1,0,1,6,1,"141f4f2",35,1
"3721",-1,-1,0,3,1,1,"141f4f2",36,1
"3821",-1,-1,0,2,2,1,"141f4f2",37,1
"3921",-1,-1,0,5,1,1,"141f4f2",38,1
"4021",-1,-1,0,1,4,1,"141f4f2",39,1
"4125",-1,-1,0,3,3,1,"141f4f2",40,1
"4223",-1,-1,0,5,5,1,"141f4f2",41,1
"4321",-1,-1,0,6,6,1,"141f4f2",42,1
"4421",-1,-1,0,2,1,1,"141f4f2",43,1
"4521",0,0,487,1,1,1,"141f4f2",44,1
"4621",-1,-1,0,1,5,1,"141f4f2",45,1
"4721",-1,-1,0,1,6,1,"141f4f2",46,1
"4821",-1,-1,0,1,4,1,"141f4f2",47,1
"4921",-1,-1,0,2,2,1,"141f4f2",48,1
"5021",-1,-1,0,4,4,1,"141f4f2",49,1
"5125",-1,-1,0,3,1,1,"141f4f2",50,1
"5223",-1,-1,0,2,1,1,"141f4f2",51,1
"5321",-1,-1,0,1,1,1,"141f4f2",52,1
"5421",-1,-1,0,6,6,1,"141f4f2",53,1
"5521",-1,-1,0,5,5,1,"141f4f2",54,1
"5621",-1,-1,0,3,3,1,"141f4f2",55,1
"5721",-1,-1,0,2,2,1,"141f4f2",56,1
"5821",-1,-1,0,1,1,1,"141f4f2",57,1
"5921",-1,-1,0,5,5,1,"141f4f2",58,1
"6021",-1,-1,0,1,3,1,"141f4f2",59,1
"6125",-1,-1,0,5,1,1,"141f4f2",60,1
"6223",-1,-1,0,1,4,1,"141f4f2",61,1
"6321",-1,-1,0,3,3,1,"141f4f2",62,1
"6421",-1,-1,0,2,1,1,"141f4f2",63,1
"6521",-1,-1,0,6,6,1,"141f4f2",64,1
"6621",-1,-1,0,1,6,1,"141f4f2",65,1
"6721",-1,-1,0,4,4,1,"141f4f2",66,1
"6821",-1,-1,0,1,2,1,"141f4f2",67,1
"6921",-1,-1,0,5,5,1,"141f4f2",68,1
"7021",-1,-1,0,1,3,1,"141f4f2",69,1
"7125",-1,-1,0,3,3,1,"141f4f2",70,1
"7222",-1,-1,0,1,4,1,"141f4f2",71,1
"7321",-1,-1,0,2,2,1,"141f4f2",72,1
"7421",-1,-1,0,4,4,1,"141f4f2",73,1
"7521",-1,-1,0,1,1,1,"141f4f2",74,1
"7621",-1,-1,0,6,6,1,"141f4f2",75,1
"7721",-1,-1,0,1,6,1,"141f4f2",76,1
"7821",-1,-1,0,5,1,1,"141f4f2",77,1
"2106",-1,-1,0,2,2,3,"1e85858",1,1
"3106",1,1,603,4,4,3,"1e85858",2,1
"4106",1,0,753,1,3,3,"1e85858",3,1
"5106",1,1,920,3,3,3,"1e85858",4,1
"6106",1,0,554,1,5,3,"1e85858",5,1
"797",0,1,310,6,1,3,"1e85858",6,1
"822",0,0,1188,6,6,3,"1e85858",7,1
"922",1,1,291,5,5,3,"1e85858",8,1
"1022",1,0,319,4,1,3,"1e85858",9,1
"1122",1,1,324,1,1,3,"1e85858",10,1
"1222",1,0,266,1,2,3,"1e85858",11,1
"1322",1,0,310,1,4,3,"1e85858",12,1
"1422",1,1,389,6,6,3,"1e85858",13,1
"1522",0,1,413,5,1,3,"1e85858",14,1
"1622",1,1,280,2,2,3,"1e85858",15,1
"1722",1,0,248,2,1,3,"1e85858",16,1
"1822",0,0,519,3,3,3,"1e85858",17,1
"1922",1,1,292,4,4,3,"1e85858",18,1
"2022",1,1,408,5,5,3,"1e85858",19,1
"2126",1,1,322,1,1,3,"1e85858",20,1
"2224",0,1,443,1,6,3,"1e85858",21,1
"2322",0,1,450,1,3,3,"1e85858",22,1
"2422",1,1,349,2,2,3,"1e85858",23,1
"2522",1,0,89,4,1,3,"1e85858",24,1
"2622",1,1,646,1,1,3,"1e85858",25,1
"2722",0,0,868,5,5,3,"1e85858",26,1
"2822",0,1,300,5,1,3,"1e85858",27,1
"2922",1,1,412,6,6,3,"1e85858",28,1
"3022",1,0,298,3,1,3,"1e85858",29,1
"3126",1,1,291,3,3,3,"1e85858",30,1
"3224",1,0,142,1,2,3,"1e85858",31,1
"3322",0,1,295,6,1,3,"1e85858",32,1
"3422",1,1,281,4,4,3,"1e85858",33,1
"3522",0,1,281,1,6,3,"1e85858",34,1
"3622",1,0,313,4,1,3,"1e85858",35,1
"3722",0,1,285,1,3,3,"1e85858",36,1
"3822",1,1,418,1,1,3,"1e85858",37,1
"3922",1,1,339,5,5,3,"1e85858",38,1
"4022",1,1,796,4,4,3,"1e85858",39,1
"4126",1,0,396,2,1,3,"1e85858",40,1
"4224",1,1,465,2,2,3,"1e85858",41,1
"4322",0,1,433,1,5,3,"1e85858",42,1
"4422",1,1,463,3,3,3,"1e85858",43,1
"4522",1,1,107,6,6,3,"1e85858",44,1
"4622",1,1,451,6,6,3,"1e85858",45,1
"4722",1,1,366,4,4,3,"1e85858",46,1
"4822",0,1,336,1,6,3,"1e85858",47,1
"4922",1,1,356,5,5,3,"1e85858",48,1
"5022",1,0,578,1,5,3,"1e85858",49,1
"5126",1,1,107,2,2,3,"1e85858",50,1
"5224",1,1,529,3,3,3,"1e85858",51,1
"5322",1,0,42,1,3,3,"1e85858",52,1
"5422",1,1,308,1,1,3,"1e85858",53,1
"5522",1,0,446,1,2,3,"1e85858",54,1
"5622",1,0,138,1,4,3,"1e85858",55,1
"5722",1,1,452,1,1,3,"1e85858",56,1
"5822",1,0,666,1,5,3,"1e85858",57,1
"5922",1,1,696,4,4,3,"1e85858",58,1
"6022",1,1,320,6,6,3,"1e85858",59,1
"6126",1,0,457,1,4,3,"1e85858",60,1
"6224",1,0,135,2,1,3,"1e85858",61,1
"6322",0,1,339,3,1,3,"1e85858",62,1
"6422",1,1,406,5,5,3,"1e85858",63,1
"6522",1,0,549,1,6,3,"1e85858",64,1
"6622",1,1,398,3,3,3,"1e85858",65,1
"6722",0,0,400,2,2,3,"1e85858",66,1
"6822",1,0,154,1,6,3,"1e85858",67,1
"6922",1,1,366,5,5,3,"1e85858",68,1
"7022",1,1,676,4,4,3,"1e85858",69,1
"7126",1,1,567,6,6,3,"1e85858",70,1
"7223",1,0,587,1,3,3,"1e85858",71,1
"7322",1,1,550,3,3,3,"1e85858",72,1
"7422",1,1,431,2,2,3,"1e85858",73,1
"7522",1,0,505,4,1,3,"1e85858",74,1
"7622",1,0,545,2,1,3,"1e85858",75,1
"7722",1,1,383,1,1,3,"1e85858",76,1
"7822",0,1,411,1,5,3,"1e85858",77,1
"2107",-1,-1,0,1,1,2,"1565910",1,1
"3107",1,1,715,3,3,2,"1565910",2,1
"4107",1,1,428,6,6,2,"1565910",3,1
"5107",1,0,575,2,1,2,"1565910",4,1
"6107",1,1,974,2,2,2,"1565910",5,1
"798",0,1,927,1,3,2,"1565910",6,1
"823",0,1,601,1,5,2,"1565910",7,1
"923",1,1,612,5,5,2,"1565910",8,1
"1023",0,1,516,4,1,2,"1565910",9,1
"1123",0,1,628,6,1,2,"1565910",10,1
"1223",1,1,985,4,4,2,"1565910",11,1
"1323",1,1,446,6,6,2,"1565910",12,1
"1423",0,1,576,1,4,2,"1565910",13,1
"1523",1,1,604,2,2,2,"1565910",14,1
"1623",1,0,547,2,1,2,"1565910",15,1
"1723",0,1,494,1,3,2,"1565910",16,1
"1823",0,1,249,1,5,2,"1565910",17,1
"1923",1,1,424,3,3,2,"1565910",18,1
"2023",1,1,666,1,1,2,"1565910",19,1
"2127",1,1,1277,5,5,2,"1565910",20,1
"2225",0,1,321,6,1,2,"1565910",21,1
"2323",1,1,383,4,4,2,"1565910",22,1
"2423",0,1,526,1,4,2,"1565910",23,1
"2523",0,1,461,1,6,2,"1565910",24,1
"2623",1,1,422,1,1,2,"1565910",25,1
"2723",1,1,757,5,5,2,"1565910",26,1
"2823",1,1,348,2,2,2,"1565910",27,1
"2923",1,1,351,6,6,2,"1565910",28,1
"3023",1,1,623,3,3,2,"1565910",29,1
"3127",0,1,1117,3,1,2,"1565910",30,1
"3225",1,0,523,2,1,2,"1565910",31,1
"3323",0,1,805,1,5,2,"1565910",32,1
"3423",1,1,1608,4,4,2,"1565910",33,1
"3523",1,1,331,5,5,2,"1565910",34,1
"3623",1,1,361,2,2,2,"1565910",35,1
"3723",0,1,386,5,1,2,"1565910",36,1
"3823",1,1,539,1,1,2,"1565910",37,1
"3923",1,0,372,2,1,2,"1565910",38,1
"4023",1,1,474,4,4,2,"1565910",39,1
"4127",0,1,448,4,1,2,"1565910",40,1
"4225",0,1,511,3,1,2,"1565910",41,1
"4323",0,1,482,6,1,2,"1565910",42,1
"4423",1,1,214,3,3,2,"1565910",43,1
"4523",1,1,399,6,6,2,"1565910",44,1
"4623",1,1,532,6,6,2,"1565910",45,1
"4723",1,0,625,1,2,2,"1565910",46,1
"4823",1,1,409,2,2,2,"1565910",47,1
"4923",1,1,550,1,1,2,"1565910",48,1
"5023",1,1,392,5,5,2,"1565910",49,1
"5127",1,1,675,4,4,2,"1565910",50,1
"5225",0,1,578,1,6,2,"1565910",51,1
"5323",0,1,573,1,3,2,"1565910",52,1
"5423",0,1,433,4,1,2,"1565910",53,1
"5523",1,1,481,3,3,2,"1565910",54,1
"5623",0,1,606,5,1,2,"1565910",55,1
"5723",0,1,608,3,1,2,"1565910",56,1
"5823",1,1,500,4,4,2,"1565910",57,1
"5923",1,1,648,2,2,2,"1565910",58,1
"6023",1,1,1011,5,5,2,"1565910",59,1
"6127",1,1,543,3,3,2,"1565910",60,1
"6225",0,1,448,1,6,2,"1565910",61,1
"6323",1,1,612,1,1,2,"1565910",62,1
"6423",0,1,492,5,1,2,"1565910",63,1
"6523",1,1,537,6,6,2,"1565910",64,1
"6623",0,1,509,1,4,2,"1565910",65,1
"6723",1,0,601,1,2,2,"1565910",66,1
"6823",1,0,459,4,1,2,"1565910",67,1
"6923",1,1,340,3,3,2,"1565910",68,1
"7023",0,1,414,1,6,2,"1565910",69,1
"7127",0,1,396,5,1,2,"1565910",70,1
"7224",1,0,378,2,1,2,"1565910",71,1
"7323",1,1,561,5,5,2,"1565910",72,1
"7423",1,1,360,4,4,2,"1565910",73,1
"7523",0,1,412,1,3,2,"1565910",74,1
"7623",1,1,587,6,6,2,"1565910",75,1
"7723",1,1,731,1,1,2,"1565910",76,1
"7823",1,1,283,2,2,2,"1565910",77,1
"2108",0,0,661,1,1,2,"1ad8ef2",1,1
"3108",1,0,415,1,2,2,"1ad8ef2",2,1
"4108",0,0,683,6,6,2,"1ad8ef2",3,1
"5108",0,1,404,5,1,2,"1ad8ef2",4,1
"6108",1,1,372,2,2,2,"1ad8ef2",5,1
"799",1,1,540,3,3,2,"1ad8ef2",6,1
"824",0,1,241,1,3,2,"1ad8ef2",7,1
"924",0,0,1046,5,5,2,"1ad8ef2",8,1
"1024",1,1,887,4,4,2,"1ad8ef2",9,1
"1124",0,1,375,6,1,2,"1ad8ef2",10,1
"1224",0,1,386,1,4,2,"1ad8ef2",11,1
"1324",0,0,225,1,1,2,"1ad8ef2",12,1
"1424",0,1,363,4,1,2,"1ad8ef2",13,1
"1524",1,0,382,2,1,2,"1ad8ef2",14,1
"1624",1,0,469,6,1,2,"1ad8ef2",15,1
"1724",1,1,676,3,3,2,"1ad8ef2",16,1
"1824",1,1,1258,2,2,2,"1ad8ef2",17,1
"1924",1,1,448,4,4,2,"1ad8ef2",18,1
"2024",1,1,401,6,6,2,"1ad8ef2",19,1
"2128",1,0,877,3,1,2,"1ad8ef2",20,1
"2226",0,1,1917,5,1,2,"1ad8ef2",21,1
"2324",1,1,562,5,5,2,"1ad8ef2",22,1
"2424",0,0,679,5,5,2,"1ad8ef2",23,1
"2524",1,0,1298,2,1,2,"1ad8ef2",24,1
"2624",1,1,407,1,1,2,"1ad8ef2",25,1
"2724",0,0,815,3,3,2,"1ad8ef2",26,1
"2824",0,1,388,5,1,2,"1ad8ef2",27,1
"2924",1,1,796,4,4,2,"1ad8ef2",28,1
"3024",0,1,502,4,1,2,"1ad8ef2",29,1
"3128",0,1,468,1,6,2,"1ad8ef2",30,1
"3226",1,1,654,2,2,2,"1ad8ef2",31,1
"3324",1,1,417,6,6,2,"1ad8ef2",32,1
"3424",0,1,563,3,1,2,"1ad8ef2",33,1
"3524",1,1,329,2,2,2,"1ad8ef2",34,1
"3624",0,1,334,1,3,2,"1ad8ef2",35,1
"3724",1,1,516,6,6,2,"1ad8ef2",36,1
"3824",1,1,1038,3,3,2,"1ad8ef2",37,1
"3924",0,0,411,4,4,2,"1ad8ef2",38,1
"4024",0,1,1124,1,6,2,"1ad8ef2",39,1
"4128",1,1,395,5,5,2,"1ad8ef2",40,1
"4226",0,1,277,1,5,2,"1ad8ef2",41,1
"4324",1,0,380,2,1,2,"1ad8ef2",42,1
"4424",0,1,521,1,4,2,"1ad8ef2",43,1
"4524",0,0,548,1,1,2,"1ad8ef2",44,1
"4624",-1,-1,0,6,1,2,"1ad8ef2",45,1
"4724",1,1,418,2,2,2,"1ad8ef2",46,1
"4824",1,1,419,3,3,2,"1ad8ef2",47,1
"4924",0,0,266,4,4,2,"1ad8ef2",48,1
"5024",1,1,594,5,5,2,"1ad8ef2",49,1
"5128",0,1,354,3,1,2,"1ad8ef2",50,1
"5226",0,1,230,5,1,2,"1ad8ef2",51,1
"5324",0,0,998,1,1,2,"1ad8ef2",52,1
"5424",1,1,600,6,6,2,"1ad8ef2",53,1
"5524",0,1,328,1,4,2,"1ad8ef2",54,1
"5624",1,0,241,1,2,2,"1ad8ef2",55,1
"5724",0,1,471,1,5,2,"1ad8ef2",56,1
"5824",1,1,387,1,1,2,"1ad8ef2",57,1
"5924",1,1,406,6,6,2,"1ad8ef2",58,1
"6024",0,1,374,4,1,2,"1ad8ef2",59,1
"6128",1,1,556,5,5,2,"1ad8ef2",60,1
"6226",-1,-1,0,2,1,2,"1ad8ef2",61,1
"6324",1,0,1188,1,6,2,"1ad8ef2",62,1
"6424",1,1,350,4,4,2,"1ad8ef2",63,1
"6524",1,1,295,3,3,2,"1ad8ef2",64,1
"6624",0,1,898,3,1,2,"1ad8ef2",65,1
"6724",0,0,528,2,2,2,"1ad8ef2",66,1
"6824",0,0,1350,2,2,2,"1ad8ef2",67,1
"6924",-1,-1,0,5,1,2,"1ad8ef2",68,1
"7024",0,1,415,1,4,2,"1ad8ef2",69,1
"7128",0,1,893,3,1,2,"1ad8ef2",70,1
"7225",1,1,431,3,3,2,"1ad8ef2",71,1
"7324",1,0,851,1,2,2,"1ad8ef2",72,1
"7424",1,1,1126,5,5,2,"1ad8ef2",73,1
"7524",1,1,417,4,4,2,"1ad8ef2",74,1
"7624",0,1,729,6,1,2,"1ad8ef2",75,1
"7724",0,0,405,6,6,2,"1ad8ef2",76,1
"7824",1,1,349,1,1,2,"1ad8ef2",77,1
"2109",1,0,1007,4,1,2,"121dd75",1,1
"3109",1,1,734,1,1,2,"121dd75",2,1
"4109",1,1,1036,2,2,2,"121dd75",3,1
"5109",1,0,668,1,2,2,"121dd75",4,1
"6109",1,1,939,4,4,2,"121dd75",5,1
"7100",0,1,416,1,6,2,"121dd75",6,1
"825",0,1,475,5,1,2,"121dd75",7,1
"925",0,0,448,3,3,2,"121dd75",8,1
"1025",0,1,431,1,3,2,"121dd75",9,1
"1125",0,0,403,5,5,2,"121dd75",10,1
"1225",1,1,331,6,6,2,"121dd75",11,1
"1325",1,0,846,1,3,2,"121dd75",12,1
"1425",0,0,412,2,2,2,"121dd75",13,1
"1525",0,1,429,1,6,2,"121dd75",14,1
"1625",1,1,241,3,3,2,"121dd75",15,1
"1725",1,0,489,2,1,2,"121dd75",16,1
"1825",0,1,579,4,1,2,"121dd75",17,1
"1925",1,1,514,5,5,2,"121dd75",18,1
"2025",1,1,242,4,4,2,"121dd75",19,1
"2129",1,1,396,1,1,2,"121dd75",20,1
"2227",1,1,353,6,6,2,"121dd75",21,1
"2325",0,1,283,1,5,2,"121dd75",22,1
"2425",1,1,316,5,5,2,"121dd75",23,1
"2525",1,0,262,2,1,2,"121dd75",24,1
"2625",0,1,280,1,3,2,"121dd75",25,1
"2725",0,1,304,5,1,2,"121dd75",26,1
"2825",1,1,214,6,6,2,"121dd75",27,1
"2925",1,1,302,3,3,2,"121dd75",28,1
"3025",1,1,159,4,4,2,"121dd75",29,1
"3129",1,1,281,1,1,2,"121dd75",30,1
"3227",1,1,335,2,2,2,"121dd75",31,1
"3325",0,1,64,1,6,2,"121dd75",32,1
"3425",0,1,300,4,1,2,"121dd75",33,1
"3525",1,1,232,5,5,2,"121dd75",34,1
"3625",0,1,671,1,4,2,"121dd75",35,1
"3725",1,1,345,6,6,2,"121dd75",36,1
"3825",1,0,329,1,2,2,"121dd75",37,1
"3925",0,1,490,1,3,2,"121dd75",38,1
"4025",1,1,215,1,1,2,"121dd75",39,1
"4129",1,1,269,4,4,2,"121dd75",40,1
"4227",0,1,40,1,6,2,"121dd75",41,1
"4325",0,1,262,5,1,2,"121dd75",42,1
"4425",1,1,255,2,2,2,"121dd75",43,1
"4525",1,1,257,3,3,2,"121dd75",44,1
"4625",0,1,330,1,3,2,"121dd75",45,1
"4725",1,1,305,4,4,2,"121dd75",46,1
"4825",0,1,187,4,1,2,"121dd75",47,1
"4925",1,1,285,5,5,2,"121dd75",48,1
"5025",1,1,316,6,6,2,"121dd75",49,1
"5129",1,1,284,3,3,2,"121dd75",50,1
"5227",0,1,184,1,6,2,"121dd75",51,1
"5325",0,1,279,5,1,2,"121dd75",52,1
"5425",1,0,349,1,2,2,"121dd75",53,1
"5525",1,1,287,1,1,2,"121dd75",54,1
"5625",1,1,243,2,2,2,"121dd75",55,1
"5725",1,1,278,1,1,2,"121dd75",56,1
"5825",1,1,335,5,5,2,"121dd75",57,1
"5925",1,1,351,4,4,2,"121dd75",58,1
"6025",0,1,144,1,5,2,"121dd75",59,1
"6129",1,1,324,3,3,2,"121dd75",60,1
"6227",0,1,276,1,6,2,"121dd75",61,1
"6325",1,1,264,2,2,2,"121dd75",62,1
"6425",1,1,302,6,6,2,"121dd75",63,1
"6525",1,0,293,2,1,2,"121dd75",64,1
"6625",1,0,283,1,3,2,"121dd75",65,1
"6725",0,1,148,1,4,2,"121dd75",66,1
"6825",0,1,80,1,4,2,"121dd75",67,1
"6925",0,1,274,6,1,2,"121dd75",68,1
"7025",1,1,216,6,6,2,"121dd75",69,1
"7129",1,1,244,2,2,2,"121dd75",70,1
"7226",1,0,209,1,2,2,"121dd75",71,1
"7325",1,1,253,5,5,2,"121dd75",72,1
"7425",0,1,181,1,5,2,"121dd75",73,1
"7525",0,1,248,3,1,2,"121dd75",74,1
"7625",1,1,250,4,4,2,"121dd75",75,1
"7725",1,1,244,3,3,2,"121dd75",76,1
"7825",1,1,227,1,1,2,"121dd75",77,1
"2130",0,1,586,6,1,3,"c2241f7",1,1
"3130",0,0,353,5,5,3,"c2241f7",2,1
"4130",1,1,345,6,6,3,"c2241f7",3,1
"5130",0,1,211,1,2,3,"c2241f7",4,1
"6130",1,1,117,1,1,3,"c2241f7",5,1
"7101",0,1,273,1,4,3,"c2241f7",6,1
"826",0,1,55,1,5,3,"c2241f7",7,1
"926",1,1,152,2,2,3,"c2241f7",8,1
"1026",1,1,356,3,3,3,"c2241f7",9,1
"1126",0,1,278,3,1,3,"c2241f7",10,1
"1226",0,0,139,4,4,3,"c2241f7",11,1
"1326",0,0,13,5,5,3,"c2241f7",12,1
"1426",0,1,780,3,1,3,"c2241f7",13,1
"1526",1,0,46,5,1,3,"c2241f7",14,1
"1626",0,1,370,6,1,3,"c2241f7",15,1
"1726",0,0,334,6,6,3,"c2241f7",16,1
"1826",1,1,262,1,1,3,"c2241f7",17,1
"1926",0,0,617,4,4,3,"c2241f7",18,1
"2026",1,0,470,2,1,3,"c2241f7",19,1
"2131",1,1,510,3,3,3,"c2241f7",20,1
"2228",0,0,608,2,2,3,"c2241f7",21,1
"2326",0,1,681,4,1,3,"c2241f7",22,1
"2426",0,0,564,1,1,3,"c2241f7",23,1
"2526",1,0,334,1,5,3,"c2241f7",24,1
"2626",0,1,401,2,1,3,"c2241f7",25,1
"2726",1,1,1474,5,5,3,"c2241f7",26,1
"2826",0,1,528,1,4,3,"c2241f7",27,1
"2926",0,0,231,3,3,3,"c2241f7",28,1
"3026",1,1,343,4,4,3,"c2241f7",29,1
"3131",1,1,481,2,2,3,"c2241f7",30,1
"3228",0,1,817,6,1,3,"c2241f7",31,1
"3326",-1,-1,0,1,3,3,"c2241f7",32,1
"3426",1,1,380,6,6,3,"c2241f7",33,1
"3526",0,0,542,2,2,3,"c2241f7",34,1
"3626",1,0,1356,1,5,3,"c2241f7",35,1
"3726",1,1,268,4,4,3,"c2241f7",36,1
"3826",1,0,803,1,3,3,"c2241f7",37,1
"3926",0,1,583,2,1,3,"c2241f7",38,1
"4026",0,0,508,3,3,3,"c2241f7",39,1
"4131",0,1,768,6,1,3,"c2241f7",40,1
"4228",1,1,555,5,5,3,"c2241f7",41,1
"4326",0,1,583,1,4,3,"c2241f7",42,1
"4426",1,1,428,1,1,3,"c2241f7",43,1
"4526",1,1,720,6,6,3,"c2241f7",44,1
"4626",1,1,731,4,4,3,"c2241f7",45,1
"4726",0,1,1088,2,1,3,"c2241f7",46,1
"4826",0,1,553,3,1,3,"c2241f7",47,1
"4926",1,0,1043,1,4,3,"c2241f7",48,1
"5026",0,0,695,3,3,3,"c2241f7",49,1
"5131",1,1,347,5,5,3,"c2241f7",50,1
"5228",1,1,359,6,6,3,"c2241f7",51,1
"5326",0,0,117,1,1,3,"c2241f7",52,1
"5426",1,1,196,2,2,3,"c2241f7",53,1
"5526",1,0,589,1,5,3,"c2241f7",54,1
"5626",0,1,520,6,1,3,"c2241f7",55,1
"5726",0,0,509,2,2,3,"c2241f7",56,1
"5826",1,1,383,6,6,3,"c2241f7",57,1
"5926",0,1,339,2,1,3,"c2241f7",58,1
"6026",1,1,350,1,1,3,"c2241f7",59,1
"6131",0,1,577,1,4,3,"c2241f7",60,1
"6228",1,1,777,4,4,3,"c2241f7",61,1
"6326",0,1,452,6,1,3,"c2241f7",62,1
"6426",1,1,681,3,3,3,"c2241f7",63,1
"6526",1,0,601,5,1,3,"c2241f7",64,1
"6626",0,1,867,3,1,3,"c2241f7",65,1
"6726",1,1,658,5,5,3,"c2241f7",66,1
"6826",0,0,281,4,4,3,"c2241f7",67,1
"6926",1,0,949,4,1,3,"c2241f7",68,1
"7026",0,1,529,1,2,3,"c2241f7",69,1
"7130",1,1,356,6,6,3,"c2241f7",70,1
"7227",1,1,1941,3,3,3,"c2241f7",71,1
"7326",0,1,879,5,1,3,"c2241f7",72,1
"7426",0,0,644,2,2,3,"c2241f7",73,1
"7526",0,0,122,1,1,3,"c2241f7",74,1
"7626",1,0,209,1,3,3,"c2241f7",75,1
"7726",0,0,908,5,5,3,"c2241f7",76,1
"7826",1,0,934,1,6,3,"c2241f7",77,1
"2132",0,0,521,6,6,1,"c3087cd",1,1
"3132",1,1,44,3,3,1,"c3087cd",2,1
"4132",1,0,65,1,6,1,"c3087cd",3,1
"5132",0,0,263,4,4,1,"c3087cd",4,1
"6132",1,1,304,5,5,1,"c3087cd",5,1
"7102",1,0,271,5,1,1,"c3087cd",6,1
"827",1,1,366,1,1,1,"c3087cd",7,1
"927",1,0,74,1,3,1,"c3087cd",8,1
"1027",1,0,230,4,1,1,"c3087cd",9,1
"1127",0,1,37,2,1,1,"c3087cd",10,1
"1227",1,1,336,2,2,1,"c3087cd",11,1
"1327",1,1,76,3,3,1,"c3087cd",12,1
"1427",0,1,201,4,1,1,"c3087cd",13,1
"1527",0,1,577,1,2,1,"c3087cd",14,1
"1627",0,1,111,1,5,1,"c3087cd",15,1
"1727",1,0,122,1,6,1,"c3087cd",16,1
"1827",1,1,114,6,6,1,"c3087cd",17,1
"1927",1,1,244,5,5,1,"c3087cd",18,1
"2027",1,1,255,2,2,1,"c3087cd",19,1
"2133",1,1,4,1,1,1,"c3087cd",20,1
"2229",1,1,412,4,4,1,"c3087cd",21,1
"2327",0,1,245,3,1,1,"c3087cd",22,1
"2427",0,0,838,3,3,1,"c3087cd",23,1
"2527",0,0,548,5,5,1,"c3087cd",24,1
"2627",1,1,762,1,1,1,"c3087cd",25,1
"2727",1,0,375,6,1,1,"c3087cd",26,1
"2827",0,0,247,4,4,1,"c3087cd",27,1
"2927",1,0,310,1,4,1,"c3087cd",28,1
"3027",1,0,479,1,3,1,"c3087cd",29,1
"3133",1,0,527,5,1,1,"c3087cd",30,1
"3229",1,1,577,6,6,1,"c3087cd",31,1
"3327",0,1,960,1,2,1,"c3087cd",32,1
"3427",0,0,902,2,2,1,"c3087cd",33,1
"3527",1,1,777,1,1,1,"c3087cd",34,1
"3627",0,0,983,2,2,1,"c3087cd",35,1
"3727",0,0,40,4,4,1,"c3087cd",36,1
"3827",1,0,402,1,3,1,"c3087cd",37,1
"3927",-1,-1,0,5,1,1,"c3087cd",38,1
"4027",0,1,201,6,1,1,"c3087cd",39,1
"4133",1,0,548,4,1,1,"c3087cd",40,1
"4229",0,0,637,6,6,1,"c3087cd",41,1
"4327",0,0,756,5,5,1,"c3087cd",42,1
"4427",1,0,175,2,1,1,"c3087cd",43,1
"4527",0,0,629,3,3,1,"c3087cd",44,1
"4627",1,1,229,1,1,1,"c3087cd",45,1
"4727",0,0,603,4,4,1,"c3087cd",46,1
"4827",0,1,213,1,5,1,"c3087cd",47,1
"4927",0,1,222,3,1,1,"c3087cd",48,1
"5027",0,0,235,2,2,1,"c3087cd",49,1
"5133",1,0,317,1,2,1,"c3087cd",50,1
"5229",1,1,196,5,5,1,"c3087cd",51,1
"5327",0,1,589,1,4,1,"c3087cd",52,1
"5427",0,1,469,1,6,1,"c3087cd",53,1
"5527",0,0,608,3,3,1,"c3087cd",54,1
"5627",1,1,488,6,6,1,"c3087cd",55,1
"5727",0,0,357,3,3,1,"c3087cd",56,1
"5827",1,0,504,1,2,1,"c3087cd",57,1
"5927",1,1,140,2,2,1,"c3087cd",58,1
"6027",0,1,283,6,1,1,"c3087cd",59,1
"6133",0,0,505,6,6,1,"c3087cd",60,1
"6229",1,1,629,1,1,1,"c3087cd",61,1
"6327",0,1,79,5,1,1,"c3087cd",62,1
"6427",0,0,36,4,4,1,"c3087cd",63,1
"6527",0,1,471,1,4,1,"c3087cd",64,1
"6627",1,1,256,5,5,1,"c3087cd",65,1
"6727",0,1,284,3,1,1,"c3087cd",66,1
"6827",1,0,183,1,4,1,"c3087cd",67,1
"6927",0,0,1241,1,1,1,"c3087cd",68,1
"7027",0,0,482,2,2,1,"c3087cd",69,1
"7131",1,0,47,1,6,1,"c3087cd",70,1
"7228",0,1,272,3,1,1,"c3087cd",71,1
"7327",0,1,361,5,1,1,"c3087cd",72,1
"7427",1,1,658,5,5,1,"c3087cd",73,1
"7527",0,0,220,3,3,1,"c3087cd",74,1
"7627",1,0,324,1,2,1,"c3087cd",75,1
"7727",1,1,561,4,4,1,"c3087cd",76,1
"7827",1,1,24,6,6,1,"c3087cd",77,1
"2134",1,1,763,6,6,1,"1f3ab34",1,1
"3134",1,0,450,4,1,1,"1f3ab34",2,1
"4134",1,1,509,5,5,1,"1f3ab34",3,1
"5134",1,1,342,2,2,1,"1f3ab34",4,1
"6134",0,1,315,5,1,1,"1f3ab34",5,1
"7103",1,0,387,2,1,1,"1f3ab34",6,1
"828",1,0,378,6,1,1,"1f3ab34",7,1
"928",0,0,487,3,3,1,"1f3ab34",8,1
"1028",-1,-1,0,1,1,1,"1f3ab34",9,1
"1128",1,0,451,1,3,1,"1f3ab34",10,1
"1228",0,0,728,4,4,1,"1f3ab34",11,1
"1328",1,0,684,3,1,1,"1f3ab34",12,1
"1428",1,0,458,2,1,1,"1f3ab34",13,1
"1528",1,1,340,4,4,1,"1f3ab34",14,1
"1628",1,1,363,1,1,1,"1f3ab34",15,1
"1728",1,1,389,5,5,1,"1f3ab34",16,1
"1828",1,1,355,2,2,1,"1f3ab34",17,1
"1928",1,0,535,1,6,1,"1f3ab34",18,1
"2028",1,0,551,1,4,1,"1f3ab34",19,1
"2135",0,0,260,3,3,1,"1f3ab34",20,1
"2230",0,0,651,6,6,1,"1f3ab34",21,1
"2328",1,0,868,1,5,1,"1f3ab34",22,1
"2428",1,1,442,3,3,1,"1f3ab34",23,1
"2528",1,1,239,2,2,1,"1f3ab34",24,1
"2628",1,1,427,1,1,1,"1f3ab34",25,1
"2728",1,1,868,6,6,1,"1f3ab34",26,1
"2828",1,0,782,1,4,1,"1f3ab34",27,1
"2928",1,0,386,1,6,1,"1f3ab34",28,1
"3028",1,0,420,1,5,1,"1f3ab34",29,1
"3135",0,0,278,5,5,1,"1f3ab34",30,1
"3230",0,1,425,1,2,1,"1f3ab34",31,1
"3328",1,1,292,4,4,1,"1f3ab34",32,1
"3428",1,0,244,3,1,1,"1f3ab34",33,1
"3528",1,0,251,4,1,1,"1f3ab34",34,1
"3628",1,0,453,6,1,1,"1f3ab34",35,1
"3728",1,1,561,2,2,1,"1f3ab34",36,1
"3828",1,0,557,3,1,1,"1f3ab34",37,1
"3928",0,0,366,6,6,1,"1f3ab34",38,1
"4028",1,1,1323,3,3,1,"1f3ab34",39,1
"4135",-1,-1,0,1,5,1,"1f3ab34",40,1
"4230",1,1,482,5,5,1,"1f3ab34",41,1
"4328",1,1,884,1,1,1,"1f3ab34",42,1
"4428",1,0,307,2,1,1,"1f3ab34",43,1
"4528",1,1,326,4,4,1,"1f3ab34",44,1
"4628",1,1,278,6,6,1,"1f3ab34",45,1
"4728",0,1,1408,4,1,1,"1f3ab34",46,1
"4828",0,1,944,1,2,1,"1f3ab34",47,1
"4928",1,1,904,1,1,1,"1f3ab34",48,1
"5028",0,1,504,1,3,1,"1f3ab34",49,1
"5135",0,1,233,1,6,1,"1f3ab34",50,1
"5230",0,1,644,1,5,1,"1f3ab34",51,1
"5328",1,1,407,2,2,1,"1f3ab34",52,1
"5428",0,0,279,5,5,1,"1f3ab34",53,1
"5528",1,1,329,3,3,1,"1f3ab34",54,1
"5628",1,1,328,4,4,1,"1f3ab34",55,1
"5728",1,1,319,1,1,1,"1f3ab34",56,1
"5828",0,1,956,1,6,1,"1f3ab34",57,1
"5928",1,1,621,5,5,1,"1f3ab34",58,1
"6028",0,1,850,1,3,1,"1f3ab34",59,1
"6135",1,1,361,4,4,1,"1f3ab34",60,1
"6230",1,1,376,2,2,1,"1f3ab34",61,1
"6328",0,1,1043,1,4,1,"1f3ab34",62,1
"6428",0,1,1613,2,1,1,"1f3ab34",63,1
"6528",0,1,1013,5,1,1,"1f3ab34",64,1
"6628",1,1,755,6,6,1,"1f3ab34",65,1
"6728",1,1,387,3,3,1,"1f3ab34",66,1
"6828",1,1,337,1,1,1,"1f3ab34",67,1
"6928",-1,-1,0,1,3,1,"1f3ab34",68,1
"7028",0,1,1007,1,4,1,"1f3ab34",69,1
"7132",1,1,804,5,5,1,"1f3ab34",70,1
"7229",1,1,330,6,6,1,"1f3ab34",71,1
"7328",1,1,244,2,2,1,"1f3ab34",72,1
"7428",-1,-1,0,2,1,1,"1f3ab34",73,1
"7528",0,1,669,5,1,1,"1f3ab34",74,1
"7628",1,1,349,3,3,1,"1f3ab34",75,1
"7728",0,1,1463,6,1,1,"1f3ab34",76,1
"7828",1,1,764,4,4,1,"1f3ab34",77,1
"2136",1,0,870,2,1,1,"1add64f",1,1
"3136",1,1,525,3,3,1,"1add64f",2,1
"4136",0,0,320,4,4,1,"1add64f",3,1
"5136",1,0,547,6,1,1,"1add64f",4,1
"6136",1,1,467,5,5,1,"1add64f",5,1
"7104",0,1,435,4,1,1,"1add64f",6,1
"829",0,0,251,1,1,1,"1add64f",7,1
"929",0,1,206,1,5,1,"1add64f",8,1
"1029",0,1,176,1,3,1,"1add64f",9,1
"1129",1,1,268,6,6,1,"1add64f",10,1
"1229",1,1,247,2,2,1,"1add64f",11,1
"1329",0,0,308,3,3,1,"1add64f",12,1
"1429",0,1,152,5,1,1,"1add64f",13,1
"1529",1,1,234,4,4,1,"1add64f",14,1
"1629",1,0,61,1,2,1,"1add64f",15,1
"1729",1,1,216,2,2,1,"1add64f",16,1
"1829",1,0,224,1,3,1,"1add64f",17,1
"1929",0,1,191,6,1,1,"1add64f",18,1
"2029",0,1,172,4,1,1,"1add64f",19,1
"2137",1,1,218,5,5,1,"1add64f",20,1
"2231",1,1,177,6,6,1,"1add64f",21,1
"2329",1,1,183,1,1,1,"1add64f",22,1
"2429",1,1,305,1,1,1,"1add64f",23,1
"2529",0,1,254,2,1,1,"1add64f",24,1
"2629",1,0,252,1,4,1,"1add64f",25,1
"2729",1,1,429,3,3,1,"1add64f",26,1
"2829",0,1,256,5,1,1,"1add64f",27,1
"2929",1,1,215,4,4,1,"1add64f",28,1
"3029",1,0,267,1,3,1,"1add64f",29,1
"3137",1,1,224,6,6,1,"1add64f",30,1
"3231",0,0,255,5,5,1,"1add64f",31,1
"3329",0,1,229,6,1,1,"1add64f",32,1
"3429",1,1,130,2,2,1,"1add64f",33,1
"3529",1,1,258,5,5,1,"1add64f",34,1
"3629",0,1,309,4,1,1,"1add64f",35,1
"3729",0,1,223,5,1,1,"1add64f",36,1
"3829",1,1,201,2,2,1,"1add64f",37,1
"3929",1,1,124,6,6,1,"1add64f",38,1
"4029",1,1,228,1,1,1,"1add64f",39,1
"4137",1,1,227,3,3,1,"1add64f",40,1
"4231",0,1,253,1,3,1,"1add64f",41,1
"4329",1,1,63,4,4,1,"1add64f",42,1
"4429",0,1,163,6,1,1,"1add64f",43,1
"4529",0,1,246,2,1,1,"1add64f",44,1
"4629",1,1,318,6,6,1,"1add64f",45,1
"4729",1,0,166,1,3,1,"1add64f",46,1
"4829",1,1,236,4,4,1,"1add64f",47,1
"4929",1,0,289,1,2,1,"1add64f",48,1
"5029",1,1,168,3,3,1,"1add64f",49,1
"5137",0,1,115,4,1,1,"1add64f",50,1
"5231",1,1,214,1,1,1,"1add64f",51,1
"5329",0,1,188,1,5,1,"1add64f",52,1
"5429",0,1,181,1,6,1,"1add64f",53,1
"5529",0,0,196,2,2,1,"1add64f",54,1
"5629",1,1,104,5,5,1,"1add64f",55,1
"5729",1,0,181,1,2,1,"1add64f",56,1
"5829",0,1,198,1,6,1,"1add64f",57,1
"5929",0,0,510,1,1,1,"1add64f",58,1
"6029",1,1,85,2,2,1,"1add64f",59,1
"6137",1,1,154,6,6,1,"1add64f",60,1
"6231",1,1,32,3,3,1,"1add64f",61,1
"6329",1,1,220,4,4,1,"1add64f",62,1
"6429",0,1,287,1,4,1,"1add64f",63,1
"6529",0,1,255,5,1,1,"1add64f",64,1
"6629",0,1,421,1,3,1,"1add64f",65,1
"6729",1,1,128,5,5,1,"1add64f",66,1
"6829",0,1,182,1,4,1,"1add64f",67,1
"6929",0,1,224,6,1,1,"1add64f",68,1
"7029",0,1,120,1,5,1,"1add64f",69,1
"7133",0,1,278,2,1,1,"1add64f",70,1
"7230",1,1,101,5,5,1,"1add64f",71,1
"7329",0,0,553,1,1,1,"1add64f",72,1
"7429",1,1,99,6,6,1,"1add64f",73,1
"7529",1,1,247,3,3,1,"1add64f",74,1
"7629",0,1,306,3,1,1,"1add64f",75,1
"7729",1,1,442,4,4,1,"1add64f",76,1
"7829",1,1,281,2,2,1,"1add64f",77,1
"2138",0,1,504,6,1,1,"156435d",1,2
"3138",0,1,543,1,3,1,"156435d",2,2
"4138",0,1,551,2,1,1,"156435d",3,2
"5138",1,1,1844,5,5,1,"156435d",4,2
"6138",1,1,492,1,1,1,"156435d",5,2
"7105",0,1,343,5,1,1,"156435d",6,2
"830",0,0,1362,6,6,1,"156435d",7,2
"930",1,1,367,3,3,1,"156435d",8,2
"1030",1,1,350,4,4,1,"156435d",9,2
"1130",1,1,343,2,2,1,"156435d",10,2
"1230",0,1,414,1,4,1,"156435d",11,2
"1330",1,1,536,1,1,1,"156435d",12,2
"1430",1,1,483,3,3,1,"156435d",13,2
"1530",0,1,739,3,1,1,"156435d",14,2
"1630",1,1,560,5,5,1,"156435d",15,2
"1730",1,1,310,2,2,1,"156435d",16,2
"1830",1,0,660,1,2,1,"156435d",17,2
"1930",0,1,307,4,1,1,"156435d",18,2
"2030",0,1,412,1,6,1,"156435d",19,2
"2139",0,0,297,6,6,1,"156435d",20,2
"2232",0,1,384,1,5,1,"156435d",21,2
"2330",1,1,351,4,4,1,"156435d",22,2
"2430",1,1,471,6,6,1,"156435d",23,2
"2530",1,1,763,2,2,1,"156435d",24,2
"2630",1,0,363,1,2,1,"156435d",25,2
"2730",1,1,329,4,4,1,"156435d",26,2
"2830",0,1,619,1,6,1,"156435d",27,2
"2930",1,1,554,5,5,1,"156435d",28,2
"3030",0,1,1128,5,1,1,"156435d",29,2
"3139",1,1,1256,3,3,1,"156435d",30,2
"3232",1,1,548,1,1,1,"156435d",31,2
"3330",0,1,334,4,1,1,"156435d",32,2
"3430",0,1,293,1,3,1,"156435d",33,2
"3530",0,1,348,5,1,1,"156435d",34,2
"3630",0,1,343,1,3,1,"156435d",35,2
"3730",1,1,347,3,3,1,"156435d",36,2
"3830",0,1,289,1,2,1,"156435d",37,2
"3930",0,1,649,4,1,1,"156435d",38,2
"4030",1,1,321,4,4,1,"156435d",39,2
"4139",0,1,531,1,6,1,"156435d",40,2
"4232",1,1,380,6,6,1,"156435d",41,2
"4330",1,1,599,2,2,1,"156435d",42,2
"4430",1,1,314,5,5,1,"156435d",43,2
"4530",1,1,483,1,1,1,"156435d",44,2
"4630",0,1,505,1,6,1,"156435d",45,2
"4730",1,1,363,4,4,1,"156435d",46,2
"4830",1,1,364,6,6,1,"156435d",47,2
"4930",1,1,598,3,3,1,"156435d",48,2
"5030",0,1,740,3,1,1,"156435d",49,2
"5139",1,1,418,1,1,1,"156435d",50,2
"5232",0,1,578,1,4,1,"156435d",51,2
"5330",1,1,337,5,5,1,"156435d",52,2
"5430",1,0,340,1,2,1,"156435d",53,2
"5530",0,1,476,1,5,1,"156435d",54,2
"5630",1,1,521,2,2,1,"156435d",55,2
"5730",1,1,540,3,3,1,"156435d",56,2
"5830",1,1,390,2,2,1,"156435d",57,2
"5930",0,1,463,3,1,1,"156435d",58,2
"6030",0,1,334,4,1,1,"156435d",59,2
"6139",1,1,317,1,1,1,"156435d",60,2
"6232",1,1,667,4,4,1,"156435d",61,2
"6330",1,1,1011,6,6,1,"156435d",62,2
"6430",1,1,346,5,5,1,"156435d",63,2
"6530",1,0,318,1,2,1,"156435d",64,2
"6630",0,1,597,1,6,1,"156435d",65,2
"6730",0,1,374,1,5,1,"156435d",66,2
"6830",1,1,310,4,4,1,"156435d",67,2
"6930",0,1,597,5,1,1,"156435d",68,2
"7030",1,1,223,2,2,1,"156435d",69,2
"7134",1,1,887,6,6,1,"156435d",70,2
"7231",1,1,322,3,3,1,"156435d",71,2
"7330",1,1,1253,1,1,1,"156435d",72,2
"7430",0,1,549,1,6,1,"156435d",73,2
"7530",0,1,271,3,1,1,"156435d",74,2
"7630",1,1,380,5,5,1,"156435d",75,2
"7730",0,1,530,2,1,1,"156435d",76,2
"7830",0,1,422,1,4,1,"156435d",77,2
"2140",0,0,1188,2,2,1,"1b87990",1,2
"3140",1,1,277,1,1,1,"1b87990",2,2
"4140",0,1,244,1,3,1,"1b87990",3,2
"5140",0,1,379,5,1,1,"1b87990",4,2
"6140",1,1,315,3,3,1,"1b87990",5,2
"7106",0,1,346,1,4,1,"1b87990",6,2
"831",0,1,308,1,6,1,"1b87990",7,2
"931",1,1,282,5,5,1,"1b87990",8,2
"1031",1,1,279,4,4,1,"1b87990",9,2
"1131",1,1,231,6,6,1,"1b87990",10,2
"1231",0,1,495,2,1,1,"1b87990",11,2
"1331",1,1,304,2,2,1,"1b87990",12,2
"1431",0,1,325,3,1,1,"1b87990",13,2
"1531",1,1,268,4,4,1,"1b87990",14,2
"1631",1,1,279,6,6,1,"1b87990",15,2
"1731",0,1,345,1,6,1,"1b87990",16,2
"1831",0,1,259,2,1,1,"1b87990",17,2
"1931",1,1,900,1,1,1,"1b87990",18,2
"2031",1,1,374,3,3,1,"1b87990",19,2
"2141",0,1,383,5,1,1,"1b87990",20,2
"2233",0,1,626,1,4,1,"1b87990",21,2
"2331",1,1,580,5,5,1,"1b87990",22,2
"2431",0,0,419,4,4,1,"1b87990",23,2
"2531",0,1,258,2,1,1,"1b87990",24,2
"2631",0,1,318,1,5,1,"1b87990",25,2
"2731",1,1,414,2,2,1,"1b87990",26,2
"2831",0,1,555,1,6,1,"1b87990",27,2
"2931",0,1,314,3,1,1,"1b87990",28,2
"3031",1,1,323,1,1,1,"1b87990",29,2
"3141",1,1,525,5,5,1,"1b87990",30,2
"3233",1,1,350,3,3,1,"1b87990",31,2
"3331",1,1,445,6,6,1,"1b87990",32,2
"3431",0,1,329,1,4,1,"1b87990",33,2
"3531",1,1,842,1,1,1,"1b87990",34,2
"3631",1,1,355,4,4,1,"1b87990",35,2
"3731",0,1,326,1,3,1,"1b87990",36,2
"3831",1,1,316,5,5,1,"1b87990",37,2
"3931",0,1,450,1,4,1,"1b87990",38,2
"4031",1,1,537,3,3,1,"1b87990",39,2
"4141",1,1,796,2,2,1,"1b87990",40,2
"4233",1,1,634,6,6,1,"1b87990",41,2
"4331",0,1,461,1,5,1,"1b87990",42,2
"4431",1,0,912,1,2,1,"1b87990",43,2
"4531",0,1,527,6,1,1,"1b87990",44,2
"4631",1,1,360,3,3,1,"1b87990",45,2
"4731",0,1,423,6,1,1,"1b87990",46,2
"4831",1,1,439,2,2,1,"1b87990",47,2
"4931",1,1,461,6,6,1,"1b87990",48,2
"5031",1,0,628,1,2,1,"1b87990",49,2
"5141",0,1,268,4,1,1,"1b87990",50,2
"5233",1,1,422,5,5,1,"1b87990",51,2
"5331",0,1,1474,1,5,1,"1b87990",52,2
"5431",1,1,558,1,1,1,"1b87990",53,2
"5531",1,1,456,4,4,1,"1b87990",54,2
"5631",0,1,547,3,1,1,"1b87990",55,2
"5731",0,1,319,3,1,1,"1b87990",56,2
"5831",1,1,421,4,4,1,"1b87990",57,2
"5931",0,1,436,4,1,1,"1b87990",58,2
"6031",1,1,406,1,1,1,"1b87990",59,2
"6141",1,1,329,2,2,1,"1b87990",60,2
"6233",0,1,480,2,1,1,"1b87990",61,2
"6331",1,1,394,3,3,1,"1b87990",62,2
"6431",1,1,431,6,6,1,"1b87990",63,2
"6531",1,1,646,5,5,1,"1b87990",64,2
"6631",0,1,872,1,6,1,"1b87990",65,2
"6731",0,1,1463,5,1,1,"1b87990",66,2
"6831",0,1,621,6,1,1,"1b87990",67,2
"6931",1,1,497,4,4,1,"1b87990",68,2
"7031",0,1,532,1,5,1,"1b87990",69,2
"7135",1,0,418,1,2,1,"1b87990",70,2
"7232",0,1,247,1,4,1,"1b87990",71,2
"7331",0,1,303,1,3,1,"1b87990",72,2
"7431",1,1,425,2,2,1,"1b87990",73,2
"7531",1,1,487,3,3,1,"1b87990",74,2
"7631",1,1,450,5,5,1,"1b87990",75,2
"7731",0,0,1639,1,1,1,"1b87990",76,2
"7831",1,1,367,6,6,1,"1b87990",77,2
"2142",1,1,420,3,3,2,"171be3e",1,2
"3142",0,1,467,1,6,2,"171be3e",2,2
"4142",0,1,419,1,4,2,"171be3e",3,2
"5142",0,1,405,5,1,2,"171be3e",4,2
"6142",1,1,409,6,6,2,"171be3e",5,2
"7107",1,1,441,1,1,2,"171be3e",6,2
"832",1,1,621,2,2,2,"171be3e",7,2
"932",1,0,425,1,2,2,"171be3e",8,2
"1032",1,1,399,4,4,2,"171be3e",9,2
"1132",0,1,319,3,1,2,"171be3e",10,2
"1232",1,1,739,5,5,2,"171be3e",11,2
"1332",0,1,335,4,1,2,"171be3e",12,2
"1432",1,1,306,3,3,2,"171be3e",13,2
"1532",1,1,555,1,1,2,"171be3e",14,2
"1632",0,1,504,1,2,2,"171be3e",15,2
"1732",1,1,475,4,4,2,"171be3e",16,2
"1832",0,1,480,6,1,2,"171be3e",17,2
"1932",1,1,366,2,2,2,"171be3e",18,2
"2032",0,1,278,5,1,2,"171be3e",19,2
"2143",0,1,255,1,3,2,"171be3e",20,2
"2234",1,1,389,5,5,2,"171be3e",21,2
"2332",1,1,329,6,6,2,"171be3e",22,2
"2432",1,1,410,2,2,2,"171be3e",23,2
"2532",1,1,281,5,5,2,"171be3e",24,2
"2632",0,1,297,2,1,2,"171be3e",25,2
"2732",0,1,383,1,5,2,"171be3e",26,2
"2832",0,1,243,6,1,2,"171be3e",27,2
"2932",1,1,498,1,1,2,"171be3e",28,2
"3032",1,1,394,6,6,2,"171be3e",29,2
"3143",0,1,557,3,1,2,"171be3e",30,2
"3234",0,0,528,3,3,2,"171be3e",31,2
"3332",1,1,393,4,4,2,"171be3e",32,2
"3432",0,1,290,1,4,2,"171be3e",33,2
"3532",0,0,408,1,1,2,"171be3e",34,2
"3632",0,1,449,1,3,2,"171be3e",35,2
"3732",1,1,280,4,4,2,"171be3e",36,2
"3832",0,1,376,6,1,2,"171be3e",37,2
"3932",1,1,348,2,2,2,"171be3e",38,2
"4032",0,1,315,1,2,2,"171be3e",39,2
"4143",1,1,606,5,5,2,"171be3e",40,2
"4234",0,1,623,1,5,2,"171be3e",41,2
"4332",1,1,549,6,6,2,"171be3e",42,2
"4432",0,1,256,1,4,2,"171be3e",43,2
"4532",1,1,642,3,3,2,"171be3e",44,2
"4632",1,1,521,5,5,2,"171be3e",45,2
"4732",0,1,711,1,6,2,"171be3e",46,2
"4832",1,1,449,3,3,2,"171be3e",47,2
"4932",1,1,473,6,6,2,"171be3e",48,2
"5032",0,1,914,4,1,2,"171be3e",49,2
"5143",0,1,381,1,5,2,"171be3e",50,2
"5234",0,0,449,4,4,2,"171be3e",51,2
"5332",1,1,327,2,2,2,"171be3e",52,2
"5432",0,1,284,3,1,2,"171be3e",53,2
"5532",0,1,524,2,1,2,"171be3e",54,2
"5632",1,1,508,1,1,2,"171be3e",55,2
"5732",1,1,368,3,3,2,"171be3e",56,2
"5832",0,0,337,2,2,2,"171be3e",57,2
"5932",0,1,261,1,4,2,"171be3e",58,2
"6032",0,1,273,6,1,2,"171be3e",59,2
"6143",1,1,218,1,1,2,"171be3e",60,2
"6234",1,1,232,5,5,2,"171be3e",61,2
"6332",1,1,279,6,6,2,"171be3e",62,2
"6432",1,1,364,4,4,2,"171be3e",63,2
"6532",0,1,277,1,2,2,"171be3e",64,2
"6632",0,1,266,1,5,2,"171be3e",65,2
"6732",0,1,915,1,3,2,"171be3e",66,2
"6832",1,1,332,5,5,2,"171be3e",67,2
"6932",1,1,833,6,6,2,"171be3e",68,2
"7032",0,1,475,5,1,2,"171be3e",69,2
"7136",1,1,419,3,3,2,"171be3e",70,2
"7233",1,1,324,2,2,2,"171be3e",71,2
"7332",0,1,315,1,2,2,"171be3e",72,2
"7432",1,1,443,1,1,2,"171be3e",73,2
"7532",0,1,304,1,4,2,"171be3e",74,2
"7632",1,1,432,4,4,2,"171be3e",75,2
"7732",0,1,451,6,1,2,"171be3e",76,2
"7832",0,1,242,3,1,2,"171be3e",77,2
"2144",1,1,262,1,1,2,"161c7f1",1,2
"3144",0,1,984,5,1,2,"161c7f1",2,2
"4144",1,1,332,3,3,2,"161c7f1",3,2
"5144",0,1,250,2,1,2,"161c7f1",4,2
"6144",0,1,396,1,6,2,"161c7f1",5,2
"7108",0,1,248,4,1,2,"161c7f1",6,2
"833",1,1,275,4,4,2,"161c7f1",7,2
"933",1,1,254,6,6,2,"161c7f1",8,2
"1033",1,1,425,2,2,2,"161c7f1",9,2
"1133",1,1,1389,5,5,2,"161c7f1",10,2
"1233",0,1,286,3,1,2,"161c7f1",11,2
"1333",1,1,323,5,5,2,"161c7f1",12,2
"1433",1,1,347,3,3,2,"161c7f1",13,2
"1533",0,1,406,6,1,2,"161c7f1",14,2
"1633",0,1,96,3,1,2,"161c7f1",15,2
"1733",0,1,141,1,2,2,"161c7f1",16,2
"1833",0,1,269,4,1,2,"161c7f1",17,2
"1933",1,1,97,1,1,2,"161c7f1",18,2
"2033",0,1,276,1,5,2,"161c7f1",19,2
"2145",1,1,289,4,4,2,"161c7f1",20,2
"2235",1,1,297,6,6,2,"161c7f1",21,2
"2333",1,1,38,2,2,2,"161c7f1",22,2
"2433",1,1,290,6,6,2,"161c7f1",23,2
"2533",1,1,309,1,1,2,"161c7f1",24,2
"2633",1,1,296,4,4,2,"161c7f1",25,2
"2733",0,1,293,1,2,2,"161c7f1",26,2
"2833",0,1,429,3,1,2,"161c7f1",27,2
"2933",1,1,281,5,5,2,"161c7f1",28,2
"3033",1,1,273,3,3,2,"161c7f1",29,2
"3145",0,1,325,1,5,2,"161c7f1",30,2
"3235",1,1,232,2,2,2,"161c7f1",31,2
"3333",0,1,298,1,4,2,"161c7f1",32,2
"3433",0,1,282,1,6,2,"161c7f1",33,2
"3533",1,1,940,4,4,2,"161c7f1",34,2
"3633",1,1,399,2,2,2,"161c7f1",35,2
"3733",1,1,274,3,3,2,"161c7f1",36,2
"3833",0,1,357,1,6,2,"161c7f1",37,2
"3933",0,1,319,4,1,2,"161c7f1",38,2
"4033",1,1,112,6,6,2,"161c7f1",39,2
"4145",1,0,277,1,2,2,"161c7f1",40,2
"4235",1,1,238,5,5,2,"161c7f1",41,2
"4333",0,1,343,5,1,2,"161c7f1",42,2
"4433",0,1,276,3,1,2,"161c7f1",43,2
"4533",1,1,375,1,1,2,"161c7f1",44,2
"4633",1,1,281,5,5,2,"161c7f1",45,2
"4733",1,1,259,4,4,2,"161c7f1",46,2
"4833",0,1,295,1,6,2,"161c7f1",47,2
"4933",1,1,459,2,2,2,"161c7f1",48,2
"5033",1,1,421,1,1,2,"161c7f1",49,2
"5145",0,1,406,5,1,2,"161c7f1",50,2
"5235",1,1,564,6,6,2,"161c7f1",51,2
"5333",1,1,959,3,3,2,"161c7f1",52,2
"5433",0,1,242,1,3,2,"161c7f1",53,2
"5533",0,1,444,4,1,2,"161c7f1",54,2
"5633",1,0,256,2,1,2,"161c7f1",55,2
"5733",0,1,379,3,1,2,"161c7f1",56,2
"5833",1,1,253,3,3,2,"161c7f1",57,2
"5933",0,1,432,1,2,2,"161c7f1",58,2
"6033",1,1,291,6,6,2,"161c7f1",59,2
"6145",1,1,310,4,4,2,"161c7f1",60,2
"6235",0,1,449,4,1,2,"161c7f1",61,2
"6333",0,1,274,1,6,2,"161c7f1",62,2
"6433",1,1,334,5,5,2,"161c7f1",63,2
"6533",1,1,352,1,1,2,"161c7f1",64,2
"6633",0,1,282,1,5,2,"161c7f1",65,2
"6733",1,1,261,2,2,2,"161c7f1",66,2
"6833",1,1,380,3,3,2,"161c7f1",67,2
"6933",1,1,254,1,1,2,"161c7f1",68,2
"7033",1,1,337,2,2,2,"161c7f1",69,2
"7137",1,0,365,1,2,2,"161c7f1",70,2
"7234",1,1,1127,5,5,2,"161c7f1",71,2
"7333",0,1,306,1,5,2,"161c7f1",72,2
"7433",0,1,380,1,3,2,"161c7f1",73,2
"7533",1,1,255,4,4,2,"161c7f1",74,2
"7633",1,1,331,6,6,2,"161c7f1",75,2
"7733",0,1,244,1,4,2,"161c7f1",76,2
"7833",0,1,208,6,1,2,"161c7f1",77,2
"2146",1,1,328,3,3,3,"11fd9fc",1,2
"3146",1,0,344,1,6,3,"11fd9fc",2,2
"4146",1,1,327,1,1,3,"11fd9fc",3,2
"5146",0,1,415,1,3,3,"11fd9fc",4,2
"6146",1,0,425,4,1,3,"11fd9fc",5,2
"7109",1,0,982,1,2,3,"11fd9fc",6,2
"834",1,1,454,4,4,3,"11fd9fc",7,2
"934",0,1,381,1,5,3,"11fd9fc",8,2
"1034",1,1,446,2,2,3,"11fd9fc",9,2
"1134",1,1,376,5,5,3,"11fd9fc",10,2
"1234",0,0,353,6,6,3,"11fd9fc",11,2
"1334",0,1,1283,5,1,3,"11fd9fc",12,2
"1434",1,1,389,6,6,3,"11fd9fc",13,2
"1534",1,0,322,2,1,3,"11fd9fc",14,2
"1634",1,1,379,3,3,3,"11fd9fc",15,2
"1734",1,1,477,2,2,3,"11fd9fc",16,2
"1834",0,1,302,1,4,3,"11fd9fc",17,2
"1934",1,0,398,3,1,3,"11fd9fc",18,2
"2034",0,1,419,1,6,3,"11fd9fc",19,2
"2147",0,0,342,4,4,3,"11fd9fc",20,2
"2236",1,1,371,5,5,3,"11fd9fc",21,2
"2334",0,0,301,1,1,3,"11fd9fc",22,2
"2434",1,1,334,5,5,3,"11fd9fc",23,2
"2534",1,1,310,1,1,3,"11fd9fc",24,2
"2634",0,0,351,6,6,3,"11fd9fc",25,2
"2734",1,1,326,4,4,3,"11fd9fc",26,2
"2834",1,0,239,2,1,3,"11fd9fc",27,2
"2934",0,1,375,1,6,3,"11fd9fc",28,2
"3034",1,0,376,3,1,3,"11fd9fc",29,2
"3147",1,1,1680,2,2,3,"11fd9fc",30,2
"3236",1,0,328,4,1,3,"11fd9fc",31,2
"3334",0,1,859,5,1,3,"11fd9fc",32,2
"3434",0,0,353,3,3,3,"11fd9fc",33,2
"3534",1,0,362,6,1,3,"11fd9fc",34,2
"3634",1,0,474,1,2,3,"11fd9fc",35,2
"3734",-1,-1,0,3,3,3,"11fd9fc",36,2
"3834",-1,-1,0,5,1,3,"11fd9fc",37,2
"3934",1,1,826,6,6,3,"11fd9fc",38,2
"4034",1,0,345,4,1,3,"11fd9fc",39,2
"4147",1,1,328,5,5,3,"11fd9fc",40,2
"4236",0,0,385,4,4,3,"11fd9fc",41,2
"4334",1,1,423,2,2,3,"11fd9fc",42,2
"4434",1,0,311,3,1,3,"11fd9fc",43,2
"4534",1,1,420,1,1,3,"11fd9fc",44,2
"4634",1,1,293,1,1,3,"11fd9fc",45,2
"4734",1,1,362,2,2,3,"11fd9fc",46,2
"4834",1,1,352,3,3,3,"11fd9fc",47,2
"4934",1,1,335,6,6,3,"11fd9fc",48,2
"5034",0,1,335,1,6,3,"11fd9fc",49,2
"5147",0,0,311,5,5,3,"11fd9fc",50,2
"5236",0,0,336,4,4,3,"11fd9fc",51,2
"5334",1,0,384,2,1,3,"11fd9fc",52,2
"5434",1,0,319,5,1,3,"11fd9fc",53,2
"5534",1,0,640,1,3,3,"11fd9fc",54,2
"5634",0,1,705,1,4,3,"11fd9fc",55,2
"5734",-1,-1,0,6,6,3,"11fd9fc",56,2
"5834",1,1,335,1,1,3,"11fd9fc",57,2
"5934",1,1,313,2,2,3,"11fd9fc",58,2
"6034",1,1,288,4,4,3,"11fd9fc",59,2
"6147",0,1,609,3,1,3,"11fd9fc",60,2
"6236",1,0,281,1,6,3,"11fd9fc",61,2
"6334",0,1,242,4,1,3,"11fd9fc",62,2
"6434",1,1,146,3,3,3,"11fd9fc",63,2
"6534",1,0,362,2,1,3,"11fd9fc",64,2
"6634",1,0,313,5,1,3,"11fd9fc",65,2
"6734",1,1,337,5,5,3,"11fd9fc",66,2
"6834",1,0,369,3,1,3,"11fd9fc",67,2
"6934",1,1,1399,2,2,3,"11fd9fc",68,2
"7034",0,1,313,1,2,3,"11fd9fc",69,2
"7138",1,1,312,4,4,3,"11fd9fc",70,2
"7235",1,1,312,1,1,3,"11fd9fc",71,2
"7334",1,0,265,5,1,3,"11fd9fc",72,2
"7434",1,0,295,1,4,3,"11fd9fc",73,2
"7534",0,0,391,6,6,3,"11fd9fc",74,2
"7634",1,1,353,3,3,3,"11fd9fc",75,2
"7734",1,1,242,5,5,3,"11fd9fc",76,2
"7834",0,1,301,1,6,3,"11fd9fc",77,2
"2148",0,0,363,5,5,1,"1be6c28",1,2
"3148",0,1,177,6,1,1,"1be6c28",2,2
"4148",1,1,380,2,2,1,"1be6c28",3,2
"5148",0,0,861,4,4,1,"1be6c28",4,2
"6148",1,0,315,1,2,1,"1be6c28",5,2
"7139",1,0,394,1,3,1,"1be6c28",6,2
"835",1,0,248,1,5,1,"1be6c28",7,2
"935",1,1,328,3,3,1,"1be6c28",8,2
"1035",1,1,542,1,1,1,"1be6c28",9,2
"1135",1,1,310,6,6,1,"1be6c28",10,2
"1235",0,1,402,4,1,1,"1be6c28",11,2
"1335",0,1,311,1,4,1,"1be6c28",12,2
"1435",1,1,446,2,2,1,"1be6c28",13,2
"1535",1,1,1116,1,1,1,"1be6c28",14,2
"1635",-1,0,361,4,4,1,"1be6c28",15,2
"1735",-1,0,436,5,5,1,"1be6c28",16,2
"1835",-1,0,791,1,5,1,"1be6c28",17,2
"1935",-1,0,335,2,1,1,"1be6c28",18,2
"2035",-1,0,135,1,6,1,"1be6c28",19,2
"2149",-1,0,163,3,3,1,"1be6c28",20,2
"2237",-1,0,326,6,6,1,"1be6c28",21,2
"2335",-1,0,297,1,3,1,"1be6c28",22,2
"2435",-1,0,270,5,1,1,"1be6c28",23,2
"2535",-1,0,283,2,1,1,"1be6c28",24,2
"2635",-1,0,278,6,6,1,"1be6c28",25,2
"2735",-1,0,256,4,1,1,"1be6c28",26,2
"2835",-1,0,288,6,1,1,"1be6c28",27,2
"2935",-1,0,321,3,3,1,"1be6c28",28,2
"3035",-1,0,487,1,1,1,"1be6c28",29,2
"3149",-1,0,274,2,2,1,"1be6c28",30,2
"3237",-1,0,266,3,1,1,"1be6c28",31,2
"3335",-1,0,239,4,4,1,"1be6c28",32,2
"3435",-1,0,390,5,5,1,"1be6c28",33,2
"3535",-1,0,282,2,1,1,"1be6c28",34,2
"3635",-1,0,412,6,6,1,"1be6c28",35,2
"3735",-1,0,611,1,5,1,"1be6c28",36,2
"3835",-1,0,380,1,1,1,"1be6c28",37,2
"3935",-1,0,495,6,1,1,"1be6c28",38,2
"4035",-1,0,324,5,5,1,"1be6c28",39,2
"4149",-1,0,278,1,4,1,"1be6c28",40,2
"4237",-1,0,368,3,3,1,"1be6c28",41,2
"4335",-1,0,506,4,4,1,"1be6c28",42,2
"4435",-1,0,405,2,2,1,"1be6c28",43,2
"4535",-1,0,25,1,3,1,"1be6c28",44,2
"4635",-1,0,283,1,2,1,"1be6c28",45,2
"4735",-1,0,539,3,3,1,"1be6c28",46,2
"4835",-1,0,294,6,1,1,"1be6c28",47,2
"4935",-1,0,305,4,4,1,"1be6c28",48,2
"5035",-1,0,740,4,1,1,"1be6c28",49,2
"5149",-1,0,573,5,5,1,"1be6c28",50,2
"5237",-1,0,1081,1,1,1,"1be6c28",51,2
"5335",-1,0,378,3,1,1,"1be6c28",52,2
"5435",-1,0,228,5,1,1,"1be6c28",53,2
"5535",-1,0,476,2,2,1,"1be6c28",54,2
"5635",-1,0,818,6,6,1,"1be6c28",55,2
"5735",-1,0,192,1,1,1,"1be6c28",56,2
"5835",-1,0,80,5,1,1,"1be6c28",57,2
"5935",-1,0,902,4,1,1,"1be6c28",58,2
"6035",0,1,480,6,1,1,"1be6c28",59,2
"6149",1,1,293,6,6,1,"1be6c28",60,2
"6237",1,1,357,2,2,1,"1be6c28",61,2
"6335",1,0,235,2,1,1,"1be6c28",62,2
"6435",0,1,462,1,3,1,"1be6c28",63,2
"6535",1,1,393,5,5,1,"1be6c28",64,2
"6635",1,1,312,3,3,1,"1be6c28",65,2
"6735",1,1,388,4,4,1,"1be6c28",66,2
"6835",1,1,269,3,3,1,"1be6c28",67,2
"6935",1,1,321,2,2,1,"1be6c28",68,2
"7035",0,1,282,1,3,1,"1be6c28",69,2
"7140",1,1,354,5,5,1,"1be6c28",70,2
"7236",0,1,303,4,1,1,"1be6c28",71,2
"7335",1,1,485,6,6,1,"1be6c28",72,2
"7435",0,1,270,6,1,1,"1be6c28",73,2
"7535",1,1,399,4,4,1,"1be6c28",74,2
"7635",0,1,953,1,5,1,"1be6c28",75,2
"7735",1,0,442,2,1,1,"1be6c28",76,2
"7835",1,1,431,1,1,1,"1be6c28",77,2
"2150",1,1,436,6,6,3,"10dc201",1,2
"3150",0,1,1186,4,1,3,"10dc201",2,2
"4150",0,1,337,1,3,3,"10dc201",3,2
"5150",1,1,494,4,4,3,"10dc201",4,2
"6150",1,0,304,2,1,3,"10dc201",5,2
"7141",1,1,1500,2,2,3,"10dc201",6,2
"836",0,1,144,5,1,3,"10dc201",7,2
"936",1,1,291,5,5,3,"10dc201",8,2
"1036",0,0,326,1,1,3,"10dc201",9,2
"1136",0,0,306,3,3,3,"10dc201",10,2
"1236",0,1,301,6,1,3,"10dc201",11,2
"1336",1,0,400,2,1,3,"10dc201",12,2
"1436",0,0,970,2,2,3,"10dc201",13,2
"1536",1,1,381,6,6,3,"10dc201",14,2
"1636",0,1,591,1,5,3,"10dc201",15,2
"1736",1,1,459,4,4,3,"10dc201",16,2
"1836",1,1,604,5,5,3,"10dc201",17,2
"1936",0,1,672,1,3,3,"10dc201",18,2
"2036",1,1,466,3,3,3,"10dc201",19,2
"2151",0,1,325,6,1,3,"10dc201",20,2
"2238",1,1,658,1,1,3,"10dc201",21,2
"2336",0,1,452,1,4,3,"10dc201",22,2
"2436",0,1,407,1,6,3,"10dc201",23,2
"2536",1,1,570,1,1,3,"10dc201",24,2
"2636",1,1,549,3,3,3,"10dc201",25,2
"2736",1,1,650,2,2,3,"10dc201",26,2
"2836",1,1,1141,4,4,3,"10dc201",27,2
"2936",1,1,197,6,6,3,"10dc201",28,2
"3036",1,0,560,1,2,3,"10dc201",29,2
"3151",0,1,210,4,1,3,"10dc201",30,2
"3238",1,1,300,5,5,3,"10dc201",31,2
"3336",0,1,393,5,1,3,"10dc201",32,2
"3436",0,1,147,3,1,3,"10dc201",33,2
"3536",1,1,343,3,3,3,"10dc201",34,2
"3636",0,1,154,1,3,3,"10dc201",35,2
