"","keys","accuracy","rt","Fimg","Simg","feature_index","subID","trialNum","run"
"2",1,1,502,3,3,3,"1464f8d",1,1
"3",1,1,411,4,4,3,"1464f8d",2,1
"4",1,1,476,6,6,3,"1464f8d",3,1
"5",1,0,370,1,2,3,"1464f8d",4,1
"6",1,1,251,1,1,3,"1464f8d",5,1
"7",-1,-1,0,3,1,3,"1464f8d",6,1
"8",-1,-1,0,6,1,3,"1464f8d",7,1
"9",0,1,269,1,5,3,"1464f8d",8,1
"10",1,1,4,5,5,3,"1464f8d",9,1
"11",1,0,233,4,1,3,"1464f8d",10,1
"12",1,1,104,2,2,3,"1464f8d",11,1
"13",1,1,86,1,1,3,"1464f8d",12,1
"14",1,1,168,6,6,3,"1464f8d",13,1
"15",1,1,186,3,3,3,"1464f8d",14,1
"16",1,0,11,1,2,3,"1464f8d",15,1
"17",0,1,185,6,1,3,"1464f8d",16,1
"18",0,1,498,1,4,3,"1464f8d",17,1
"19",1,1,269,5,5,3,"1464f8d",18,1
"20",1,1,14,2,2,3,"1464f8d",19,1
"21",1,0,271,1,3,3,"1464f8d",20,1
"22",1,1,182,4,4,3,"1464f8d",21,1
"23",0,1,298,1,5,3,"1464f8d",22,1
"24",1,0,251,2,1,3,"1464f8d",23,1
"25",1,1,116,2,2,3,"1464f8d",24,1
"26",1,1,279,1,1,3,"1464f8d",25,1
"27",0,1,148,3,1,3,"1464f8d",26,1
"28",0,1,118,1,6,3,"1464f8d",27,1
"29",0,0,216,3,3,3,"1464f8d",28,1
"30",1,1,130,5,5,3,"1464f8d",29,1
"31",0,1,174,5,1,3,"1464f8d",30,1
"32",0,1,39,1,4,3,"1464f8d",31,1
"33",1,1,367,4,4,3,"1464f8d",32,1
"34",1,1,213,6,6,3,"1464f8d",33,1
"35",1,0,265,2,1,3,"1464f8d",34,1
"36",1,1,144,2,2,3,"1464f8d",35,1
"37",1,1,100,5,5,3,"1464f8d",36,1
"38",0,1,377,1,4,3,"1464f8d",37,1
"39",0,1,271,3,1,3,"1464f8d",38,1
"40",1,1,325,4,4,3,"1464f8d",39,1
"41",1,1,210,3,3,3,"1464f8d",40,1
"42",0,1,115,1,6,3,"1464f8d",41,1
"43",1,1,91,6,6,3,"1464f8d",42,1
"44",0,1,53,5,1,3,"1464f8d",43,1
"45",1,1,560,1,1,3,"1464f8d",44,1
"46",0,1,124,1,2,3,"1464f8d",45,1
"47",1,1,7,4,4,3,"1464f8d",46,1
"48",1,1,116,2,2,3,"1464f8d",47,1
"49",0,1,466,1,6,3,"1464f8d",48,1
"50",0,1,317,5,1,3,"1464f8d",49,1
"51",1,1,123,6,6,3,"1464f8d",50,1
"52",1,1,273,1,1,3,"1464f8d",51,1
"53",1,1,107,3,3,3,"1464f8d",52,1
"54",0,1,163,3,1,3,"1464f8d",53,1
"55",0,1,132,4,1,3,"1464f8d",54,1
"56",1,1,83,5,5,3,"1464f8d",55,1
"57",0,1,525,3,1,3,"1464f8d",56,1
"58",1,1,179,5,5,3,"1464f8d",57,1
"59",0,1,154,1,6,3,"1464f8d",58,1
"60",1,1,359,4,4,3,"1464f8d",59,1
"61",1,1,470,1,1,3,"1464f8d",60,1
"62",1,1,214,3,3,3,"1464f8d",61,1
"63",1,0,154,1,2,3,"1464f8d",62,1
"64",0,1,421,1,5,3,"1464f8d",63,1
"65",1,1,114,6,6,3,"1464f8d",64,1
"66",0,1,235,4,1,3,"1464f8d",65,1
"67",1,1,47,2,2,3,"1464f8d",66,1
"68",1,1,53,6,6,3,"1464f8d",67,1
"69",1,1,530,1,1,3,"1464f8d",68,1
"70",0,1,326,1,4,3,"1464f8d",69,1
"71",1,1,133,3,3,3,"1464f8d",70,1
"72",1,1,375,4,4,3,"1464f8d",71,1
"73",0,1,401,6,1,3,"1464f8d",72,1
"74",1,1,292,2,2,3,"1464f8d",73,1
"75",1,0,104,2,1,3,"1464f8d",74,1
"76",0,1,213,1,3,3,"1464f8d",75,1
"77",1,1,290,5,5,3,"1464f8d",76,1
"78",0,1,147,1,5,3,"1464f8d",77,1
"210",1,1,427,3,3,1,"19213d8",1,1
"310",1,1,320,1,1,1,"19213d8",2,1
"410",1,1,135,6,6,1,"19213d8",3,1
"510",1,0,268,1,2,1,"19213d8",4,1
"610",1,1,277,5,5,1,"19213d8",5,1
"79",0,1,333,1,4,1,"19213d8",6,1
"81",1,1,397,4,4,1,"19213d8",7,1
"91",0,1,186,1,5,1,"19213d8",8,1
"101",1,0,10,1,3,1,"19213d8",9,1
"111",1,0,732,1,6,1,"19213d8",10,1
"121",1,1,350,2,2,1,"19213d8",11,1
"131",1,1,166,1,1,1,"19213d8",12,1
"141",0,1,725,1,2,1,"19213d8",13,1
"151",0,1,296,1,6,1,"19213d8",14,1
"161",1,0,356,3,1,1,"19213d8",15,1
"171",1,1,155,6,6,1,"19213d8",16,1
"181",0,0,318,5,5,1,"19213d8",17,1
"191",1,1,416,4,4,1,"19213d8",18,1
"201",1,1,366,2,2,1,"19213d8",19,1
"211",1,0,445,4,1,1,"19213d8",20,1
"221",1,0,749,5,1,1,"19213d8",21,1
"231",1,1,418,3,3,1,"19213d8",22,1
"241",0,1,626,1,6,1,"19213d8",23,1
"251",0,0,307,2,2,1,"19213d8",24,1
"261",1,0,237,5,1,1,"19213d8",25,1
"271",1,0,1629,1,2,1,"19213d8",26,1
"281",0,1,1541,1,4,1,"19213d8",27,1
"291",1,0,1070,3,1,1,"19213d8",28,1
"301",1,1,647,1,1,1,"19213d8",29,1
"311",1,1,416,5,5,1,"19213d8",30,1
"321",1,1,520,4,4,1,"19213d8",31,1
"331",1,1,1398,3,3,1,"19213d8",32,1
"341",1,1,280,6,6,1,"19213d8",33,1
"351",0,1,1045,6,1,1,"19213d8",34,1
"361",0,1,279,4,1,1,"19213d8",35,1
"371",1,1,1741,1,1,1,"19213d8",36,1
"381",1,1,378,2,2,1,"19213d8",37,1
"391",1,1,1616,3,3,1,"19213d8",38,1
"401",1,0,808,3,1,1,"19213d8",39,1
"411",1,0,312,1,2,1,"19213d8",40,1
"421",1,1,277,6,6,1,"19213d8",41,1
"431",1,1,634,4,4,1,"19213d8",42,1
"441",1,1,479,5,5,1,"19213d8",43,1
"451",0,1,325,1,5,1,"19213d8",44,1
"461",1,1,624,4,4,1,"19213d8",45,1
"471",0,1,462,3,1,1,"19213d8",46,1
"481",0,1,638,6,1,1,"19213d8",47,1
"491",1,1,349,1,1,1,"19213d8",48,1
"501",0,1,423,2,1,1,"19213d8",49,1
"511",1,1,678,5,5,1,"19213d8",50,1
"521",1,1,326,6,6,1,"19213d8",51,1
"531",0,1,1401,1,4,1,"19213d8",52,1
"541",1,1,566,3,3,1,"19213d8",53,1
"551",0,1,528,1,5,1,"19213d8",54,1
"561",1,1,310,2,2,1,"19213d8",55,1
"571",0,1,587,5,1,1,"19213d8",56,1
"581",1,1,622,5,5,1,"19213d8",57,1
"591",1,1,335,6,6,1,"19213d8",58,1
"601",0,1,1012,1,3,1,"19213d8",59,1
"611",0,1,1325,1,6,1,"19213d8",60,1
"621",1,1,356,4,4,1,"19213d8",61,1
"631",0,1,81,4,1,1,"19213d8",62,1
"641",1,1,1234,2,2,1,"19213d8",63,1
"651",1,1,219,1,1,1,"19213d8",64,1
"661",1,1,486,3,3,1,"19213d8",65,1
"671",1,0,626,1,2,1,"19213d8",66,1
"681",0,1,185,1,3,1,"19213d8",67,1
"691",0,1,654,1,6,1,"19213d8",68,1
"701",1,1,434,3,3,1,"19213d8",69,1
"711",1,1,414,1,1,1,"19213d8",70,1
"721",1,1,369,6,6,1,"19213d8",71,1
"731",0,1,292,4,1,1,"19213d8",72,1
"741",0,1,295,5,1,1,"19213d8",73,1
"751",1,1,150,2,2,1,"19213d8",74,1
"761",1,0,357,1,2,1,"19213d8",75,1
"771",1,1,321,5,5,1,"19213d8",76,1
"781",1,1,246,4,4,1,"19213d8",77,1
"212",1,1,284,2,2,2,"1dc67ae",1,1
"312",1,1,268,4,4,2,"1dc67ae",2,1
"412",1,0,291,1,4,2,"1dc67ae",3,1
"512",1,0,277,5,1,2,"1dc67ae",4,1
"612",1,1,250,1,1,2,"1dc67ae",5,1
"710",1,1,259,5,5,2,"1dc67ae",6,1
"82",1,1,252,3,3,2,"1dc67ae",7,1
"92",1,0,247,1,3,2,"1dc67ae",8,1
"102",0,1,293,1,6,2,"1dc67ae",9,1
"112",1,0,277,1,2,2,"1dc67ae",10,1
"122",1,1,303,6,6,2,"1dc67ae",11,1
"132",0,1,303,3,1,2,"1dc67ae",12,1
"142",1,1,311,4,4,2,"1dc67ae",13,1
"152",0,1,306,6,1,2,"1dc67ae",14,1
"162",1,1,288,3,3,2,"1dc67ae",15,1
"172",1,1,277,6,6,2,"1dc67ae",16,1
"182",0,1,368,5,1,2,"1dc67ae",17,1
"192",0,1,334,1,4,2,"1dc67ae",18,1
"202",1,1,320,1,1,2,"1dc67ae",19,1
"213",0,1,343,1,2,2,"1dc67ae",20,1
"222",1,1,228,2,2,2,"1dc67ae",21,1
"232",0,0,289,5,5,2,"1dc67ae",22,1
"242",1,1,321,6,6,2,"1dc67ae",23,1
"252",1,1,386,3,3,2,"1dc67ae",24,1
"262",0,1,315,3,1,2,"1dc67ae",25,1
"272",1,1,295,4,4,2,"1dc67ae",26,1
"282",0,1,335,5,1,2,"1dc67ae",27,1
"292",0,1,380,1,4,2,"1dc67ae",28,1
"302",1,1,293,2,2,2,"1dc67ae",29,1
"313",0,1,299,1,6,2,"1dc67ae",30,1
"322",0,1,320,2,1,2,"1dc67ae",31,1
"332",1,1,430,5,5,2,"1dc67ae",32,1
"342",1,1,319,1,1,2,"1dc67ae",33,1
"352",1,1,308,3,3,2,"1dc67ae",34,1
"362",0,1,380,1,3,2,"1dc67ae",35,1
"372",1,1,360,4,4,2,"1dc67ae",36,1
"382",1,1,316,1,1,2,"1dc67ae",37,1
"392",0,1,392,1,4,2,"1dc67ae",38,1
"402",0,1,332,5,1,2,"1dc67ae",39,1
"413",1,1,324,6,6,2,"1dc67ae",40,1
"422",1,0,280,2,1,2,"1dc67ae",41,1
"432",0,1,322,1,6,2,"1dc67ae",42,1
"442",1,1,280,5,5,2,"1dc67ae",43,1
"452",1,1,320,2,2,2,"1dc67ae",44,1
"462",1,1,301,5,5,2,"1dc67ae",45,1
"472",1,1,359,6,6,2,"1dc67ae",46,1
"482",1,1,292,3,3,2,"1dc67ae",47,1
"492",0,1,337,4,1,2,"1dc67ae",48,1
"502",1,1,314,2,2,2,"1dc67ae",49,1
"513",0,1,330,5,1,2,"1dc67ae",50,1
"522",0,1,303,2,1,2,"1dc67ae",51,1
"532",1,1,345,4,4,2,"1dc67ae",52,1
"542",0,1,309,3,1,2,"1dc67ae",53,1
"552",0,1,300,6,1,2,"1dc67ae",54,1
"562",1,1,285,1,1,2,"1dc67ae",55,1
"572",0,1,286,1,5,2,"1dc67ae",56,1
"582",0,1,498,1,2,2,"1dc67ae",57,1
"592",0,1,295,4,1,2,"1dc67ae",58,1
"602",0,0,236,6,6,2,"1dc67ae",59,1
"613",0,1,372,6,1,2,"1dc67ae",60,1
"622",1,1,358,3,3,2,"1dc67ae",61,1
"632",0,0,319,4,4,2,"1dc67ae",62,1
"642",0,1,262,3,1,2,"1dc67ae",63,1
"652",1,1,144,1,1,2,"1dc67ae",64,1
"662",1,1,317,2,2,2,"1dc67ae",65,1
"672",1,1,306,5,5,2,"1dc67ae",66,1
"682",1,1,298,3,3,2,"1dc67ae",67,1
"692",1,1,411,4,4,2,"1dc67ae",68,1
"702",1,1,249,5,5,2,"1dc67ae",69,1
"712",0,1,287,1,6,2,"1dc67ae",70,1
"722",0,1,279,2,1,2,"1dc67ae",71,1
"732",0,1,298,1,3,2,"1dc67ae",72,1
"742",0,1,291,1,4,2,"1dc67ae",73,1
"752",0,0,328,6,6,2,"1dc67ae",74,1
"762",0,1,359,5,1,2,"1dc67ae",75,1
"772",1,1,311,2,2,2,"1dc67ae",76,1
"782",1,1,309,1,1,2,"1dc67ae",77,1
"214",1,0,900,4,1,1,"1a2832d",1,1
"314",1,0,578,1,3,1,"1a2832d",2,1
"414",0,0,541,6,6,1,"1a2832d",3,1
"514",1,1,356,3,3,1,"1a2832d",4,1
"614",0,0,449,2,2,1,"1a2832d",5,1
"713",0,1,522,1,6,1,"1a2832d",6,1
"83",0,0,406,4,4,1,"1a2832d",7,1
"93",1,1,332,1,1,1,"1a2832d",8,1
"103",0,1,494,5,1,1,"1a2832d",9,1
"113",1,1,376,5,5,1,"1a2832d",10,1
"123",1,0,417,2,1,1,"1a2832d",11,1
"133",1,1,302,1,1,1,"1a2832d",12,1
"143",1,0,356,2,1,1,"1a2832d",13,1
"153",1,1,385,4,4,1,"1a2832d",14,1
"163",0,1,458,1,5,1,"1a2832d",15,1
"173",1,0,246,1,6,1,"1a2832d",16,1
"183",1,1,257,5,5,1,"1a2832d",17,1
"193",0,1,315,3,1,1,"1a2832d",18,1
"203",1,1,322,3,3,1,"1a2832d",19,1
"215",0,1,300,1,4,1,"1a2832d",20,1
"223",1,1,361,6,6,1,"1a2832d",21,1
"233",1,1,489,2,2,1,"1a2832d",22,1
"243",1,1,365,6,6,1,"1a2832d",23,1
"253",1,1,331,2,2,1,"1a2832d",24,1
"263",1,1,243,3,3,1,"1a2832d",25,1
"273",1,1,305,4,4,1,"1a2832d",26,1
"283",0,1,268,3,1,1,"1a2832d",27,1
"293",1,0,321,2,1,1,"1a2832d",28,1
"303",0,1,52,6,1,1,"1a2832d",29,1
"315",1,1,672,1,1,1,"1a2832d",30,1
"323",1,1,350,5,5,1,"1a2832d",31,1
"333",0,1,747,5,1,1,"1a2832d",32,1
"343",0,1,735,1,4,1,"1a2832d",33,1
"353",0,0,1429,3,3,1,"1a2832d",34,1
"363",0,1,592,1,4,1,"1a2832d",35,1
"373",1,1,548,6,6,1,"1a2832d",36,1
"383",1,1,455,5,5,1,"1a2832d",37,1
"393",1,1,303,2,2,1,"1a2832d",38,1
"403",0,1,563,5,1,1,"1a2832d",39,1
"415",0,1,524,3,1,1,"1a2832d",40,1
"423",0,1,99,1,2,1,"1a2832d",41,1
"433",0,1,538,1,6,1,"1a2832d",42,1
"443",0,0,414,1,1,1,"1a2832d",43,1
"453",1,1,652,4,4,1,"1a2832d",44,1
"463",0,0,346,2,2,1,"1a2832d",45,1
"473",0,1,276,4,1,1,"1a2832d",46,1
"483",1,1,289,3,3,1,"1a2832d",47,1
"493",1,1,319,6,6,1,"1a2832d",48,1
"503",1,1,996,5,5,1,"1a2832d",49,1
"515",0,1,17,5,1,1,"1a2832d",50,1
"523",0,1,296,1,6,1,"1a2832d",51,1
"533",1,1,194,1,1,1,"1a2832d",52,1
"543",1,1,304,4,4,1,"1a2832d",53,1
"553",1,0,571,2,1,1,"1a2832d",54,1
"563",0,1,550,1,3,1,"1a2832d",55,1
"573",0,1,1680,2,1,1,"1a2832d",56,1
"583",1,1,1343,1,1,1,"1a2832d",57,1
"593",0,1,481,1,6,1,"1a2832d",58,1
"603",1,1,530,6,6,1,"1a2832d",59,1
"615",1,1,1011,2,2,1,"1a2832d",60,1
"623",1,1,726,5,5,1,"1a2832d",61,1
"633",1,1,564,4,4,1,"1a2832d",62,1
"643",0,1,552,4,1,1,"1a2832d",63,1
"653",0,1,604,1,5,1,"1a2832d",64,1
"663",0,1,595,3,1,1,"1a2832d",65,1
"673",1,1,375,3,3,1,"1a2832d",66,1
"683",0,1,560,1,4,1,"1a2832d",67,1
"693",1,1,481,4,4,1,"1a2832d",68,1
"703",1,1,415,6,6,1,"1a2832d",69,1
"714",1,1,72,3,3,1,"1a2832d",70,1
"723",1,1,328,2,2,1,"1a2832d",71,1
"733",1,1,131,1,1,1,"1a2832d",72,1
"743",0,1,101,1,5,1,"1a2832d",73,1
"753",0,1,153,6,1,1,"1a2832d",74,1
"763",1,1,214,5,5,1,"1a2832d",75,1
"773",0,1,263,1,3,1,"1a2832d",76,1
"783",0,1,337,2,1,1,"1a2832d",77,1
"216",0,1,395,1,5,1,"14abaf1",1,1
"316",1,1,1056,1,1,1,"14abaf1",2,1
"416",0,1,840,2,1,1,"14abaf1",3,1
"516",1,1,427,5,5,1,"14abaf1",4,1
"616",0,1,814,4,1,1,"14abaf1",5,1
"715",1,1,325,2,2,1,"14abaf1",6,1
"84",0,1,1279,3,1,1,"14abaf1",7,1
"94",1,1,347,6,6,1,"14abaf1",8,1
"104",1,1,449,4,4,1,"14abaf1",9,1
"114",1,1,338,3,3,1,"14abaf1",10,1
"124",0,1,335,6,1,1,"14abaf1",11,1
"134",1,1,186,3,3,1,"14abaf1",12,1
"144",0,1,243,1,3,1,"14abaf1",13,1
"154",1,1,225,6,6,1,"14abaf1",14,1
"164",1,1,274,4,4,1,"14abaf1",15,1
"174",1,1,305,5,5,1,"14abaf1",16,1
"184",0,1,177,6,1,1,"14abaf1",17,1
"194",1,1,270,2,2,1,"14abaf1",18,1
"204",0,1,215,1,5,1,"14abaf1",19,1
"217",0,1,281,4,1,1,"14abaf1",20,1
"224",0,1,373,1,2,1,"14abaf1",21,1
"234",1,1,376,1,1,1,"14abaf1",22,1
"244",0,1,461,5,1,1,"14abaf1",23,1
"254",1,1,48,2,2,1,"14abaf1",24,1
"264",1,1,586,6,6,1,"14abaf1",25,1
"274",0,1,149,1,2,1,"14abaf1",26,1
"284",1,1,304,5,5,1,"14abaf1",27,1
"294",1,1,1245,1,1,1,"14abaf1",28,1
"304",0,1,303,4,1,1,"14abaf1",29,1
"317",0,1,316,1,6,1,"14abaf1",30,1
"324",1,1,397,4,4,1,"14abaf1",31,1
"334",1,1,1545,3,3,1,"14abaf1",32,1
"344",0,1,336,3,1,1,"14abaf1",33,1
"354",0,1,733,3,1,1,"14abaf1",34,1
"364",0,1,174,1,6,1,"14abaf1",35,1
"374",1,1,430,1,1,1,"14abaf1",36,1
"384",1,1,344,6,6,1,"14abaf1",37,1
"394",0,1,218,5,1,1,"14abaf1",38,1
"404",1,1,366,4,4,1,"14abaf1",39,1
"417",1,1,107,5,5,1,"14abaf1",40,1
"424",1,1,355,3,3,1,"14abaf1",41,1
"434",1,0,438,2,1,1,"14abaf1",42,1
"444",0,1,395,1,4,1,"14abaf1",43,1
"454",1,1,326,2,2,1,"14abaf1",44,1
"464",0,1,922,2,1,1,"14abaf1",45,1
"474",1,1,291,3,3,1,"14abaf1",46,1
"484",0,1,360,4,1,1,"14abaf1",47,1
"494",1,1,376,6,6,1,"14abaf1",48,1
"504",1,1,207,4,4,1,"14abaf1",49,1
"517",1,1,351,2,2,1,"14abaf1",50,1
"524",0,1,321,3,1,1,"14abaf1",51,1
"534",1,1,330,5,5,1,"14abaf1",52,1
"544",0,1,310,6,1,1,"14abaf1",53,1
"554",1,1,796,1,1,1,"14abaf1",54,1
"564",0,1,669,1,5,1,"14abaf1",55,1
"574",1,1,484,3,3,1,"14abaf1",56,1
"584",1,1,229,5,5,1,"14abaf1",57,1
"594",0,1,147,5,1,1,"14abaf1",58,1
"604",0,1,136,1,3,1,"14abaf1",59,1
"617",0,1,138,6,1,1,"14abaf1",60,1
"624",0,1,222,4,1,1,"14abaf1",61,1
"634",1,1,370,1,1,1,"14abaf1",62,1
"644",1,1,330,4,4,1,"14abaf1",63,1
"654",1,1,290,2,2,1,"14abaf1",64,1
"664",1,1,247,6,6,1,"14abaf1",65,1
"674",0,1,115,2,1,1,"14abaf1",66,1
"684",0,1,341,1,5,1,"14abaf1",67,1
"694",1,1,378,5,5,1,"14abaf1",68,1
"704",0,1,203,1,3,1,"14abaf1",69,1
"716",1,1,342,1,1,1,"14abaf1",70,1
"724",1,1,54,3,3,1,"14abaf1",71,1
"734",1,1,292,4,4,1,"14abaf1",72,1
"744",1,1,61,6,6,1,"14abaf1",73,1
"754",0,1,790,2,1,1,"14abaf1",74,1
"764",1,1,428,2,2,1,"14abaf1",75,1
"774",0,1,165,6,1,1,"14abaf1",76,1
"784",0,1,225,4,1,1,"14abaf1",77,1
"218",0,0,538,5,5,2,"13c7ad0",1,1
"318",1,1,61,6,6,2,"13c7ad0",2,1
"418",0,1,39,1,5,2,"13c7ad0",3,1
"518",0,1,106,1,2,2,"13c7ad0",4,1
"618",0,1,5,1,3,2,"13c7ad0",5,1
"717",1,1,540,4,4,2,"13c7ad0",6,1
"85",1,1,414,2,2,2,"13c7ad0",7,1
"95",1,1,477,1,1,2,"13c7ad0",8,1
"105",0,1,465,6,1,2,"13c7ad0",9,1
"115",1,1,659,3,3,2,"13c7ad0",10,1
"125",0,1,54,4,1,2,"13c7ad0",11,1
"135",1,1,201,6,6,2,"13c7ad0",12,1
"145",0,1,359,1,6,2,"13c7ad0",13,1
"155",1,1,1214,4,4,2,"13c7ad0",14,1
"165",1,1,129,5,5,2,"13c7ad0",15,1
"175",1,0,342,1,2,2,"13c7ad0",16,1
"185",1,1,55,1,1,2,"13c7ad0",17,1
"195",1,1,216,3,3,2,"13c7ad0",18,1
"205",1,1,139,2,2,2,"13c7ad0",19,1
"219",1,0,33,3,1,2,"13c7ad0",20,1
"225",0,1,32,1,5,2,"13c7ad0",21,1
"235",0,1,221,4,1,2,"13c7ad0",22,1
"245",0,1,36,6,1,2,"13c7ad0",23,1
"255",1,1,101,6,6,2,"13c7ad0",24,1
"265",0,1,316,5,1,2,"13c7ad0",25,1
"275",0,1,83,1,3,2,"13c7ad0",26,1
"285",1,1,274,3,3,2,"13c7ad0",27,1
"295",1,0,136,2,1,2,"13c7ad0",28,1
"305",1,1,256,2,2,2,"13c7ad0",29,1
"319",0,1,75,4,1,2,"13c7ad0",30,1
"325",1,1,519,5,5,2,"13c7ad0",31,1
"335",1,1,174,4,4,2,"13c7ad0",32,1
"345",1,1,297,1,1,2,"13c7ad0",33,1
"355",0,1,59,4,1,2,"13c7ad0",34,1
"365",1,0,248,2,1,2,"13c7ad0",35,1
"375",0,1,84,6,1,2,"13c7ad0",36,1
"385",1,1,448,6,6,2,"13c7ad0",37,1
"395",0,1,92,3,1,2,"13c7ad0",38,1
"405",1,1,228,1,1,2,"13c7ad0",39,1
"419",1,1,420,4,4,2,"13c7ad0",40,1
"425",1,1,704,3,3,2,"13c7ad0",41,1
"435",0,1,150,5,1,2,"13c7ad0",42,1
"445",1,1,68,2,2,2,"13c7ad0",43,1
"455",1,1,59,5,5,2,"13c7ad0",44,1
"465",1,1,38,2,2,2,"13c7ad0",45,1
"475",1,1,65,5,5,2,"13c7ad0",46,1
"485",1,1,373,3,3,2,"13c7ad0",47,1
"495",1,1,1034,4,4,2,"13c7ad0",48,1
"505",0,1,1562,1,4,2,"13c7ad0",49,1
"519",0,1,441,1,2,2,"13c7ad0",50,1
"525",0,1,267,3,1,2,"13c7ad0",51,1
"535",1,1,224,1,1,2,"13c7ad0",52,1
"545",0,1,302,1,5,2,"13c7ad0",53,1
"555",0,1,45,6,1,2,"13c7ad0",54,1
"565",1,1,199,6,6,2,"13c7ad0",55,1
"575",0,1,404,1,5,2,"13c7ad0",56,1
"585",0,1,913,6,1,2,"13c7ad0",57,1
"595",0,1,826,1,4,2,"13c7ad0",58,1
"605",1,1,268,1,1,2,"13c7ad0",59,1
"619",0,1,14,1,3,2,"13c7ad0",60,1
"625",1,1,20,2,2,2,"13c7ad0",61,1
"635",1,1,446,3,3,2,"13c7ad0",62,1
"645",1,1,342,4,4,2,"13c7ad0",63,1
"655",1,1,177,5,5,2,"13c7ad0",64,1
"665",1,0,1387,2,1,2,"13c7ad0",65,1
"675",1,1,12,6,6,2,"13c7ad0",66,1
"685",0,1,456,5,1,2,"13c7ad0",67,1
"695",0,1,329,1,3,2,"13c7ad0",68,1
"705",1,1,491,4,4,2,"13c7ad0",69,1
"718",1,1,676,1,1,2,"13c7ad0",70,1
"725",0,1,432,4,1,2,"13c7ad0",71,1
"735",0,0,10,2,2,2,"13c7ad0",72,1
"745",1,1,413,6,6,2,"13c7ad0",73,1
"755",1,1,275,5,5,2,"13c7ad0",74,1
"765",1,1,255,3,3,2,"13c7ad0",75,1
"775",0,1,427,1,6,2,"13c7ad0",76,1
"785",0,1,396,2,1,2,"13c7ad0",77,1
"220",-1,-1,0,4,1,3,"1a09319",1,1
"320",0,0,249,6,6,3,"1a09319",2,1
"420",-1,-1,0,1,1,3,"1a09319",3,1
"520",1,0,499,1,5,3,"1a09319",4,1
"620",0,1,433,1,3,3,"1a09319",5,1
"719",1,1,281,3,3,3,"1a09319",6,1
"86",1,0,838,1,6,3,"1a09319",7,1
"96",0,0,517,4,4,3,"1a09319",8,1
"106",1,1,422,5,5,3,"1a09319",9,1
"116",0,1,586,1,2,3,"1a09319",10,1
"126",1,1,614,2,2,3,"1a09319",11,1
"136",1,1,689,2,2,3,"1a09319",12,1
"146",0,1,910,1,5,3,"1a09319",13,1
"156",0,1,524,1,4,3,"1a09319",14,1
"166",0,0,289,5,5,3,"1a09319",15,1
"176",1,1,287,1,1,3,"1a09319",16,1
"186",0,1,270,1,6,3,"1a09319",17,1
"196",1,1,417,4,4,3,"1a09319",18,1
"206",0,1,236,3,1,3,"1a09319",19,1
"2110",1,1,508,6,6,3,"1a09319",20,1
"226",0,0,358,3,3,3,"1a09319",21,1
"236",1,0,281,1,2,3,"1a09319",22,1
"246",0,0,246,6,6,3,"1a09319",23,1
"256",-1,-1,0,2,1,3,"1a09319",24,1
"266",-1,-1,0,3,3,3,"1a09319",25,1
"276",1,1,235,2,2,3,"1a09319",26,1
"286",0,0,197,4,4,3,"1a09319",27,1
"296",0,1,315,1,4,3,"1a09319",28,1
"306",1,1,1100,1,1,3,"1a09319",29,1
"3110",-1,-1,0,5,5,3,"1a09319",30,1
"326",0,1,308,1,3,3,"1a09319",31,1
"336",0,1,1488,1,5,3,"1a09319",32,1
"346",-1,-1,0,1,6,3,"1a09319",33,1
"356",1,1,237,5,5,3,"1a09319",34,1
"366",1,1,1972,6,6,3,"1a09319",35,1
"376",0,1,747,4,1,3,"1a09319",36,1
"386",1,0,369,3,1,3,"1a09319",37,1
"396",1,0,292,5,1,3,"1a09319",38,1
"406",1,1,282,2,2,3,"1a09319",39,1
"4110",0,0,319,1,1,3,"1a09319",40,1
"426",0,0,828,4,4,3,"1a09319",41,1
"436",1,0,440,1,6,3,"1a09319",42,1
"446",0,0,1755,3,3,3,"1a09319",43,1
"456",0,1,1948,1,2,3,"1a09319",44,1
"466",0,0,367,2,2,3,"1a09319",45,1
"476",1,0,398,1,6,3,"1a09319",46,1
"486",0,1,394,1,5,3,"1a09319",47,1
"496",0,0,333,1,1,3,"1a09319",48,1
"506",0,0,267,4,4,3,"1a09319",49,1
"5110",1,1,331,6,6,3,"1a09319",50,1
"526",0,1,1022,3,1,3,"1a09319",51,1
"536",1,1,215,5,5,3,"1a09319",52,1
"546",0,0,599,3,3,3,"1a09319",53,1
"556",1,0,917,4,1,3,"1a09319",54,1
"566",0,1,250,2,1,3,"1a09319",55,1
"576",1,0,311,1,5,3,"1a09319",56,1
"586",0,1,289,1,3,3,"1a09319",57,1
"596",1,1,292,5,5,3,"1a09319",58,1
"606",0,0,358,1,1,3,"1a09319",59,1
"6110",1,1,329,3,3,3,"1a09319",60,1
"626",0,0,408,4,4,3,"1a09319",61,1
"636",-1,-1,0,6,6,3,"1a09319",62,1
"646",-1,-1,0,1,4,3,"1a09319",63,1
"656",-1,-1,0,1,6,3,"1a09319",64,1
"666",1,1,661,2,2,3,"1a09319",65,1
"676",0,1,338,2,1,3,"1a09319",66,1
"686",1,0,324,1,2,3,"1a09319",67,1
"696",0,0,352,2,2,3,"1a09319",68,1
"706",1,1,234,3,3,3,"1a09319",69,1
"7110",0,1,265,6,1,3,"1a09319",70,1
"726",-1,-1,0,3,1,3,"1a09319",71,1
"736",0,1,1096,5,1,3,"1a09319",72,1
"746",1,1,317,5,5,3,"1a09319",73,1
"756",0,0,1203,4,4,3,"1a09319",74,1
"766",0,0,1679,1,1,3,"1a09319",75,1
"776",1,1,232,6,6,3,"1a09319",76,1
"786",0,1,1936,4,1,3,"1a09319",77,1
"227",1,0,1342,1,5,2,"1bf78ff",1,1
"327",1,0,792,3,1,2,"1bf78ff",2,1
"427",0,1,766,1,4,2,"1bf78ff",3,1
"527",1,1,536,5,5,2,"1bf78ff",4,1
"627",1,1,676,6,6,2,"1bf78ff",5,1
"720",1,1,792,3,3,2,"1bf78ff",6,1
"87",1,0,577,6,1,2,"1bf78ff",7,1
"97",0,0,548,4,4,2,"1bf78ff",8,1
"107",1,1,837,2,2,2,"1bf78ff",9,1
"117",0,1,502,2,1,2,"1bf78ff",10,1
"127",1,1,540,1,1,2,"1bf78ff",11,1
"137",1,1,591,3,3,2,"1bf78ff",12,1
"147",1,1,778,4,4,2,"1bf78ff",13,1
"157",1,1,650,6,6,2,"1bf78ff",14,1
"167",1,1,543,5,5,2,"1bf78ff",15,1
"177",1,1,427,2,2,2,"1bf78ff",16,1
"187",0,1,497,1,4,2,"1bf78ff",17,1
"197",1,0,533,1,3,2,"1bf78ff",18,1
"207",1,0,439,2,1,2,"1bf78ff",19,1
"2111",0,1,452,1,6,2,"1bf78ff",20,1
"228",1,0,633,5,1,2,"1bf78ff",21,1
"237",1,1,354,1,1,2,"1bf78ff",22,1
"247",1,0,587,1,4,2,"1bf78ff",23,1
"257",1,1,784,4,4,2,"1bf78ff",24,1
"267",0,1,560,3,1,2,"1bf78ff",25,1
"277",1,1,669,5,5,2,"1bf78ff",26,1
"287",0,1,692,2,1,2,"1bf78ff",27,1
"297",1,1,605,6,6,2,"1bf78ff",28,1
"307",1,1,706,3,3,2,"1bf78ff",29,1
"3111",1,1,548,1,1,2,"1bf78ff",30,1
"328",1,0,672,6,1,2,"1bf78ff",31,1
"337",1,0,829,1,5,2,"1bf78ff",32,1
"347",-1,-1,0,2,2,2,"1bf78ff",33,1
"357",1,1,490,5,5,2,"1bf78ff",34,1
"367",0,1,771,2,1,2,"1bf78ff",35,1
"377",0,1,489,1,4,2,"1bf78ff",36,1
"387",1,1,478,2,2,2,"1bf78ff",37,1
"397",0,1,1103,1,3,2,"1bf78ff",38,1
"407",1,1,630,3,3,2,"1bf78ff",39,1
"4111",1,1,505,4,4,2,"1bf78ff",40,1
"428",0,0,517,6,6,2,"1bf78ff",41,1
"437",1,1,478,1,1,2,"1bf78ff",42,1
"447",0,1,910,5,1,2,"1bf78ff",43,1
"457",0,1,945,6,1,2,"1bf78ff",44,1
"467",0,1,847,3,1,2,"1bf78ff",45,1
"477",0,0,642,2,2,2,"1bf78ff",46,1
"487",1,0,643,1,2,2,"1bf78ff",47,1
"497",1,1,619,6,6,2,"1bf78ff",48,1
"507",1,1,536,1,1,2,"1bf78ff",49,1
"5111",1,1,568,4,4,2,"1bf78ff",50,1
"528",1,1,530,5,5,2,"1bf78ff",51,1
"537",0,1,539,1,4,2,"1bf78ff",52,1
"547",1,1,563,3,3,2,"1bf78ff",53,1
"557",0,1,639,5,1,2,"1bf78ff",54,1
"567",0,1,640,6,1,2,"1bf78ff",55,1
"577",0,1,566,1,5,2,"1bf78ff",56,1
"587",0,1,585,4,1,2,"1bf78ff",57,1
"597",1,1,835,4,4,2,"1bf78ff",58,1
"607",0,1,522,6,1,2,"1bf78ff",59,1
"6111",1,1,831,1,1,2,"1bf78ff",60,1
"628",0,0,308,3,3,2,"1bf78ff",61,1
"637",1,1,597,2,2,2,"1bf78ff",62,1
"647",1,0,516,1,3,2,"1bf78ff",63,1
"657",1,0,763,1,2,2,"1bf78ff",64,1
"667",0,0,948,6,6,2,"1bf78ff",65,1
"677",1,1,436,5,5,2,"1bf78ff",66,1
"687",1,0,427,1,3,2,"1bf78ff",67,1
"697",1,1,574,5,5,2,"1bf78ff",68,1
"707",0,1,557,6,1,2,"1bf78ff",69,1
"7111",1,1,388,3,3,2,"1bf78ff",70,1
"727",1,1,537,4,4,2,"1bf78ff",71,1
"737",1,0,547,1,4,2,"1bf78ff",72,1
"747",0,1,614,5,1,2,"1bf78ff",73,1
"757",1,1,472,2,2,2,"1bf78ff",74,1
"767",1,1,689,1,1,2,"1bf78ff",75,1
"777",1,1,537,6,6,2,"1bf78ff",76,1
"787",1,0,629,1,2,2,"1bf78ff",77,1
"229",1,1,743,2,2,1,"126ea43",1,1
"329",1,1,466,5,5,1,"126ea43",2,1
"429",1,1,480,4,4,1,"126ea43",3,1
"529",1,1,307,6,6,1,"126ea43",4,1
"629",1,0,333,3,1,1,"126ea43",5,1
"728",1,0,275,1,2,1,"126ea43",6,1
"88",1,1,213,1,1,1,"126ea43",7,1
"98",1,1,246,3,3,1,"126ea43",8,1
"108",1,0,58,5,1,1,"126ea43",9,1
"118",1,0,308,4,1,1,"126ea43",10,1
"128",0,1,325,6,1,1,"126ea43",11,1
"138",1,1,238,4,4,1,"126ea43",12,1
"148",0,1,258,1,3,1,"126ea43",13,1
"158",0,1,257,1,2,1,"126ea43",14,1
"168",1,1,235,6,6,1,"126ea43",15,1
"178",0,1,295,4,1,1,"126ea43",16,1
"188",0,1,278,1,5,1,"126ea43",17,1
"198",1,1,248,1,1,1,"126ea43",18,1
"208",0,1,143,6,1,1,"126ea43",19,1
"2112",1,1,326,5,5,1,"126ea43",20,1
"2210",1,1,233,3,3,1,"126ea43",21,1
"238",1,1,114,2,2,1,"126ea43",22,1
"248",0,1,300,1,5,1,"126ea43",23,1
"258",1,1,353,5,5,1,"126ea43",24,1
"268",1,1,354,3,3,1,"126ea43",25,1
"278",1,1,229,2,2,1,"126ea43",26,1
"288",1,1,275,1,1,1,"126ea43",27,1
"298",0,1,298,4,1,1,"126ea43",28,1
"308",1,1,576,6,6,1,"126ea43",29,1
"3112",1,1,531,4,4,1,"126ea43",30,1
"3210",0,1,302,1,2,1,"126ea43",31,1
"338",0,1,478,3,1,1,"126ea43",32,1
"348",0,1,257,6,1,1,"126ea43",33,1
"358",1,1,358,5,5,1,"126ea43",34,1
"368",0,1,240,1,3,1,"126ea43",35,1
"378",1,1,280,3,3,1,"126ea43",36,1
"388",0,1,284,1,6,1,"126ea43",37,1
"398",0,1,313,4,1,1,"126ea43",38,1
"408",1,1,566,4,4,1,"126ea43",39,1
"4112",1,1,225,1,1,1,"126ea43",40,1
"4210",0,1,448,1,2,1,"126ea43",41,1
"438",0,1,380,1,5,1,"126ea43",42,1
"448",1,1,403,6,6,1,"126ea43",43,1
"458",1,1,214,2,2,1,"126ea43",44,1
"468",1,0,270,2,1,1,"126ea43",45,1
"478",1,1,264,6,6,1,"126ea43",46,1
"488",1,1,26,3,3,1,"126ea43",47,1
"498",0,1,301,1,5,1,"126ea43",48,1
"508",1,0,63,3,1,1,"126ea43",49,1
"5112",0,1,285,4,1,1,"126ea43",50,1
"5210",1,1,246,1,1,1,"126ea43",51,1
"538",1,1,432,4,4,1,"126ea43",52,1
"548",1,1,265,5,5,1,"126ea43",53,1
"558",0,1,337,1,6,1,"126ea43",54,1
"568",1,1,116,2,2,1,"126ea43",55,1
"578",1,1,333,1,1,1,"126ea43",56,1
"588",1,1,794,6,6,1,"126ea43",57,1
"598",-1,-1,0,1,6,1,"126ea43",58,1
"608",0,1,538,1,3,1,"126ea43",59,1
"6112",0,1,263,1,5,1,"126ea43",60,1
"6210",1,1,824,4,4,1,"126ea43",61,1
"638",1,0,1421,2,1,1,"126ea43",62,1
"648",-1,-1,0,2,2,1,"126ea43",63,1
"658",0,1,400,1,4,1,"126ea43",64,1
"668",1,1,393,3,3,1,"126ea43",65,1
"678",1,1,395,5,5,1,"126ea43",66,1
"688",0,1,397,5,1,1,"126ea43",67,1
"698",0,1,29,1,3,1,"126ea43",68,1
"708",1,1,120,4,4,1,"126ea43",69,1
"7112",1,1,147,2,2,1,"126ea43",70,1
"729",0,1,823,6,1,1,"126ea43",71,1
"738",1,1,234,1,1,1,"126ea43",72,1
"748",1,1,169,5,5,1,"126ea43",73,1
"758",0,1,303,1,2,1,"126ea43",74,1
"768",0,1,113,4,1,1,"126ea43",75,1
"778",1,1,268,3,3,1,"126ea43",76,1
"788",1,1,172,6,6,1,"126ea43",77,1
"230",1,1,2005,1,1,3,"1ac3cc3",1,1
"330",1,1,115,6,6,3,"1ac3cc3",2,1
"430",1,0,478,1,6,3,"1ac3cc3",3,1
"530",0,0,470,3,3,3,"1ac3cc3",4,1
"630",1,1,357,4,4,3,"1ac3cc3",5,1
"730",1,0,333,3,1,3,"1ac3cc3",6,1
"89",0,0,133,2,2,3,"1ac3cc3",7,1
"99",0,1,350,2,1,3,"1ac3cc3",8,1
"109",1,0,276,1,5,3,"1ac3cc3",9,1
"119",1,1,432,5,5,3,"1ac3cc3",10,1
"129",1,0,311,1,4,3,"1ac3cc3",11,1
"139",0,0,374,4,4,3,"1ac3cc3",12,1
"149",1,1,1271,1,1,3,"1ac3cc3",13,1
"159",1,1,572,2,2,3,"1ac3cc3",14,1
"169",1,1,547,3,3,3,"1ac3cc3",15,1
"179",0,1,542,1,3,3,"1ac3cc3",16,1
"189",1,0,364,4,1,3,"1ac3cc3",17,1
"199",1,0,893,6,1,3,"1ac3cc3",18,1
"209",1,1,626,5,5,3,"1ac3cc3",19,1
"2113",0,1,368,2,1,3,"1ac3cc3",20,1
"2211",1,0,89,5,1,3,"1ac3cc3",21,1
"239",0,0,362,6,6,3,"1ac3cc3",22,1
"249",1,1,1182,1,1,3,"1ac3cc3",23,1
"259",1,0,542,1,4,3,"1ac3cc3",24,1
"269",1,1,392,3,3,3,"1ac3cc3",25,1
"279",1,0,356,1,3,3,"1ac3cc3",26,1
"289",1,1,539,4,4,3,"1ac3cc3",27,1
"299",0,1,719,1,6,3,"1ac3cc3",28,1
"309",1,1,893,6,6,3,"1ac3cc3",29,1
"3113",1,0,338,2,1,3,"1ac3cc3",30,1
"3211",1,0,369,5,1,3,"1ac3cc3",31,1
"339",1,1,595,2,2,3,"1ac3cc3",32,1
"349",1,1,379,5,5,3,"1ac3cc3",33,1
"359",0,1,420,4,1,3,"1ac3cc3",34,1
"369",1,1,642,3,3,3,"1ac3cc3",35,1
"379",1,1,332,4,4,3,"1ac3cc3",36,1
"389",0,1,305,2,1,3,"1ac3cc3",37,1
"399",0,0,301,5,5,3,"1ac3cc3",38,1
"409",1,1,599,2,2,3,"1ac3cc3",39,1
"4113",1,1,434,1,1,3,"1ac3cc3",40,1
"4211",0,0,366,6,6,3,"1ac3cc3",41,1
"439",1,0,1100,1,3,3,"1ac3cc3",42,1
"449",1,0,1002,6,1,3,"1ac3cc3",43,1
"459",0,1,778,5,1,3,"1ac3cc3",44,1
"469",0,0,353,1,1,3,"1ac3cc3",45,1
"479",1,1,369,4,4,3,"1ac3cc3",46,1
"489",0,0,387,6,6,3,"1ac3cc3",47,1
"499",0,1,379,4,1,3,"1ac3cc3",48,1
"509",1,0,326,1,2,3,"1ac3cc3",49,1
"5113",1,0,740,1,3,3,"1ac3cc3",50,1
"5211",0,1,312,5,1,3,"1ac3cc3",51,1
"539",1,1,264,5,5,3,"1ac3cc3",52,1
"549",0,1,433,1,6,3,"1ac3cc3",53,1
"559",1,1,841,3,3,3,"1ac3cc3",54,1
"569",1,1,92,2,2,3,"1ac3cc3",55,1
"579",1,0,237,1,4,3,"1ac3cc3",56,1
"589",0,1,290,6,1,3,"1ac3cc3",57,1
"599",1,1,395,2,2,3,"1ac3cc3",58,1
"609",1,1,585,4,4,3,"1ac3cc3",59,1
"6113",1,1,379,1,1,3,"1ac3cc3",60,1
"6211",1,1,563,6,6,3,"1ac3cc3",61,1
"639",0,1,314,1,5,3,"1ac3cc3",62,1
"649",1,0,522,1,3,3,"1ac3cc3",63,1
"659",1,0,964,1,2,3,"1ac3cc3",64,1
"669",-1,-1,0,5,5,3,"1ac3cc3",65,1
"679",1,1,1323,3,3,3,"1ac3cc3",66,1
"689",0,1,557,3,1,3,"1ac3cc3",67,1
"699",1,1,399,1,1,3,"1ac3cc3",68,1
"709",1,1,437,3,3,3,"1ac3cc3",69,1
"7113",0,1,362,1,4,3,"1ac3cc3",70,1
"7210",0,0,330,6,6,3,"1ac3cc3",71,1
"739",0,0,365,2,2,3,"1ac3cc3",72,1
"749",0,1,426,1,6,3,"1ac3cc3",73,1
"759",0,1,463,5,1,3,"1ac3cc3",74,1
"769",0,0,282,5,5,3,"1ac3cc3",75,1
"779",1,0,306,1,2,3,"1ac3cc3",76,1
"789",1,1,435,4,4,3,"1ac3cc3",77,1
"240",1,1,601,4,4,1,"19151a7",1,1
"340",1,0,367,1,6,1,"19151a7",2,1
"440",1,0,545,1,4,1,"19151a7",3,1
"540",0,1,431,1,5,1,"19151a7",4,1
"640",1,0,367,1,2,1,"19151a7",5,1
"740",1,1,510,3,3,1,"19151a7",6,1
"810",0,1,407,1,3,1,"19151a7",7,1
"910",1,1,420,2,2,1,"19151a7",8,1
"1010",0,0,368,5,5,1,"19151a7",9,1
"1110",0,0,414,6,6,1,"19151a7",10,1
"1210",0,0,382,1,1,1,"19151a7",11,1
"1310",1,1,414,5,5,1,"19151a7",12,1
"1410",0,0,405,3,3,1,"19151a7",13,1
"1510",0,0,436,1,1,1,"19151a7",14,1
"1610",0,0,265,6,6,1,"19151a7",15,1
"1710",-1,-1,0,2,2,1,"19151a7",16,1
"1810",1,0,238,6,1,1,"19151a7",17,1
"1910",0,1,272,2,1,1,"19151a7",18,1
"2010",0,1,301,5,1,1,"19151a7",19,1
"2114",1,1,283,4,4,1,"19151a7",20,1
"2212",0,1,396,3,1,1,"19151a7",21,1
"2310",0,1,605,1,4,1,"19151a7",22,1
"2410",0,0,322,3,3,1,"19151a7",23,1
"2510",1,1,335,2,2,1,"19151a7",24,1
"2610",1,0,296,1,2,1,"19151a7",25,1
"2710",0,1,276,1,5,1,"19151a7",26,1
"2810",1,1,241,5,5,1,"19151a7",27,1
"2910",0,1,555,3,1,1,"19151a7",28,1
"3010",0,1,284,1,4,1,"19151a7",29,1
"3114",1,1,276,4,4,1,"19151a7",30,1
"3212",1,1,419,1,1,1,"19151a7",31,1
"3310",0,1,243,1,6,1,"19151a7",32,1
"3410",1,1,345,6,6,1,"19151a7",33,1
"3510",1,1,386,4,4,1,"19151a7",34,1
"3610",1,1,247,1,1,1,"19151a7",35,1
"3710",1,1,258,5,5,1,"19151a7",36,1
"3810",0,1,424,1,6,1,"19151a7",37,1
"3910",0,1,290,1,4,1,"19151a7",38,1
"4010",1,0,660,2,1,1,"19151a7",39,1
"4114",0,1,357,5,1,1,"19151a7",40,1
"4212",0,1,282,1,3,1,"19151a7",41,1
"4310",1,1,90,2,2,1,"19151a7",42,1
"4410",1,1,831,6,6,1,"19151a7",43,1
"4510",1,1,254,3,3,1,"19151a7",44,1
"4610",1,1,431,3,3,1,"19151a7",45,1
"4710",0,1,300,1,4,1,"19151a7",46,1
"4810",0,1,471,1,6,1,"19151a7",47,1
"4910",1,1,406,6,6,1,"19151a7",48,1
"5010",1,0,435,1,2,1,"19151a7",49,1
"5114",0,1,382,1,5,1,"19151a7",50,1
"5212",0,1,336,1,3,1,"19151a7",51,1
"5310",1,1,268,2,2,1,"19151a7",52,1
"5410",1,1,263,5,5,1,"19151a7",53,1
"5510",1,1,453,1,1,1,"19151a7",54,1
"5610",1,1,266,4,4,1,"19151a7",55,1
"5710",1,1,362,5,5,1,"19151a7",56,1
"5810",0,1,321,6,1,1,"19151a7",57,1
"5910",1,1,345,3,3,1,"19151a7",58,1
"6010",1,1,329,1,1,1,"19151a7",59,1
"6114",1,1,435,6,6,1,"19151a7",60,1
"6212",0,1,269,1,5,1,"19151a7",61,1
"6310",1,1,253,4,4,1,"19151a7",62,1
"6410",1,1,238,2,2,1,"19151a7",63,1
"6510",0,1,339,4,1,1,"19151a7",64,1
"6610",0,1,261,3,1,1,"19151a7",65,1
"6710",1,0,799,1,2,1,"19151a7",66,1
"6810",0,1,317,2,1,1,"19151a7",67,1
"6910",1,1,256,2,2,1,"19151a7",68,1
"7010",0,1,279,5,1,1,"19151a7",69,1
"7114",0,1,630,1,4,1,"19151a7",70,1
"7211",0,1,359,3,1,1,"19151a7",71,1
"7310",0,1,274,6,1,1,"19151a7",72,1
"7410",1,1,250,4,4,1,"19151a7",73,1
"7510",1,1,294,1,1,1,"19151a7",74,1
"7610",1,1,361,6,6,1,"19151a7",75,1
"7710",1,1,279,3,3,1,"19151a7",76,1
"7810",-1,0,360,5,5,1,"19151a7",77,1
"250",1,1,389,5,5,3,"1637291",1,1
"350",1,0,430,6,1,3,"1637291",2,1
"450",0,1,396,2,1,3,"1637291",3,1
"550",0,0,258,2,2,3,"1637291",4,1
"650",1,0,241,3,1,3,"1637291",5,1
"750",0,1,280,4,1,3,"1637291",6,1
"811",1,1,202,4,4,3,"1637291",7,1
"911",1,1,347,6,6,3,"1637291",8,1
"1011",1,0,246,5,1,3,"1637291",9,1
"1111",1,1,509,3,3,3,"1637291",10,1
"1211",0,0,367,1,1,3,"1637291",11,1
"1311",0,1,455,6,1,3,"1637291",12,1
"1411",0,0,198,6,6,3,"1637291",13,1
"1511",1,1,288,1,1,3,"1637291",14,1
"1611",0,1,426,1,3,3,"1637291",15,1
"1711",1,0,353,5,1,3,"1637291",16,1
"1811",0,1,586,1,2,3,"1637291",17,1
"1911",1,1,385,5,5,3,"1637291",18,1
"2011",0,0,595,2,2,3,"1637291",19,1
"2115",1,1,734,4,4,3,"1637291",20,1
"2213",0,0,740,3,3,3,"1637291",21,1
"2311",1,0,600,1,4,3,"1637291",22,1
"2411",0,0,279,5,5,3,"1637291",23,1
"2511",0,1,235,1,5,3,"1637291",24,1
"2611",1,0,248,3,1,3,"1637291",25,1
"2711",0,0,298,6,6,3,"1637291",26,1
"2811",0,1,213,6,1,3,"1637291",27,1
"2911",1,1,57,1,1,3,"1637291",28,1
"3011",1,1,220,4,4,3,"1637291",29,1
"3115",1,1,422,2,2,3,"1637291",30,1
"3213",1,0,789,1,4,3,"1637291",31,1
"3311",0,0,306,3,3,3,"1637291",32,1
"3411",0,1,268,1,2,3,"1637291",33,1
"3511",1,1,428,2,2,3,"1637291",34,1
"3611",1,1,300,3,3,3,"1637291",35,1
"3711",1,0,429,5,1,3,"1637291",36,1
"3811",0,0,257,1,1,3,"1637291",37,1
"3911",1,0,521,1,6,3,"1637291",38,1
"4011",1,0,572,1,3,3,"1637291",39,1
"4115",0,1,228,2,1,3,"1637291",40,1
"4213",1,1,215,5,5,3,"1637291",41,1
"4311",1,1,672,6,6,3,"1637291",42,1
"4411",0,1,218,4,1,3,"1637291",43,1
"4511",1,1,229,4,4,3,"1637291",44,1
"4611",1,0,350,1,3,3,"1637291",45,1
"4711",1,0,430,4,1,3,"1637291",46,1
"4811",0,0,219,6,6,3,"1637291",47,1
"4911",1,1,248,5,5,3,"1637291",48,1
"5011",0,1,531,6,1,3,"1637291",49,1
"5115",1,0,254,2,1,3,"1637291",50,1
"5213",0,0,651,1,1,3,"1637291",51,1
"5311",1,1,534,3,3,3,"1637291",52,1
"5411",1,1,368,2,2,3,"1637291",53,1
"5511",0,0,258,4,4,3,"1637291",54,1
"5611",0,1,229,5,1,3,"1637291",55,1
"5711",1,0,540,1,3,3,"1637291",56,1
"5811",0,0,347,2,2,3,"1637291",57,1
"5911",0,1,331,1,2,3,"1637291",58,1
"6011",1,0,355,1,6,3,"1637291",59,1
"6115",0,0,716,5,5,3,"1637291",60,1
"6213",0,1,1597,1,5,3,"1637291",61,1
"6311",1,0,663,1,4,3,"1637291",62,1
"6411",0,0,648,4,4,3,"1637291",63,1
"6511",1,1,469,1,1,3,"1637291",64,1
"6611",0,0,571,3,3,3,"1637291",65,1
"6711",1,1,514,6,6,3,"1637291",66,1
"6811",0,1,545,3,1,3,"1637291",67,1
"6911",0,0,232,1,1,3,"1637291",68,1
"7011",0,1,376,2,1,3,"1637291",69,1
"7115",1,1,591,5,5,3,"1637291",70,1
"7212",0,1,672,5,1,3,"1637291",71,1
"7311",0,0,653,4,4,3,"1637291",72,1
"7411",1,1,423,3,3,3,"1637291",73,1
"7511",1,0,621,4,1,3,"1637291",74,1
"7611",0,1,409,1,6,3,"1637291",75,1
"7711",1,1,549,2,2,3,"1637291",76,1
"7811",0,0,176,6,6,3,"1637291",77,1
"260",0,1,1823,5,1,2,"15424ba",1,1
"360",1,1,479,3,3,2,"15424ba",2,1
"460",1,1,458,5,5,2,"15424ba",3,1
"560",1,1,346,2,2,2,"15424ba",4,1
"660",1,0,349,4,1,2,"15424ba",5,1
"760",1,0,586,3,1,2,"15424ba",6,1
"812",1,1,359,6,6,2,"15424ba",7,1
"912",0,1,275,1,6,2,"15424ba",8,1
"1012",1,1,348,1,1,2,"15424ba",9,1
"1112",1,1,245,4,4,2,"15424ba",10,1
"1212",1,0,300,2,1,2,"15424ba",11,1
"1312",1,1,225,6,6,2,"15424ba",12,1
"1412",1,0,238,2,1,2,"15424ba",13,1
"1512",1,1,260,2,2,2,"15424ba",14,1
"1612",0,1,306,1,6,2,"15424ba",15,1
"1712",0,0,152,3,3,2,"15424ba",16,1
"1812",-1,-1,0,1,1,2,"15424ba",17,1
"1912",0,0,821,4,4,2,"15424ba",18,1
"2012",1,0,301,5,1,2,"15424ba",19,1
"2116",1,0,290,1,4,2,"15424ba",20,1
"2214",1,0,812,1,3,2,"15424ba",21,1
"2312",1,1,570,5,5,2,"15424ba",22,1
"2412",0,1,534,1,6,2,"15424ba",23,1
"2512",0,1,1282,1,4,2,"15424ba",24,1
"2612",0,1,390,5,1,2,"15424ba",25,1
"2712",1,1,206,6,6,2,"15424ba",26,1
"2812",0,1,261,3,1,2,"15424ba",27,1
"2912",1,1,308,3,3,2,"15424ba",28,1
"3012",1,1,744,4,4,2,"15424ba",29,1
"3116",1,1,1404,5,5,2,"15424ba",30,1
"3214",0,0,378,2,2,2,"15424ba",31,1
"3312",0,1,296,2,1,2,"15424ba",32,1
"3412",0,0,315,1,1,2,"15424ba",33,1
"3512",1,1,1484,2,2,2,"15424ba",34,1
"3612",-1,-1,0,6,1,2,"15424ba",35,1
"3712",0,0,512,3,3,2,"15424ba",36,1
"3812",1,1,280,5,5,2,"15424ba",37,1
"3912",1,0,1421,1,2,2,"15424ba",38,1
"4012",0,0,415,4,4,2,"15424ba",39,1
"4116",0,1,397,5,1,2,"15424ba",40,1
"4214",1,1,351,1,1,2,"15424ba",41,1
"4312",0,1,315,1,4,2,"15424ba",42,1
"4412",1,1,353,6,6,2,"15424ba",43,1
"4512",0,1,1633,3,1,2,"15424ba",44,1
"4612",1,1,312,6,6,2,"15424ba",45,1
"4712",1,1,619,3,3,2,"15424ba",46,1
"4812",1,1,554,5,5,2,"15424ba",47,1
"4912",0,1,374,1,5,2,"15424ba",48,1
"5012",0,0,1260,4,4,2,"15424ba",49,1
"5116",0,0,298,2,2,2,"15424ba",50,1
"5214",1,0,885,2,1,2,"15424ba",51,1
"5312",-1,-1,0,1,6,2,"15424ba",52,1
"5412",0,1,321,3,1,2,"15424ba",53,1
"5512",0,1,1005,1,4,2,"15424ba",54,1
"5612",0,0,355,1,1,2,"15424ba",55,1
"5712",1,1,490,6,6,2,"15424ba",56,1
"5812",1,1,596,3,3,2,"15424ba",57,1
"5912",1,1,571,2,2,2,"15424ba",58,1
"6012",0,1,505,1,3,2,"15424ba",59,1
"6116",0,0,408,1,1,2,"15424ba",60,1
"6214",1,1,827,4,4,2,"15424ba",61,1
"6312",1,0,296,2,1,2,"15424ba",62,1
"6412",0,1,937,6,1,2,"15424ba",63,1
"6512",-1,NA,NA,NA,NA,NA,"15424ba",64,1
"270",1,1,367,2,2,2,"1bd335b",1,1
"370",0,1,635,2,1,2,"1bd335b",2,1
"470",1,0,414,1,5,2,"1bd335b",3,1
"570",1,0,410,1,3,2,"1bd335b",4,1
"670",0,0,369,3,3,2,"1bd335b",5,1
"770",0,0,404,1,1,2,"1bd335b",6,1
"813",1,1,341,4,4,2,"1bd335b",7,1
"913",0,1,342,1,6,2,"1bd335b",8,1
"1013",1,1,419,5,5,2,"1bd335b",9,1
"1113",1,1,325,6,6,2,"1bd335b",10,1
"1213",0,1,336,4,1,2,"1bd335b",11,1
"1313",0,1,379,1,4,2,"1bd335b",12,1
"1413",0,1,344,1,3,2,"1bd335b",13,1
"1513",0,1,477,5,1,2,"1bd335b",14,1
"1613",0,1,363,1,6,2,"1bd335b",15,1
"1713",1,1,410,3,3,2,"1bd335b",16,1
"1813",1,1,742,5,5,2,"1bd335b",17,1
"1913",1,0,735,1,2,2,"1bd335b",18,1
"2013",1,1,347,4,4,2,"1bd335b",19,1
"2117",1,1,825,6,6,2,"1bd335b",20,1
"2215",1,1,310,2,2,2,"1bd335b",21,1
"2313",1,1,362,1,1,2,"1bd335b",22,1
"2413",0,1,76,6,1,2,"1bd335b",23,1
"2513",0,0,1777,6,6,2,"1bd335b",24,1
"2613",1,1,313,5,5,2,"1bd335b",25,1
"2713",1,1,693,3,3,2,"1bd335b",26,1
"2813",0,1,499,1,3,2,"1bd335b",27,1
"2913",1,1,264,4,4,2,"1bd335b",28,1
"3013",0,1,702,5,1,2,"1bd335b",29,1
"3117",1,1,1703,1,1,2,"1bd335b",30,1
"3215",1,1,370,2,2,2,"1bd335b",31,1
"3313",1,0,651,1,2,2,"1bd335b",32,1
"3413",0,1,806,1,4,2,"1bd335b",33,1
"3513",0,1,514,1,6,2,"1bd335b",34,1
"3613",1,1,423,6,6,2,"1bd335b",35,1
"3713",1,1,424,1,1,2,"1bd335b",36,1
"3813",0,1,380,2,1,2,"1bd335b",37,1
"3913",0,1,559,1,4,2,"1bd335b",38,1
"4013",1,1,617,5,5,2,"1bd335b",39,1
"4117",0,1,522,1,3,2,"1bd335b",40,1
"4215",1,1,75,2,2,2,"1bd335b",41,1
"4313",1,1,238,4,4,2,"1bd335b",42,1
"4413",0,1,210,5,1,2,"1bd335b",43,1
"4513",1,1,757,3,3,2,"1bd335b",44,1
"4613",0,1,1134,1,6,2,"1bd335b",45,1
"4713",1,1,370,6,6,2,"1bd335b",46,1
"4813",1,1,19,3,3,2,"1bd335b",47,1
"4913",1,1,449,4,4,2,"1bd335b",48,1
"5013",1,1,376,1,1,2,"1bd335b",49,1
"5117",1,1,359,2,2,2,"1bd335b",50,1
"5215",0,1,1060,1,4,2,"1bd335b",51,1
"5313",0,1,493,1,5,2,"1bd335b",52,1
"5413",1,1,439,5,5,2,"1bd335b",53,1
"5513",0,1,95,3,1,2,"1bd335b",54,1
"5613",1,0,340,2,1,2,"1bd335b",55,1
"5713",1,1,145,3,3,2,"1bd335b",56,1
"5813",0,1,1260,1,5,2,"1bd335b",57,1
"5913",1,1,446,5,5,2,"1bd335b",58,1
"6013",0,1,83,1,2,2,"1bd335b",59,1
"6117",1,1,346,4,4,2,"1bd335b",60,1
"6215",1,1,888,1,1,2,"1bd335b",61,1
"6313",0,1,120,6,1,2,"1bd335b",62,1
"6413",0,1,451,4,1,2,"1bd335b",63,1
"6513",1,1,1460,2,2,2,"1bd335b",64,1
"6612",1,1,775,6,6,2,"1bd335b",65,1
"6712",0,1,243,3,1,2,"1bd335b",66,1
"6812",1,1,510,4,4,2,"1bd335b",67,1
"6912",1,1,382,3,3,2,"1bd335b",68,1
"7012",0,1,407,5,1,2,"1bd335b",69,1
"7116",1,1,417,5,5,2,"1bd335b",70,1
"7213",1,1,347,6,6,2,"1bd335b",71,1
"7312",0,1,33,3,1,2,"1bd335b",72,1
"7412",0,1,955,1,6,2,"1bd335b",73,1
"7512",0,1,395,1,2,2,"1bd335b",74,1
"7612",1,1,181,2,2,2,"1bd335b",75,1
"7712",1,1,1477,1,1,2,"1bd335b",76,1
"7812",0,1,441,4,1,2,"1bd335b",77,1
"280",1,0,716,1,6,3,"1e696cf",1,1
"380",1,0,538,1,4,3,"1e696cf",2,1
"480",0,1,543,3,1,3,"1e696cf",3,1
"580",0,0,534,3,3,3,"1e696cf",4,1
"680",1,1,421,6,6,3,"1e696cf",5,1
"780",1,0,445,1,5,3,"1e696cf",6,1
"814",0,0,460,4,4,3,"1e696cf",7,1
"914",1,0,493,2,1,3,"1e696cf",8,1
"1014",1,1,365,2,2,3,"1e696cf",9,1
"1114",1,1,354,5,5,3,"1e696cf",10,1
"1214",1,1,502,1,1,3,"1e696cf",11,1
"1314",1,1,461,5,5,3,"1e696cf",12,1
"1414",1,1,346,2,2,3,"1e696cf",13,1
"1514",0,1,399,4,1,3,"1e696cf",14,1
"1614",1,1,412,3,3,3,"1e696cf",15,1
"1714",0,1,769,6,1,3,"1e696cf",16,1
"1814",0,1,356,1,2,3,"1e696cf",17,1
"1914",0,1,507,1,3,3,"1e696cf",18,1
"2014",1,1,463,4,4,3,"1e696cf",19,1
"2118",1,1,438,1,1,3,"1e696cf",20,1
"2216",0,1,517,5,1,3,"1e696cf",21,1
"2314",1,1,337,6,6,3,"1e696cf",22,1
"2414",1,1,357,2,2,3,"1e696cf",23,1
"2514",0,1,622,5,1,3,"1e696cf",24,1
"2614",1,1,474,6,6,3,"1e696cf",25,1
"2714",0,1,313,1,3,3,"1e696cf",26,1
"2814",0,1,344,4,1,3,"1e696cf",27,1
"2914",1,1,316,5,5,3,"1e696cf",28,1
"3014",1,1,460,4,4,3,"1e696cf",29,1
"3118",0,1,373,6,1,3,"1e696cf",30,1
"3216",1,1,539,1,1,3,"1e696cf",31,1
"3314",1,0,413,2,1,3,"1e696cf",32,1
"3414",1,1,415,3,3,3,"1e696cf",33,1
"3514",0,1,365,1,4,3,"1e696cf",34,1
"3614",0,1,354,1,5,3,"1e696cf",35,1
"3714",1,1,284,2,2,3,"1e696cf",36,1
"3814",1,1,419,6,6,3,"1e696cf",37,1
"3914",1,1,399,5,5,3,"1e696cf",38,1
"4014",0,1,554,1,3,3,"1e696cf",39,1
"4118",1,1,696,3,3,3,"1e696cf",40,1
"4216",0,1,420,2,1,3,"1e696cf",41,1
"4314",1,1,486,1,1,3,"1e696cf",42,1
"4414",1,1,492,4,4,3,"1e696cf",43,1
"4514",0,1,497,6,1,3,"1e696cf",44,1
"4614",0,1,426,5,1,3,"1e696cf",45,1
"4714",1,1,361,2,2,3,"1e696cf",46,1
"4814",1,1,692,3,3,3,"1e696cf",47,1
"4914",0,1,376,2,1,3,"1e696cf",48,1
"5014",1,1,473,4,4,3,"1e696cf",49,1
"5118",1,1,347,6,6,3,"1e696cf",50,1
"5216",1,1,459,1,1,3,"1e696cf",51,1
"5314",0,1,339,1,3,3,"1e696cf",52,1
"5414",0,1,462,1,4,3,"1e696cf",53,1
"5514",1,1,321,5,5,3,"1e696cf",54,1
"5614",0,1,366,1,6,3,"1e696cf",55,1
"5714",1,1,298,4,4,3,"1e696cf",56,1
"5814",1,1,488,6,6,3,"1e696cf",57,1
"5914",0,1,373,1,5,3,"1e696cf",58,1
"6014",0,1,561,6,1,3,"1e696cf",59,1
"6118",1,1,376,1,1,3,"1e696cf",60,1
"6216",0,1,359,1,4,3,"1e696cf",61,1
"6314",1,1,371,3,3,3,"1e696cf",62,1
"6414",1,0,320,1,2,3,"1e696cf",63,1
"6514",0,1,320,1,3,3,"1e696cf",64,1
"6613",1,1,387,2,2,3,"1e696cf",65,1
"6713",1,1,448,5,5,3,"1e696cf",66,1
"6813",0,1,373,1,5,3,"1e696cf",67,1
"6913",1,1,333,1,1,3,"1e696cf",68,1
"7013",0,1,445,1,6,3,"1e696cf",69,1
"7117",1,1,344,4,4,3,"1e696cf",70,1
"7214",1,1,330,3,3,3,"1e696cf",71,1
"7313",-1,-1,0,6,6,3,"1e696cf",72,1
"7413",0,1,451,2,1,3,"1e696cf",73,1
"7513",1,1,383,5,5,3,"1e696cf",74,1
"7613",0,1,376,1,3,3,"1e696cf",75,1
"7713",1,1,359,2,2,3,"1e696cf",76,1
"7813",0,1,407,1,4,3,"1e696cf",77,1
"290",1,1,845,3,3,2,"a9737e4",1,1
"390",1,1,323,1,1,2,"a9737e4",2,1
"490",1,1,49,2,2,2,"a9737e4",3,1
"590",1,1,343,5,5,2,"a9737e4",4,1
"690",0,1,380,4,1,2,"a9737e4",5,1
"790",0,1,579,1,6,2,"a9737e4",6,1
"815",0,1,328,3,1,2,"a9737e4",7,1
"915",1,1,447,6,6,2,"a9737e4",8,1
"1015",0,1,348,1,2,2,"a9737e4",9,1
"1115",1,1,394,4,4,2,"a9737e4",10,1
"1215",0,1,360,1,5,2,"a9737e4",11,1
"1315",0,1,358,1,4,2,"a9737e4",12,1
"1415",1,1,507,4,4,2,"a9737e4",13,1
"1515",1,1,433,6,6,2,"a9737e4",14,1
"1615",1,1,544,2,2,2,"a9737e4",15,1
"1715",0,1,334,6,1,2,"a9737e4",16,1
"1815",1,1,420,1,1,2,"a9737e4",17,1
"1915",1,0,545,2,1,2,"a9737e4",18,1
"2015",0,1,414,1,5,2,"a9737e4",19,1
"2119",1,1,365,3,3,2,"a9737e4",20,1
"2217",1,1,506,5,5,2,"a9737e4",21,1
"2315",0,1,496,1,3,2,"a9737e4",22,1
"2415",0,1,446,1,5,2,"a9737e4",23,1
"2515",1,1,556,3,3,2,"a9737e4",24,1
"2615",1,1,457,5,5,2,"a9737e4",25,1
"2715",0,1,271,1,6,2,"a9737e4",26,1
"2815",1,1,445,1,1,2,"a9737e4",27,1
"2915",1,0,347,1,3,2,"a9737e4",28,1
"3015",1,1,489,6,6,2,"a9737e4",29,1
"3119",1,1,687,4,4,2,"a9737e4",30,1
"3217",0,1,541,4,1,2,"a9737e4",31,1
"3315",1,0,491,2,1,2,"a9737e4",32,1
"3415",1,1,560,2,2,2,"a9737e4",33,1
"3515",0,1,494,1,6,2,"a9737e4",34,1
"3615",0,1,509,5,1,2,"a9737e4",35,1
"3715",0,1,522,3,1,2,"a9737e4",36,1
"3815",0,1,384,1,4,2,"a9737e4",37,1
"3915",1,1,494,4,4,2,"a9737e4",38,1
"4015",1,1,324,5,5,2,"a9737e4",39,1
"4119",1,1,506,6,6,2,"a9737e4",40,1
"4217",1,1,503,1,1,2,"a9737e4",41,1
"4315",1,1,541,2,2,2,"a9737e4",42,1
"4415",0,1,298,2,1,2,"a9737e4",43,1
"4515",1,1,457,3,3,2,"a9737e4",44,1
"4615",0,1,423,1,4,2,"a9737e4",45,1
"4715",0,1,308,3,1,2,"a9737e4",46,1
"4815",1,1,315,6,6,2,"a9737e4",47,1
"4915",1,1,496,2,2,2,"a9737e4",48,1
"5015",1,1,375,4,4,2,"a9737e4",49,1
"5119",1,1,468,3,3,2,"a9737e4",50,1
"5217",1,1,345,1,1,2,"a9737e4",51,1
"5315",1,1,520,5,5,2,"a9737e4",52,1
"5415",0,1,342,2,1,2,"a9737e4",53,1
"5515",0,1,508,5,1,2,"a9737e4",54,1
"5615",0,1,441,1,6,2,"a9737e4",55,1
"5715",0,1,367,1,2,2,"a9737e4",56,1
"5815",1,1,517,5,5,2,"a9737e4",57,1
"5915",1,1,411,2,2,2,"a9737e4",58,1
"6015",0,1,481,1,5,2,"a9737e4",59,1
"6119",1,1,327,6,6,2,"a9737e4",60,1
"6217",1,1,285,3,3,2,"a9737e4",61,1
"6315",1,1,266,1,1,2,"a9737e4",62,1
"6415",0,1,496,1,4,2,"a9737e4",63,1
"6515",0,1,374,1,3,2,"a9737e4",64,1
"6614",1,1,476,4,4,2,"a9737e4",65,1
"6714",0,1,394,1,6,2,"a9737e4",66,1
"6814",1,1,432,2,2,2,"a9737e4",67,1
"6914",1,1,326,1,1,2,"a9737e4",68,1
"7014",1,1,523,5,5,2,"a9737e4",69,1
"7118",0,1,313,4,1,2,"a9737e4",70,1
"7215",1,1,447,4,4,2,"a9737e4",71,1
"7314",0,1,284,1,6,2,"a9737e4",72,1
"7414",1,1,225,3,3,2,"a9737e4",73,1
"7514",1,1,320,6,6,2,"a9737e4",74,1
"7614",0,1,287,5,1,2,"a9737e4",75,1
"7714",1,0,476,3,1,2,"a9737e4",76,1
"7814",0,1,474,1,2,2,"a9737e4",77,1
"2100",1,1,472,4,4,3,"1b0caa0",1,1
"3100",1,0,131,1,5,3,"1b0caa0",2,1
"4100",1,1,482,6,6,3,"1b0caa0",3,1
"5100",1,1,437,5,5,3,"1b0caa0",4,1
"6100",1,1,674,1,1,3,"1b0caa0",5,1
"791",1,0,445,1,4,3,"1b0caa0",6,1
"816",0,1,425,1,6,3,"1b0caa0",7,1
"916",1,1,428,2,2,3,"1b0caa0",8,1
"1016",1,0,497,1,2,3,"1b0caa0",9,1
"1116",1,1,565,3,3,3,"1b0caa0",10,1
"1216",0,1,336,1,3,3,"1b0caa0",11,1
"1316",1,1,349,5,5,3,"1b0caa0",12,1
"1416",1,0,437,3,1,3,"1b0caa0",13,1
"1516",1,1,325,3,3,3,"1b0caa0",14,1
"1616",1,0,395,2,1,3,"1b0caa0",15,1
"1716",0,1,458,5,1,3,"1b0caa0",16,1
"1816",0,1,486,1,6,3,"1b0caa0",17,1
"1916",1,1,403,2,2,3,"1b0caa0",18,1
"2016",1,1,381,4,4,3,"1b0caa0",19,1
"2120",1,1,304,6,6,3,"1b0caa0",20,1
"2218",1,0,654,1,4,3,"1b0caa0",21,1
"2316",1,1,287,1,1,3,"1b0caa0",22,1
"2416",1,1,787,1,1,3,"1b0caa0",23,1
"2516",0,0,357,3,3,3,"1b0caa0",24,1
"2616",1,0,425,1,2,3,"1b0caa0",25,1
"2716",1,0,461,3,1,3,"1b0caa0",26,1
"2816",1,0,401,1,5,3,"1b0caa0",27,1
"2916",1,1,659,5,5,3,"1b0caa0",28,1
"3016",1,1,422,2,2,3,"1b0caa0",29,1
"3120",0,1,395,6,1,3,"1b0caa0",30,1
"3218",1,1,533,6,6,3,"1b0caa0",31,1
"3316",1,0,311,4,1,3,"1b0caa0",32,1
"3416",1,1,467,4,4,3,"1b0caa0",33,1
"3516",1,0,406,1,4,3,"1b0caa0",34,1
"3616",1,1,738,2,2,3,"1b0caa0",35,1
"3716",1,1,377,4,4,3,"1b0caa0",36,1
"3816",1,1,325,1,1,3,"1b0caa0",37,1
"3916",1,0,409,3,1,3,"1b0caa0",38,1
"4016",1,0,341,1,2,3,"1b0caa0",39,1
"4120",1,0,404,1,5,3,"1b0caa0",40,1
"4218",1,1,471,3,3,3,"1b0caa0",41,1
"4316",1,1,533,6,6,3,"1b0caa0",42,1
"4416",1,0,536,1,6,3,"1b0caa0",43,1
"4516",1,1,1047,5,5,3,"1b0caa0",44,1
"4616",1,1,987,2,2,3,"1b0caa0",45,1
"4716",1,0,842,1,6,3,"1b0caa0",46,1
"4816",1,0,367,1,4,3,"1b0caa0",47,1
"4916",0,0,473,3,3,3,"1b0caa0",48,1
"5016",1,1,397,6,6,3,"1b0caa0",49,1
"5120",1,0,608,5,1,3,"1b0caa0",50,1
"5218",1,1,724,4,4,3,"1b0caa0",51,1
"5316",1,1,448,1,1,3,"1b0caa0",52,1
"5416",1,0,374,3,1,3,"1b0caa0",53,1
"5516",-1,-1,0,5,5,3,"1b0caa0",54,1
"5616",1,0,549,2,1,3,"1b0caa0",55,1
"5716",1,0,409,4,1,3,"1b0caa0",56,1
"5816",1,0,895,6,1,3,"1b0caa0",57,1
"5916",0,0,602,4,4,3,"1b0caa0",58,1
"6016",1,0,1759,1,5,3,"1b0caa0",59,1
"6120",-1,-1,0,1,1,3,"1b0caa0",60,1
"6218",0,1,719,1,3,3,"1b0caa0",61,1
"6316",1,1,546,3,3,3,"1b0caa0",62,1
"6416",1,1,406,2,2,3,"1b0caa0",63,1
"6516",1,0,395,2,1,3,"1b0caa0",64,1
"6615",1,1,631,5,5,3,"1b0caa0",65,1
"6715",1,1,346,6,6,3,"1b0caa0",66,1
"6815",0,1,431,1,5,3,"1b0caa0",67,1
"6915",1,0,538,1,6,3,"1b0caa0",68,1
"7015",0,0,388,4,4,3,"1b0caa0",69,1
"7119",1,0,1447,1,3,3,"1b0caa0",70,1
"7216",1,1,1595,2,2,3,"1b0caa0",71,1
"7315",1,1,375,6,6,3,"1b0caa0",72,1
"7415",-1,-1,0,5,5,3,"1b0caa0",73,1
"7515",-1,-1,0,4,1,3,"1b0caa0",74,1
"7615",0,0,1050,1,1,3,"1b0caa0",75,1
"7715",1,1,981,3,3,3,"1b0caa0",76,1
"7815",0,1,592,1,2,3,"1b0caa0",77,1
"2101",1,1,1426,6,6,3,"1f94662",1,1
"3101",1,1,1104,5,5,3,"1f94662",2,1
"4101",1,0,622,5,1,3,"1f94662",3,1
"5101",1,0,649,1,6,3,"1f94662",4,1
"6101",1,1,625,4,4,3,"1f94662",5,1
"792",1,0,842,1,4,3,"1f94662",6,1
"817",1,1,595,1,1,3,"1f94662",7,1
"917",1,1,659,2,2,3,"1f94662",8,1
"1017",1,0,564,2,1,3,"1f94662",9,1
"1117",1,0,670,1,3,3,"1f94662",10,1
"1217",1,1,512,3,3,3,"1f94662",11,1
"1317",-1,-1,0,1,4,3,"1f94662",12,1
"1417",1,1,437,4,4,3,"1f94662",13,1
"1517",1,1,453,6,6,3,"1f94662",14,1
"1617",1,1,359,3,3,3,"1f94662",15,1
"1717",0,1,664,1,6,3,"1f94662",16,1
"1817",1,0,458,3,1,3,"1f94662",17,1
"1917",0,0,589,1,1,3,"1f94662",18,1
"2017",1,0,414,1,2,3,"1f94662",19,1
"2121",0,0,382,5,5,3,"1f94662",20,1
"2219",1,1,425,2,2,3,"1f94662",21,1
"2317",0,1,383,5,1,3,"1f94662",22,1
"2417",1,1,384,4,4,3,"1f94662",23,1
"2517",1,1,774,2,2,3,"1f94662",24,1
"2617",1,0,622,2,1,3,"1f94662",25,1
"2717",1,0,661,1,3,3,"1f94662",26,1
"2817",1,0,389,5,1,3,"1f94662",27,1
"2917",0,1,606,6,1,3,"1f94662",28,1
"3017",1,1,597,5,5,3,"1f94662",29,1
"3121",1,1,517,3,3,3,"1f94662",30,1
"3219",1,1,317,6,6,3,"1f94662",31,1
"3317",1,1,397,1,1,3,"1f94662",32,1
"3417",0,1,383,1,4,3,"1f94662",33,1
"3517",1,1,624,3,3,3,"1f94662",34,1
"3617",1,1,745,5,5,3,"1f94662",35,1
"3717",1,1,539,4,4,3,"1f94662",36,1
"3817",0,1,394,6,1,3,"1f94662",37,1
"3917",1,0,971,1,2,3,"1f94662",38,1
"4017",1,1,508,1,1,3,"1f94662",39,1
"4121",0,1,412,5,1,3,"1f94662",40,1
"4219",1,0,368,1,3,3,"1f94662",41,1
"4317",1,1,351,6,6,3,"1f94662",42,1
"4417",0,1,393,1,4,3,"1f94662",43,1
"4517",1,1,358,2,2,3,"1f94662",44,1
"4617",1,0,383,2,1,3,"1f94662",45,1
"4717",0,1,486,1,5,3,"1f94662",46,1
"4817",1,1,597,2,2,3,"1f94662",47,1
"4917",0,0,374,3,3,3,"1f94662",48,1
"5017",1,0,360,3,1,3,"1f94662",49,1
"5121",0,1,384,1,4,3,"1f94662",50,1
"5219",1,1,394,5,5,3,"1f94662",51,1
"5317",0,0,577,4,4,3,"1f94662",52,1
"5417",1,1,325,1,1,3,"1f94662",53,1
"5517",1,1,433,6,6,3,"1f94662",54,1
"5617",0,1,690,1,6,3,"1f94662",55,1
"5717",1,1,386,5,5,3,"1f94662",56,1
"5817",1,1,419,3,3,3,"1f94662",57,1
"5917",1,1,417,1,1,3,"1f94662",58,1
"6017",1,0,667,1,2,3,"1f94662",59,1
"6121",1,1,325,2,2,3,"1f94662",60,1
"6219",1,1,663,4,4,3,"1f94662",61,1
"6317",0,1,448,1,5,3,"1f94662",62,1
"6417",1,1,656,6,6,3,"1f94662",63,1
"6517",0,1,505,1,4,3,"1f94662",64,1
"6616",0,1,809,1,6,3,"1f94662",65,1
"6716",1,0,407,1,3,3,"1f94662",66,1
"6816",1,0,402,1,2,3,"1f94662",67,1
"6916",0,1,346,6,1,3,"1f94662",68,1
"7016",1,1,330,3,3,3,"1f94662",69,1
"7120",1,1,505,6,6,3,"1f94662",70,1
"7217",1,1,533,1,1,3,"1f94662",71,1
"7316",1,1,478,5,5,3,"1f94662",72,1
"7416",1,0,399,3,1,3,"1f94662",73,1
"7516",1,0,438,1,4,3,"1f94662",74,1
"7616",1,1,480,2,2,3,"1f94662",75,1
"7716",0,1,593,5,1,3,"1f94662",76,1
"7816",1,1,691,4,4,3,"1f94662",77,1
"2102",1,1,920,2,2,2,"1e3deae",1,1
"3102",1,1,493,5,5,2,"1e3deae",2,1
"4102",1,0,320,1,4,2,"1e3deae",3,1
"5102",0,0,442,4,4,2,"1e3deae",4,1
"6102",1,1,432,6,6,2,"1e3deae",5,1
"793",1,0,337,2,1,2,"1e3deae",6,1
"818",1,1,256,1,1,2,"1e3deae",7,1
"918",1,0,504,3,1,2,"1e3deae",8,1
"1018",1,0,415,1,6,2,"1e3deae",9,1
"1118",0,1,287,5,1,2,"1e3deae",10,1
"1218",1,1,351,3,3,2,"1e3deae",11,1
"1318",1,0,502,1,6,2,"1e3deae",12,1
"1418",0,1,885,1,2,2,"1e3deae",13,1
"1518",0,0,384,2,2,2,"1e3deae",14,1
"1618",1,1,368,4,4,2,"1e3deae",15,1
"1718",1,1,396,1,1,2,"1e3deae",16,1
"1818",1,0,361,1,5,2,"1e3deae",17,1
"1918",0,0,322,6,6,2,"1e3deae",18,1
"2018",1,1,271,5,5,2,"1e3deae",19,1
"2122",0,1,394,4,1,2,"1e3deae",20,1
"2220",1,0,345,1,3,2,"1e3deae",21,1
"2318",0,0,284,3,3,2,"1e3deae",22,1
"2418",0,0,331,1,1,2,"1e3deae",23,1
"2518",1,1,449,5,5,2,"1e3deae",24,1
"2618",1,1,340,3,3,2,"1e3deae",25,1
"2718",1,0,263,1,2,2,"1e3deae",26,1
"2818",1,1,519,6,6,2,"1e3deae",27,1
"2918",1,0,520,6,1,2,"1e3deae",28,1
"3018",0,1,761,1,4,2,"1e3deae",29,1
"3122",0,1,286,5,1,2,"1e3deae",30,1
"3220",1,0,373,1,3,2,"1e3deae",31,1
"3318",1,1,389,2,2,2,"1e3deae",32,1
"3418",0,0,452,4,4,2,"1e3deae",33,1
"3518",1,0,803,3,1,2,"1e3deae",34,1
"3618",1,0,304,1,4,2,"1e3deae",35,1
"3718",1,1,304,1,1,2,"1e3deae",36,1
"3818",0,1,296,2,1,2,"1e3deae",37,1
"3918",1,1,414,5,5,2,"1e3deae",38,1
"4018",1,1,325,4,4,2,"1e3deae",39,1
"4122",0,0,328,3,3,2,"1e3deae",40,1
"4220",1,1,234,6,6,2,"1e3deae",41,1
"4318",1,0,296,5,1,2,"1e3deae",42,1
"4418",1,1,416,2,2,2,"1e3deae",43,1
"4518",0,1,111,6,1,2,"1e3deae",44,1
"4618",1,0,307,1,3,2,"1e3deae",45,1
"4718",1,0,415,1,2,2,"1e3deae",46,1
"4818",1,1,357,6,6,2,"1e3deae",47,1
"4918",1,1,507,3,3,2,"1e3deae",48,1
"5018",1,1,286,1,1,2,"1e3deae",49,1
"5122",1,1,293,5,5,2,"1e3deae",50,1
"5220",1,1,343,4,4,2,"1e3deae",51,1
"5318",0,1,521,1,6,2,"1e3deae",52,1
"5418",1,1,327,2,2,2,"1e3deae",53,1
"5518",1,0,356,4,1,2,"1e3deae",54,1
"5618",1,0,285,5,1,2,"1e3deae",55,1
"5718",1,0,1107,1,2,2,"1e3deae",56,1
"5818",0,1,321,3,1,2,"1e3deae",57,1
"5918",1,1,313,5,5,2,"1e3deae",58,1
"6018",0,1,338,6,1,2,"1e3deae",59,1
"6122",1,1,515,6,6,2,"1e3deae",60,1
"6220",1,1,333,4,4,2,"1e3deae",61,1
"6318",0,0,411,1,1,2,"1e3deae",62,1
"6418",1,0,508,1,5,2,"1e3deae",63,1
"6518",1,0,549,1,4,2,"1e3deae",64,1
"6617",1,1,347,2,2,2,"1e3deae",65,1
"6717",1,1,431,3,3,2,"1e3deae",66,1
"6817",1,1,322,2,2,2,"1e3deae",67,1
"6917",1,0,326,3,1,2,"1e3deae",68,1
"7017",1,1,506,1,1,2,"1e3deae",69,1
"7121",0,0,508,3,3,2,"1e3deae",70,1
"7218",1,0,438,1,5,2,"1e3deae",71,1
"7317",1,0,356,1,2,2,"1e3deae",72,1
"7417",0,1,242,1,6,2,"1e3deae",73,1
"7517",0,0,1153,5,5,2,"1e3deae",74,1
"7617",1,1,988,4,4,2,"1e3deae",75,1
"7717",1,0,274,1,4,2,"1e3deae",76,1
"7817",0,0,256,6,6,2,"1e3deae",77,1
"2103",1,0,538,1,4,1,"122cd46",1,1
"3103",1,1,257,5,5,1,"122cd46",2,1
"4103",0,1,283,1,6,1,"122cd46",3,1
"5103",1,0,252,1,3,1,"122cd46",4,1
"6103",0,0,447,6,6,1,"122cd46",5,1
"794",1,0,350,2,1,1,"122cd46",6,1
"819",1,1,277,2,2,1,"122cd46",7,1
"919",1,1,238,4,4,1,"122cd46",8,1
"1019",0,1,285,1,5,1,"122cd46",9,1
"1119",1,1,60,1,1,1,"122cd46",10,1
"1219",0,0,147,3,3,1,"122cd46",11,1
"1319",0,1,318,4,1,1,"122cd46",12,1
"1419",0,0,95,3,3,1,"122cd46",13,1
"1519",1,1,215,6,6,1,"122cd46",14,1
"1619",0,1,14,1,3,1,"122cd46",15,1
"1719",1,0,62,1,2,1,"122cd46",16,1
"1819",0,1,331,6,1,1,"122cd46",17,1
"1919",0,0,98,1,1,1,"122cd46",18,1
"2019",0,1,276,5,1,1,"122cd46",19,1
"2123",0,0,74,2,2,1,"122cd46",20,1
"2221",1,1,73,4,4,1,"122cd46",21,1
"2319",1,1,181,5,5,1,"122cd46",22,1
"2419",1,1,188,6,6,1,"122cd46",23,1
"2519",1,1,396,1,1,1,"122cd46",24,1
"2619",1,0,115,1,2,1,"122cd46",25,1
"2719",1,1,81,3,3,1,"122cd46",26,1
"2819",1,0,752,1,6,1,"122cd46",27,1
"2919",0,0,1649,2,2,1,"122cd46",28,1
"3019",0,1,240,1,5,1,"122cd46",29,1
"3123",1,1,1423,4,4,1,"122cd46",30,1
"3221",1,0,1752,1,3,1,"122cd46",31,1
"3319",0,1,267,4,1,1,"122cd46",32,1
"3419",1,1,84,5,5,1,"122cd46",33,1
"3519",1,1,33,3,3,1,"122cd46",34,1
"3619",1,0,233,1,2,1,"122cd46",35,1
"3719",0,0,200,4,4,1,"122cd46",36,1
"3819",0,1,384,5,1,1,"122cd46",37,1
"3919",0,1,878,4,1,1,"122cd46",38,1
"4019",1,1,678,5,5,1,"122cd46",39,1
"4123",1,0,932,1,6,1,"122cd46",40,1
"4221",1,1,27,6,6,1,"122cd46",41,1
"4319",0,0,234,1,1,1,"122cd46",42,1
"4419",1,1,289,2,2,1,"122cd46",43,1
"4519",1,0,919,1,3,1,"122cd46",44,1
"4619",-1,-1,0,1,4,1,"122cd46",45,1
"4719",0,1,289,6,1,1,"122cd46",46,1
"4819",-1,-1,0,6,6,1,"122cd46",47,1
"4919",1,1,138,1,1,1,"122cd46",48,1
"5019",1,1,393,2,2,1,"122cd46",49,1
"5123",0,1,262,1,2,1,"122cd46",50,1
"5221",0,1,424,5,1,1,"122cd46",51,1
"5319",1,1,443,4,4,1,"122cd46",52,1
"5419",1,1,392,5,5,1,"122cd46",53,1
"5519",1,1,34,3,3,1,"122cd46",54,1
"5619",1,0,1023,3,1,1,"122cd46",55,1
"5719",1,1,1635,3,3,1,"122cd46",56,1
"5819",1,1,1456,6,6,1,"122cd46",57,1
"5919",1,0,1475,1,2,1,"122cd46",58,1
"6019",1,0,1227,1,5,1,"122cd46",59,1
"6123",1,1,1202,4,4,1,"122cd46",60,1
"6221",1,0,968,1,6,1,"122cd46",61,1
"6319",0,1,369,1,4,1,"122cd46",62,1
"6419",1,0,407,3,1,1,"122cd46",63,1
"6519",-1,-1,0,5,5,1,"122cd46",64,1
"6618",1,1,500,2,2,1,"122cd46",65,1
"6718",0,0,1674,1,1,1,"122cd46",66,1
"6818",1,0,1574,1,6,1,"122cd46",67,1
"6918",-1,-1,0,6,6,1,"122cd46",68,1
"7018",1,1,652,4,4,1,"122cd46",69,1
"7122",1,0,531,1,5,1,"122cd46",70,1
"7219",1,0,1159,2,1,1,"122cd46",71,1
"7318",0,1,158,4,1,1,"122cd46",72,1
"7418",-1,-1,0,2,2,1,"122cd46",73,1
"7518",1,0,223,3,1,1,"122cd46",74,1
"7618",0,0,310,5,5,1,"122cd46",75,1
"7718",1,1,297,1,1,1,"122cd46",76,1
"7818",1,1,372,3,3,1,"122cd46",77,1
"2104",0,1,722,1,6,1,"19cc46e",1,1
"3104",1,1,571,3,3,1,"19cc46e",2,1
"4104",1,0,497,1,5,1,"19cc46e",3,1
"5104",1,1,592,4,4,1,"19cc46e",4,1
"6104",1,1,490,2,2,1,"19cc46e",5,1
"795",1,1,482,6,6,1,"19cc46e",6,1
"820",1,1,627,5,5,1,"19cc46e",7,1
"920",1,0,534,2,1,1,"19cc46e",8,1
"1020",1,1,542,1,1,1,"19cc46e",9,1
"1120",0,1,453,1,3,1,"19cc46e",10,1
"1220",0,1,535,1,4,1,"19cc46e",11,1
"1320",0,1,430,1,6,1,"19cc46e",12,1
"1420",1,1,502,6,6,1,"19cc46e",13,1
"1520",1,1,447,4,4,1,"19cc46e",14,1
"1620",1,1,471,5,5,1,"19cc46e",15,1
"1720",0,1,483,3,1,1,"19cc46e",16,1
"1820",0,1,400,2,1,1,"19cc46e",17,1
"1920",0,1,356,1,4,1,"19cc46e",18,1
"2020",1,1,358,1,1,1,"19cc46e",19,1
"2124",1,1,386,2,2,1,"19cc46e",20,1
"2222",0,1,1632,1,5,1,"19cc46e",21,1
"2320",1,1,484,3,3,1,"19cc46e",22,1
"2420",0,1,473,1,5,1,"19cc46e",23,1
"2520",0,1,388,1,2,1,"19cc46e",24,1
"2620",1,1,417,1,1,1,"19cc46e",25,1
"2720",0,1,488,6,1,1,"19cc46e",26,1
"2820",0,1,430,4,1,1,"19cc46e",27,1
"2920",1,1,429,5,5,1,"19cc46e",28,1
"3020",1,1,527,6,6,1,"19cc46e",29,1
"3124",1,1,600,4,4,1,"19cc46e",30,1
"3222",1,1,384,2,2,1,"19cc46e",31,1
"3320",0,1,349,1,3,1,"19cc46e",32,1
"3420",1,1,385,3,3,1,"19cc46e",33,1
"3520",1,0,315,1,2,1,"19cc46e",34,1
"3620",1,1,467,3,3,1,"19cc46e",35,1
"3720",1,1,552,4,4,1,"19cc46e",36,1
"3820",0,1,345,1,5,1,"19cc46e",37,1
"3920",1,1,384,2,2,1,"19cc46e",38,1
"4020",0,1,365,3,1,1,"19cc46e",39,1
"4124",1,1,454,5,5,1,"19cc46e",40,1
"4222",0,1,346,6,1,1,"19cc46e",41,1
"4320",1,1,457,1,1,1,"19cc46e",42,1
"4420",1,1,384,6,6,1,"19cc46e",43,1
"4520",0,1,346,4,1,1,"19cc46e",44,1
"4620",0,1,344,1,6,1,"19cc46e",45,1
"4720",1,1,339,3,3,1,"19cc46e",46,1
"4820",0,1,467,4,1,1,"19cc46e",47,1
"4920",1,1,473,4,4,1,"19cc46e",48,1
"5020",1,1,520,5,5,1,"19cc46e",49,1
"5124",1,1,335,1,1,1,"19cc46e",50,1
"5222",1,0,394,2,1,1,"19cc46e",51,1
"5320",1,1,322,6,6,1,"19cc46e",52,1
"5420",0,1,457,3,1,1,"19cc46e",53,1
"5520",1,1,480,2,2,1,"19cc46e",54,1
"5620",0,1,463,1,5,1,"19cc46e",55,1
"5720",0,1,377,1,3,1,"19cc46e",56,1
"5820",0,1,397,1,2,1,"19cc46e",57,1
"5920",0,1,381,4,1,1,"19cc46e",58,1
"6020",1,1,574,5,5,1,"19cc46e",59,1
"6124",1,1,401,1,1,1,"19cc46e",60,1
"6222",0,1,437,1,5,1,"19cc46e",61,1
"6320",1,1,307,2,2,1,"19cc46e",62,1
"6420",1,1,352,4,4,1,"19cc46e",63,1
"6520",1,1,300,6,6,1,"19cc46e",64,1
"6619",1,1,567,3,3,1,"19cc46e",65,1
"6719",0,1,321,6,1,1,"19cc46e",66,1
"6819",1,1,470,5,5,1,"19cc46e",67,1
"6919",1,0,329,1,2,1,"19cc46e",68,1
"7019",1,1,307,2,2,1,"19cc46e",69,1
"7123",1,1,355,3,3,1,"19cc46e",70,1
"7220",1,1,327,6,6,1,"19cc46e",71,1
"7319",0,1,355,1,5,1,"19cc46e",72,1
"7419",0,1,545,6,1,1,"19cc46e",73,1
"7519",0,1,320,1,4,1,"19cc46e",74,1
"7619",1,1,614,4,4,1,"19cc46e",75,1
"7719",0,1,339,3,1,1,"19cc46e",76,1
"7819",1,1,291,1,1,1,"19cc46e",77,1
"2105",1,1,522,6,6,3,"1ec447e",1,1
"3105",1,0,486,5,1,3,"1ec447e",2,1
"4105",1,1,239,2,2,3,"1ec447e",3,1
"5105",1,1,255,3,3,3,"1ec447e",4,1
"6105",1,0,345,4,1,3,"1ec447e",5,1
"796",1,1,218,4,4,3,"1ec447e",6,1
"821",0,0,228,5,5,3,"1ec447e",7,1
"921",0,1,237,6,1,3,"1ec447e",8,1
"1021",0,1,247,1,3,3,"1ec447e",9,1
"1121",1,1,270,1,1,3,"1ec447e",10,1
"1221",0,1,185,1,2,3,"1ec447e",11,1
"1321",1,1,396,3,3,3,"1ec447e",12,1
"1421",0,1,42,4,1,3,"1ec447e",13,1
"1521",1,1,253,5,5,3,"1ec447e",14,1
"1621",1,1,148,4,4,3,"1ec447e",15,1
"1721",1,1,374,1,1,3,"1ec447e",16,1
"1821",1,1,313,2,2,3,"1ec447e",17,1
"1921",1,1,268,6,6,3,"1ec447e",18,1
"2021",0,1,244,1,5,3,"1ec447e",19,1
"2125",1,0,257,2,1,3,"1ec447e",20,1
"2223",1,0,303,1,3,3,"1ec447e",21,1
"2321",0,1,474,6,1,3,"1ec447e",22,1
"2421",0,1,187,1,5,3,"1ec447e",23,1
"2521",1,1,241,3,3,3,"1ec447e",24,1
"2621",0,1,253,1,6,3,"1ec447e",25,1
"2721",1,1,379,2,2,3,"1ec447e",26,1
"2821",0,1,221,3,1,3,"1ec447e",27,1
"2921",1,1,211,4,4,3,"1ec447e",28,1
"3021",1,0,40,2,1,3,"1ec447e",29,1
"3125",1,1,306,6,6,3,"1ec447e",30,1
"3223",1,0,664,4,1,3,"1ec447e",31,1
"3321",1,1,84,5,5,3,"1ec447e",32,1
"3421",0,0,241,1,1,3,"1ec447e",33,1
"3521",0,1,16,1,4,3,"1ec447e",34,1
"3621",1,1,106,3,3,3,"1ec447e",35,1
"3721",1,1,235,1,1,3,"1ec447e",36,1
"3821",1,1,579,2,2,3,"1ec447e",37,1
"3921",1,1,241,6,6,3,"1ec447e",38,1
"4021",0,1,285,1,3,3,"1ec447e",39,1
"4125",0,0,188,4,4,3,"1ec447e",40,1
"4223",0,1,264,1,6,3,"1ec447e",41,1
"4321",0,1,466,5,1,3,"1ec447e",42,1
"4421",0,1,268,1,2,3,"1ec447e",43,1
"4521",1,1,24,5,5,3,"1ec447e",44,1
"4621",0,1,228,1,6,3,"1ec447e",45,1
"4721",1,0,118,3,1,3,"1ec447e",46,1
"4821",0,0,386,4,4,3,"1ec447e",47,1
"4921",1,1,128,2,2,3,"1ec447e",48,1
"5021",1,0,11,1,2,3,"1ec447e",49,1
"5125",0,0,1844,3,3,3,"1ec447e",50,1
"5223",1,1,350,1,1,3,"1ec447e",51,1
"5321",1,1,1141,5,5,3,"1ec447e",52,1
"5421",1,1,129,6,6,3,"1ec447e",53,1
"5521",0,1,300,1,5,3,"1ec447e",54,1
"5621",0,1,504,1,4,3,"1ec447e",55,1
"5721",1,1,328,5,5,3,"1ec447e",56,1
"5821",1,1,299,2,2,3,"1ec447e",57,1
"5921",0,1,237,1,3,3,"1ec447e",58,1
"6021",1,1,331,1,1,3,"1ec447e",59,1
"6125",0,1,68,5,1,3,"1ec447e",60,1
"6223",1,1,504,6,6,3,"1ec447e",61,1
"6321",0,1,123,1,2,3,"1ec447e",62,1
"6421",0,1,318,1,4,3,"1ec447e",63,1
"6521",1,0,423,1,6,3,"1ec447e",64,1
"6620",1,1,323,4,4,3,"1ec447e",65,1
"6720",1,1,206,3,3,3,"1ec447e",66,1
"6820",1,1,315,2,2,3,"1ec447e",67,1
"6920",0,0,783,6,6,3,"1ec447e",68,1
"7020",1,1,101,4,4,3,"1ec447e",69,1
"7124",1,0,324,3,1,3,"1ec447e",70,1
"7221",0,1,561,5,1,3,"1ec447e",71,1
"7320",0,1,128,1,4,3,"1ec447e",72,1
"7420",1,1,177,3,3,3,"1ec447e",73,1
"7520",0,1,273,1,6,3,"1ec447e",74,1
"7620",1,1,204,5,5,3,"1ec447e",75,1
"7720",1,0,106,2,1,3,"1ec447e",76,1
"7820",0,0,1538,1,1,3,"1ec447e",77,1
"2106",1,1,712,1,1,2,"157bedd",1,1
"3106",0,1,546,4,1,2,"157bedd",2,1
"4106",0,1,540,3,1,2,"157bedd",3,1
"5106",1,0,439,6,1,2,"157bedd",4,1
"6106",1,1,387,5,5,2,"157bedd",5,1
"797",1,1,489,2,2,2,"157bedd",6,1
"822",1,0,269,2,1,2,"157bedd",7,1
"922",0,1,296,1,5,2,"157bedd",8,1
"1022",1,1,378,3,3,2,"157bedd",9,1
"1122",0,0,362,6,6,2,"157bedd",10,1
"1222",0,0,307,4,4,2,"157bedd",11,1
"1322",1,0,326,4,1,2,"157bedd",12,1
"1422",0,0,330,1,1,2,"157bedd",13,1
"1522",0,1,344,5,1,2,"157bedd",14,1
"1622",1,0,296,1,2,2,"157bedd",15,1
"1722",0,0,551,2,2,2,"157bedd",16,1
"1822",0,1,288,6,1,2,"157bedd",17,1
"1922",1,0,261,3,1,2,"157bedd",18,1
"2022",1,1,296,3,3,2,"157bedd",19,1
"2126",1,1,358,5,5,2,"157bedd",20,1
"2224",1,1,146,4,4,2,"157bedd",21,1
"2322",0,0,370,6,6,2,"157bedd",22,1
"2422",1,1,291,3,3,2,"157bedd",23,1
"2522",1,0,857,1,5,2,"157bedd",24,1
"2622",0,0,213,1,1,2,"157bedd",25,1
"2722",1,1,367,6,6,2,"157bedd",26,1
"2822",0,0,270,4,4,2,"157bedd",27,1
"2922",1,1,549,5,5,2,"157bedd",28,1
"3022",0,1,1393,1,4,2,"157bedd",29,1
"3126",1,0,309,1,6,2,"157bedd",30,1
"3224",0,1,286,3,1,2,"157bedd",31,1
"3322",1,0,483,2,1,2,"157bedd",32,1
"3422",1,1,468,2,2,2,"157bedd",33,1
"3522",1,1,337,5,5,2,"157bedd",34,1
"3622",1,0,380,3,1,2,"157bedd",35,1
"3722",1,0,326,1,4,2,"157bedd",36,1
"3822",1,0,352,1,5,2,"157bedd",37,1
"3922",1,1,307,6,6,2,"157bedd",38,1
"4022",1,1,287,4,4,2,"157bedd",39,1
"4126",0,1,1895,6,1,2,"157bedd",40,1
"4224",1,1,1087,3,3,2,"157bedd",41,1
"4322",0,1,303,2,1,2,"157bedd",42,1
"4422",1,1,1945,1,1,2,"157bedd",43,1
"4522",-1,-1,0,2,2,2,"157bedd",44,1
"4622",1,0,318,1,2,2,"157bedd",45,1
"4722",0,0,582,6,6,2,"157bedd",46,1
"4822",1,0,497,3,1,2,"157bedd",47,1
"4922",0,0,643,4,4,2,"157bedd",48,1
"5022",0,1,409,1,6,2,"157bedd",49,1
"5126",1,0,355,1,5,2,"157bedd",50,1
"5224",1,0,477,1,4,2,"157bedd",51,1
"5322",0,0,430,3,3,2,"157bedd",52,1
"5422",1,1,550,5,5,2,"157bedd",53,1
"5522",0,0,633,1,1,2,"157bedd",54,1
"5622",0,0,321,2,2,2,"157bedd",55,1
"5722",1,0,634,1,4,2,"157bedd",56,1
"5822",0,1,691,1,6,2,"157bedd",57,1
"5922",1,1,364,5,5,2,"157bedd",58,1
"6022",1,1,768,4,4,2,"157bedd",59,1
"6126",1,0,299,1,5,2,"157bedd",60,1
"6224",1,1,603,2,2,2,"157bedd",61,1
"6322",1,1,463,6,6,2,"157bedd",62,1
"6422",1,1,311,3,3,2,"157bedd",63,1
"6522",0,1,433,1,2,2,"157bedd",64,1
"6621",1,1,377,1,1,2,"157bedd",65,1
"6721",0,1,320,1,3,2,"157bedd",66,1
"6821",0,1,318,6,1,2,"157bedd",67,1
"6921",1,1,440,1,1,2,"157bedd",68,1
"7021",0,1,314,2,1,2,"157bedd",69,1
"7125",1,1,305,6,6,2,"157bedd",70,1
"7222",1,0,513,1,5,2,"157bedd",71,1
"7321",1,1,1858,5,5,2,"157bedd",72,1
"7421",0,1,662,3,1,2,"157bedd",73,1
"7521",1,1,601,3,3,2,"157bedd",74,1
"7621",1,1,634,2,2,2,"157bedd",75,1
"7721",0,1,525,1,4,2,"157bedd",76,1
"7821",1,1,332,4,4,2,"157bedd",77,1
"2107",1,1,563,5,5,2,"c00f083",1,1
"3107",1,1,588,3,3,2,"c00f083",2,1
"4107",0,1,450,1,6,2,"c00f083",3,1
"5107",1,1,240,4,4,2,"c00f083",4,1
"6107",1,0,246,1,4,2,"c00f083",5,1
"798",1,0,305,3,1,2,"c00f083",6,1
"823",1,1,160,1,1,2,"c00f083",7,1
"923",1,1,211,2,2,2,"c00f083",8,1
"1023",1,0,205,1,2,2,"c00f083",9,1
"1123",0,0,197,6,6,2,"c00f083",10,1
"1223",0,1,291,5,1,2,"c00f083",11,1
"1323",0,0,6,4,4,2,"c00f083",12,1
"1423",0,1,10,1,6,2,"c00f083",13,1
"1523",0,1,73,5,1,2,"c00f083",14,1
"1623",0,0,152,1,1,2,"c00f083",15,1
"1723",1,1,105,2,2,2,"c00f083",16,1
"1823",1,1,197,6,6,2,"c00f083",17,1
"1923",1,1,63,3,3,2,"c00f083",18,1
"2023",0,1,99,1,4,2,"c00f083",19,1
"2127",1,0,63,2,1,2,"c00f083",20,1
"2225",1,1,187,5,5,2,"c00f083",21,1
"2323",0,1,130,3,1,2,"c00f083",22,1
"2423",0,1,125,6,1,2,"c00f083",23,1
"2523",1,1,124,5,5,2,"c00f083",24,1
"2623",1,0,289,1,2,2,"c00f083",25,1
"2723",1,1,99,1,1,2,"c00f083",26,1
"2823",0,1,247,1,5,2,"c00f083",27,1
"2923",1,1,277,2,2,2,"c00f083",28,1
"3023",1,1,164,4,4,2,"c00f083",29,1
"3127",0,0,261,6,6,2,"c00f083",30,1
"3225",0,1,120,1,4,2,"c00f083",31,1
"3323",1,1,111,3,3,2,"c00f083",32,1
"3423",0,1,115,3,1,2,"c00f083",33,1
"3523",1,1,93,3,3,2,"c00f083",34,1
"3623",1,1,207,1,1,2,"c00f083",35,1
"3723",1,1,152,6,6,2,"c00f083",36,1
"3823",0,1,285,5,1,2,"c00f083",37,1
"3923",0,1,249,3,1,2,"c00f083",38,1
"4023",1,0,237,2,1,2,"c00f083",39,1
"4127",0,1,279,1,6,2,"c00f083",40,1
"4225",1,0,217,1,4,2,"c00f083",41,1
"4323",1,1,356,5,5,2,"c00f083",42,1
"4423",1,1,217,4,4,2,"c00f083",43,1
"4523",1,1,74,2,2,2,"c00f083",44,1
"4623",1,1,65,5,5,2,"c00f083",45,1
"4723",1,0,139,2,1,2,"c00f083",46,1
"4823",0,1,151,1,6,2,"c00f083",47,1
"4923",1,1,305,6,6,2,"c00f083",48,1
"5023",0,0,66,3,3,2,"c00f083",49,1
"5127",1,1,277,4,4,2,"c00f083",50,1
"5225",1,1,345,2,2,2,"c00f083",51,1
"5323",1,1,74,1,1,2,"c00f083",52,1
"5423",0,1,259,5,1,2,"c00f083",53,1
"5523",0,1,130,1,4,2,"c00f083",54,1
"5623",0,1,294,1,3,2,"c00f083",55,1
"5723",1,1,314,5,5,2,"c00f083",56,1
"5823",0,1,290,1,5,2,"c00f083",57,1
"5923",0,1,221,6,1,2,"c00f083",58,1
"6023",1,0,159,1,2,2,"c00f083",59,1
"6127",1,1,153,4,4,2,"c00f083",60,1
"6225",1,1,361,3,3,2,"c00f083",61,1
"6323",0,1,23,1,3,2,"c00f083",62,1
"6423",1,1,425,1,1,2,"c00f083",63,1
"6523",1,1,80,6,6,2,"c00f083",64,1
"6622",1,1,206,2,2,2,"c00f083",65,1
"6722",0,1,159,1,4,2,"c00f083",66,1
"6822",0,0,254,6,6,2,"c00f083",67,1
"6922",1,1,231,3,3,2,"c00f083",68,1
"7022",0,1,476,1,5,2,"c00f083",69,1
"7126",1,1,301,4,4,2,"c00f083",70,1
"7223",1,1,611,5,5,2,"c00f083",71,1
"7322",1,1,333,1,1,2,"c00f083",72,1
"7422",0,1,178,4,1,2,"c00f083",73,1
"7522",1,1,7,2,2,2,"c00f083",74,1
"7622",1,0,203,1,6,2,"c00f083",75,1
"7722",0,1,305,1,3,2,"c00f083",76,1
"7822",1,0,39,1,2,2,"c00f083",77,1
"2108",0,0,600,6,6,2,"11f46c2",1,1
"3108",0,1,679,1,3,2,"11f46c2",2,1
"4108",0,0,577,5,5,2,"11f46c2",3,1
"5108",1,0,384,1,2,2,"11f46c2",4,1
"6108",1,1,441,1,1,2,"11f46c2",5,1
"799",1,1,489,2,2,2,"11f46c2",6,1
"824",0,1,566,1,5,2,"11f46c2",7,1
"924",1,1,435,4,4,2,"11f46c2",8,1
"1024",0,1,454,1,4,2,"11f46c2",9,1
"1124",1,1,625,3,3,2,"11f46c2",10,1
"1224",0,1,539,1,6,2,"11f46c2",11,1
"1324",1,1,584,2,2,2,"11f46c2",12,1
"1424",1,0,359,2,1,2,"11f46c2",13,1
"1524",0,1,472,4,1,2,"11f46c2",14,1
"1624",1,1,517,5,5,2,"11f46c2",15,1
"1724",1,1,446,4,4,2,"11f46c2",16,1
"1824",1,1,512,6,6,2,"11f46c2",17,1
"1924",1,1,1064,1,1,2,"11f46c2",18,1
"2024",0,1,437,6,1,2,"11f46c2",19,1
"2128",1,0,103,3,1,2,"11f46c2",20,1
"2226",1,1,422,3,3,2,"11f46c2",21,1
"2324",0,1,367,1,5,2,"11f46c2",22,1
"2424",1,1,485,5,5,2,"11f46c2",23,1
"2524",1,1,711,3,3,2,"11f46c2",24,1
"2624",1,1,666,6,6,2,"11f46c2",25,1
"2724",0,0,694,2,2,2,"11f46c2",26,1
"2824",1,0,408,2,1,2,"11f46c2",27,1
"2924",1,1,138,4,4,2,"11f46c2",28,1
"3024",0,1,521,5,1,2,"11f46c2",29,1
"3128",0,1,369,1,3,2,"11f46c2",30,1
"3226",0,0,549,1,1,2,"11f46c2",31,1
"3324",0,1,516,6,1,2,"11f46c2",32,1
"3424",0,1,957,1,4,2,"11f46c2",33,1
"3524",1,0,648,1,2,2,"11f46c2",34,1
"3624",-1,-1,0,1,6,2,"11f46c2",35,1
"3724",0,0,331,3,3,2,"11f46c2",36,1
"3824",0,1,367,5,1,2,"11f46c2",37,1
"3924",1,1,121,5,5,2,"11f46c2",38,1
"4024",0,1,22,3,1,2,"11f46c2",39,1
"4128",1,1,403,6,6,2,"11f46c2",40,1
"4226",1,1,255,4,4,2,"11f46c2",41,1
"4324",1,1,941,1,1,2,"11f46c2",42,1
"4424",1,1,474,2,2,2,"11f46c2",43,1
"4524",0,1,498,1,4,2,"11f46c2",44,1
"4624",1,1,306,4,4,2,"11f46c2",45,1
"4724",0,1,410,6,1,2,"11f46c2",46,1
"4824",1,1,658,2,2,2,"11f46c2",47,1
"4924",0,0,408,3,3,2,"11f46c2",48,1
"5024",1,1,419,5,5,2,"11f46c2",49,1
"5128",0,1,425,1,5,2,"11f46c2",50,1
"5226",0,1,268,4,1,2,"11f46c2",51,1
"5324",0,1,351,3,1,2,"11f46c2",52,1
"5424",1,1,282,1,1,2,"11f46c2",53,1
"5524",1,1,405,6,6,2,"11f46c2",54,1
"5624",1,0,353,2,1,2,"11f46c2",55,1
"5724",1,1,398,4,4,2,"11f46c2",56,1
"5824",1,0,312,1,2,2,"11f46c2",57,1
"5924",1,1,425,5,5,2,"11f46c2",58,1
"6024",1,1,296,3,3,2,"11f46c2",59,1
"6128",1,1,274,1,1,2,"11f46c2",60,1
"6226",1,1,344,6,6,2,"11f46c2",61,1
"6324",0,0,295,2,2,2,"11f46c2",62,1
"6424",0,1,370,1,3,2,"11f46c2",63,1
"6524",0,1,315,5,1,2,"11f46c2",64,1
"6623",0,1,409,1,4,2,"11f46c2",65,1
"6723",0,1,526,1,6,2,"11f46c2",66,1
"6823",0,0,784,1,1,2,"11f46c2",67,1
"6923",0,1,413,1,6,2,"11f46c2",68,1
"7023",0,0,570,2,2,2,"11f46c2",69,1
"7127",1,1,882,3,3,2,"11f46c2",70,1
"7224",0,1,231,1,2,2,"11f46c2",71,1
"7323",0,1,317,1,4,2,"11f46c2",72,1
"7423",0,0,318,4,4,2,"11f46c2",73,1
"7523",1,0,360,1,3,2,"11f46c2",74,1
"7623",0,1,305,1,5,2,"11f46c2",75,1
"7723",1,1,434,6,6,2,"11f46c2",76,1
"7823",1,1,279,5,5,2,"11f46c2",77,1
"2109",1,0,373,1,6,3,"180a1f6",1,1
"3109",1,1,455,3,3,3,"180a1f6",2,1
"4109",1,1,1107,6,6,3,"180a1f6",3,1
"5109",1,0,627,2,1,3,"180a1f6",4,1
"6109",1,1,1703,2,2,3,"180a1f6",5,1
"7100",-1,-1,0,5,1,3,"180a1f6",6,1
"825",-1,-1,0,1,1,3,"180a1f6",7,1
"925",1,1,331,5,5,3,"180a1f6",8,1
"1025",1,0,377,4,1,3,"180a1f6",9,1
"1125",1,0,1121,1,3,3,"180a1f6",10,1
"1225",1,1,355,4,4,3,"180a1f6",11,1
"1325",1,0,750,1,3,3,"180a1f6",12,1
"1425",1,1,403,5,5,3,"180a1f6",13,1
"1525",1,0,570,1,6,3,"180a1f6",14,1
"1625",1,0,494,1,2,3,"180a1f6",15,1
"1725",1,1,282,1,1,3,"180a1f6",16,1
"1825",1,0,466,1,5,3,"180a1f6",17,1
"1925",1,1,1331,6,6,3,"180a1f6",18,1
"2025",1,0,431,4,1,3,"180a1f6",19,1
"2129",1,1,1522,3,3,3,"180a1f6",20,1
"2227",1,1,515,2,2,3,"180a1f6",21,1
"2325",1,1,810,4,4,3,"180a1f6",22,1
"2425",1,1,1908,3,3,3,"180a1f6",23,1
"2525",1,1,671,4,4,3,"180a1f6",24,1
"2625",1,1,542,6,6,3,"180a1f6",25,1
"2725",-1,-1,0,5,5,3,"180a1f6",26,1
"2825",1,0,442,6,1,3,"180a1f6",27,1
"2925",1,1,795,1,1,3,"180a1f6",28,1
"3025",1,0,791,1,5,3,"180a1f6",29,1
"3129",1,1,1710,2,2,3,"180a1f6",30,1
"3227",1,0,854,1,2,3,"180a1f6",31,1
"3325",1,0,882,1,4,3,"180a1f6",32,1
"3425",-1,-1,0,3,1,3,"180a1f6",33,1
"3525",1,0,495,3,1,3,"180a1f6",34,1
"3625",1,0,997,1,4,3,"180a1f6",35,1
"3725",-1,-1,0,3,3,3,"180a1f6",36,1
"3825",1,1,971,4,4,3,"180a1f6",37,1
"3925",1,1,662,6,6,3,"180a1f6",38,1
"4025",1,1,432,2,2,3,"180a1f6",39,1
"4129",1,0,822,1,5,3,"180a1f6",40,1
"4227",1,0,698,6,1,3,"180a1f6",41,1
"4325",1,1,439,5,5,3,"180a1f6",42,1
"4425",1,0,462,1,2,3,"180a1f6",43,1
"4525",1,1,411,1,1,3,"180a1f6",44,1
"4625",-1,-1,0,1,1,3,"180a1f6",45,1
"4725",1,0,344,1,2,3,"180a1f6",46,1
"4825",1,0,1458,1,5,3,"180a1f6",47,1
"4925",1,1,545,3,3,3,"180a1f6",48,1
"5025",1,0,361,6,1,3,"180a1f6",49,1
"5129",1,0,435,1,4,3,"180a1f6",50,1
"5227",1,1,351,5,5,3,"180a1f6",51,1
"5325",-1,-1,0,3,1,3,"180a1f6",52,1
"5425",-1,-1,0,2,2,3,"180a1f6",53,1
"5525",1,1,436,4,4,3,"180a1f6",54,1
"5625",1,1,288,6,6,3,"180a1f6",55,1
"5725",1,1,1616,2,2,3,"180a1f6",56,1
"5825",1,1,537,4,4,3,"180a1f6",57,1
"5925",1,1,431,5,5,3,"180a1f6",58,1
"6025",1,0,404,1,6,3,"180a1f6",59,1
"6129",1,0,490,1,4,3,"180a1f6",60,1
"6227",-1,-1,0,3,3,3,"180a1f6",61,1
"6325",1,0,371,1,2,3,"180a1f6",62,1
"6425",1,0,583,5,1,3,"180a1f6",63,1
"6525",1,0,634,3,1,3,"180a1f6",64,1
"6624",1,1,413,6,6,3,"180a1f6",65,1
"6724",1,1,373,1,1,3,"180a1f6",66,1
"6824",-1,-1,0,2,1,3,"180a1f6",67,1
"6924",1,0,458,3,1,3,"180a1f6",68,1
"7024",1,0,680,5,1,3,"180a1f6",69,1
"7128",1,1,985,3,3,3,"180a1f6",70,1
"7225",-1,-1,0,6,6,3,"180a1f6",71,1
"7324",1,1,466,2,2,3,"180a1f6",72,1
"7424",1,1,350,4,4,3,"180a1f6",73,1
"7524",-1,-1,0,1,4,3,"180a1f6",74,1
"7624",-1,-1,0,5,5,3,"180a1f6",75,1
"7724",1,1,349,1,1,3,"180a1f6",76,1
"7824",1,0,389,6,1,3,"180a1f6",77,1
"2130",1,0,423,1,3,2,"551e044",1,1
"3130",0,0,607,6,6,2,"551e044",2,1
"4130",1,0,275,1,6,2,"551e044",3,1
"5130",1,1,280,1,1,2,"551e044",4,1
"6130",1,1,273,3,3,2,"551e044",5,1
"7101",1,1,260,4,4,2,"551e044",6,1
"826",1,0,287,2,1,2,"551e044",7,1
"926",1,1,251,5,5,2,"551e044",8,1
"1026",1,1,283,2,2,2,"551e044",9,1
"1126",1,0,234,1,5,2,"551e044",10,1
"1226",0,1,148,1,4,2,"551e044",11,1
"1326",1,1,1005,5,5,2,"551e044",12,1
"1426",0,1,552,2,1,2,"551e044",13,1
"1526",1,1,272,3,3,2,"551e044",14,1
"1626",1,1,261,6,6,2,"551e044",15,1
"1726",1,1,330,2,2,2,"551e044",16,1
"1826",0,0,1129,1,1,2,"551e044",17,1
"1926",1,0,276,3,1,2,"551e044",18,1
"2026",0,1,349,5,1,2,"551e044",19,1
"2131",0,1,344,4,1,2,"551e044",20,1
"2228",0,1,419,1,6,2,"551e044",21,1
"2326",1,1,357,4,4,2,"551e044",22,1
"2426",0,1,679,2,1,2,"551e044",23,1
"2526",1,1,302,6,6,2,"551e044",24,1
"2626",1,1,271,3,3,2,"551e044",25,1
"2726",0,1,260,6,1,2,"551e044",26,1
"2826",1,1,224,5,5,2,"551e044",27,1
"2926",0,1,293,1,4,2,"551e044",28,1
"3026",0,0,218,4,4,2,"551e044",29,1
"3131",1,1,265,1,1,2,"551e044",30,1
"3228",1,1,239,2,2,2,"551e044",31,1
"3326",0,1,261,1,5,2,"551e044",32,1
"3426",1,0,469,3,1,2,"551e044",33,1
"3526",0,1,247,1,5,2,"551e044",34,1
"3626",1,1,196,5,5,2,"551e044",35,1
"3726",0,1,214,2,1,2,"551e044",36,1
"3826",1,1,236,3,3,2,"551e044",37,1
"3926",0,1,251,1,6,2,"551e044",38,1
"4026",1,1,261,2,2,2,"551e044",39,1
"4131",1,1,255,1,1,2,"551e044",40,1
"4228",0,0,109,4,4,2,"551e044",41,1
"4326",0,1,232,1,3,2,"551e044",42,1
"4426",1,1,300,6,6,2,"551e044",43,1
"4526",0,1,347,4,1,2,"551e044",44,1
"4626",1,1,304,3,3,2,"551e044",45,1
"4726",0,1,248,4,1,2,"551e044",46,1
"4826",0,1,318,1,5,2,"551e044",47,1
"4926",0,1,314,1,6,2,"551e044",48,1
"5026",1,1,153,2,2,2,"551e044",49,1
"5131",1,1,229,5,5,2,"551e044",50,1
"5228",1,1,251,1,1,2,"551e044",51,1
"5326",1,1,261,4,4,2,"551e044",52,1
"5426",1,1,258,6,6,2,"551e044",53,1
"5526",0,1,376,3,1,2,"551e044",54,1
"5626",1,0,304,2,1,2,"551e044",55,1
"5726",1,1,210,2,2,2,"551e044",56,1
"5826",1,1,452,1,1,2,"551e044",57,1
"5926",0,1,259,1,6,2,"551e044",58,1
"6026",1,1,336,4,4,2,"551e044",59,1
"6131",1,1,311,5,5,2,"551e044",60,1
"6228",0,1,359,1,4,2,"551e044",61,1
"6326",1,0,276,3,1,2,"551e044",62,1
"6426",1,1,225,3,3,2,"551e044",63,1
"6526",1,1,277,6,6,2,"551e044",64,1
"6625",0,1,301,1,5,2,"551e044",65,1
"6725",1,0,343,1,2,2,"551e044",66,1
"6825",0,1,61,2,1,2,"551e044",67,1
"6925",0,1,351,3,1,2,"551e044",68,1
"7025",0,1,439,6,1,2,"551e044",69,1
"7129",0,1,394,5,1,2,"551e044",70,1
"7226",0,1,339,1,4,2,"551e044",71,1
"7325",1,1,247,5,5,2,"551e044",72,1
"7425",1,1,400,4,4,2,"551e044",73,1
"7525",1,1,313,1,1,2,"551e044",74,1
"7625",1,1,746,2,2,2,"551e044",75,1
"7725",1,1,386,6,6,2,"551e044",76,1
"7825",1,1,331,3,3,2,"551e044",77,1
"2132",1,1,421,5,5,1,"1cde123",1,1
"3132",1,0,302,1,5,1,"1cde123",2,1
"4132",1,1,407,2,2,1,"1cde123",3,1
"5132",1,1,420,3,3,1,"1cde123",4,1
"6132",1,0,285,1,6,1,"1cde123",5,1
"7102",1,0,297,1,2,1,"1cde123",6,1
"827",0,0,495,4,4,1,"1cde123",7,1
"927",0,1,297,1,3,1,"1cde123",8,1
"1027",0,1,311,4,1,1,"1cde123",9,1
"1127",0,0,360,1,1,1,"1cde123",10,1
"1227",1,1,359,6,6,1,"1cde123",11,1
"1327",1,1,246,2,2,1,"1cde123",12,1
"1427",1,0,399,1,4,1,"1cde123",13,1
"1527",1,0,477,1,6,1,"1cde123",14,1
"1627",0,0,354,1,1,1,"1cde123",15,1
"1727",1,0,365,2,1,1,"1cde123",16,1
"1827",1,1,301,3,3,1,"1cde123",17,1
"1927",1,1,406,4,4,1,"1cde123",18,1
"2027",1,0,338,5,1,1,"1cde123",19,1
"2133",1,1,319,6,6,1,"1cde123",20,1
"2229",1,0,437,3,1,1,"1cde123",21,1
"2327",0,0,324,5,5,1,"1cde123",22,1
"2427",1,0,303,1,2,1,"1cde123",23,1
"2527",1,0,252,6,1,1,"1cde123",24,1
"2627",1,1,390,1,1,1,"1cde123",25,1
"2727",1,0,326,1,3,1,"1cde123",26,1
"2827",1,1,223,4,4,1,"1cde123",27,1
"2927",0,0,334,2,2,1,"1cde123",28,1
"3027",1,1,383,6,6,1,"1cde123",29,1
"3133",1,1,321,5,5,1,"1cde123",30,1
"3229",1,0,275,1,4,1,"1cde123",31,1
"3327",1,1,335,3,3,1,"1cde123",32,1
"3427",1,0,264,5,1,1,"1cde123",33,1
"3527",0,1,265,1,4,1,"1cde123",34,1
"3627",1,0,622,3,1,1,"1cde123",35,1
"3727",0,1,306,1,2,1,"1cde123",36,1
"3827",1,1,281,1,1,1,"1cde123",37,1
"3927",1,0,347,6,1,1,"1cde123",38,1
"4027",1,1,323,6,6,1,"1cde123",39,1
"4133",1,0,206,1,5,1,"1cde123",40,1
"4229",1,1,550,4,4,1,"1cde123",41,1
"4327",1,1,295,2,2,1,"1cde123",42,1
"4427",1,1,304,5,5,1,"1cde123",43,1
"4527",1,1,364,3,3,1,"1cde123",44,1
"4627",1,1,324,3,3,1,"1cde123",45,1
"4727",1,1,273,2,2,1,"1cde123",46,1
"4827",1,1,349,6,6,1,"1cde123",47,1
"4927",1,0,354,3,1,1,"1cde123",48,1
"5027",1,0,381,6,1,1,"1cde123",49,1
"5133",1,1,347,4,4,1,"1cde123",50,1
"5229",0,1,354,5,1,1,"1cde123",51,1
"5327",0,1,298,1,2,1,"1cde123",52,1
"5427",0,0,274,5,5,1,"1cde123",53,1
"5527",0,1,385,1,4,1,"1cde123",54,1
"5627",0,0,393,1,1,1,"1cde123",55,1
"5727",1,0,260,2,1,1,"1cde123",56,1
"5827",0,0,427,4,4,1,"1cde123",57,1
"5927",1,1,384,3,3,1,"1cde123",58,1
"6027",1,1,342,5,5,1,"1cde123",59,1
"6133",1,0,361,1,4,1,"1cde123",60,1
"6229",0,0,400,1,1,1,"1cde123",61,1
"6327",1,0,350,3,1,1,"1cde123",62,1
"6427",1,0,343,1,5,1,"1cde123",63,1
"6527",0,1,543,6,1,1,"1cde123",64,1
"6626",1,1,345,6,6,1,"1cde123",65,1
"6726",1,1,295,2,2,1,"1cde123",66,1
"6826",1,1,368,4,4,1,"1cde123",67,1
"6926",0,1,334,1,6,1,"1cde123",68,1
"7026",1,1,400,2,2,1,"1cde123",69,1
"7130",0,1,462,4,1,1,"1cde123",70,1
"7227",1,1,407,3,3,1,"1cde123",71,1
"7326",1,1,336,5,5,1,"1cde123",72,1
"7426",1,0,376,1,2,1,"1cde123",73,1
"7526",0,1,432,1,3,1,"1cde123",74,1
"7626",1,1,325,1,1,1,"1cde123",75,1
"7726",1,1,302,6,6,1,"1cde123",76,1
"7826",1,0,503,5,1,1,"1cde123",77,1
"2134",0,1,1107,3,1,2,"3dab45e",1,1
"3134",1,1,879,6,6,2,"3dab45e",2,1
"4134",1,1,329,1,1,2,"3dab45e",3,1
"5134",0,1,406,2,1,2,"3dab45e",4,1
"6134",0,1,1249,4,1,2,"3dab45e",5,1
"7103",1,1,1139,5,5,2,"3dab45e",6,1
"828",0,1,868,1,6,2,"3dab45e",7,1
"928",1,1,1197,4,4,2,"3dab45e",8,1
"1028",1,1,595,2,2,2,"3dab45e",9,1
"1128",1,0,1189,5,1,2,"3dab45e",10,1
"1228",1,1,718,3,3,2,"3dab45e",11,1
"1328",0,1,1898,2,1,2,"3dab45e",12,1
"1428",0,0,1318,2,2,2,"3dab45e",13,1
"1528",0,1,798,6,1,2,"3dab45e",14,1
"1628",1,1,559,5,5,2,"3dab45e",15,1
"1728",1,1,1261,6,6,2,"3dab45e",16,1
"1828",1,1,829,3,3,2,"3dab45e",17,1
"1928",0,1,1382,5,1,2,"3dab45e",18,1
"2028",0,1,311,1,4,2,"3dab45e",19,1
"2135",1,1,918,1,1,2,"3dab45e",20,1
"2230",0,1,1243,1,3,2,"3dab45e",21,1
"2328",1,1,749,4,4,2,"3dab45e",22,1
"2428",0,1,242,1,5,2,"3dab45e",23,1
"2528",1,1,59,4,4,2,"3dab45e",24,1
"2628",1,1,245,3,3,2,"3dab45e",25,1
"2728",1,0,1987,1,3,2,"3dab45e",26,1
"2828",1,1,581,6,6,2,"3dab45e",27,1
"2928",0,1,749,2,1,2,"3dab45e",28,1
"3028",1,0,843,1,4,2,"3dab45e",29,1
"3135",1,1,784,1,1,2,"3dab45e",30,1
"3230",0,1,1048,6,1,2,"3dab45e",31,1
"3328",1,1,1478,5,5,2,"3dab45e",32,1
"3428",1,1,728,2,2,2,"3dab45e",33,1
"3528",1,1,401,3,3,2,"3dab45e",34,1
"3628",1,1,1237,2,2,2,"3dab45e",35,1
"3728",0,1,520,2,1,2,"3dab45e",36,1
"3828",0,1,1407,1,6,2,"3dab45e",37,1
"3928",0,1,353,5,1,2,"3dab45e",38,1
"4028",1,1,756,1,1,2,"3dab45e",39,1
"4135",1,1,254,6,6,2,"3dab45e",40,1
"4230",1,1,192,5,5,2,"3dab45e",41,1
"4328",0,1,132,1,4,2,"3dab45e",42,1
"4428",1,1,105,4,4,2,"3dab45e",43,1
"4528",1,0,308,1,3,2,"3dab45e",44,1
"4628",1,1,306,3,3,2,"3dab45e",45,1
"4728",1,1,256,5,5,2,"3dab45e",46,1
"4828",1,1,251,2,2,2,"3dab45e",47,1
"4928",0,1,323,3,1,2,"3dab45e",48,1
"5028",0,1,826,1,2,2,"3dab45e",49,1
"5135",1,1,678,4,4,2,"3dab45e",50,1
"5230",0,1,497,1,5,2,"3dab45e",51,1
"5328",1,1,308,6,6,2,"3dab45e",52,1
"5428",0,1,489,6,1,2,"3dab45e",53,1
"5528",0,1,237,4,1,2,"3dab45e",54,1
"5628",1,1,693,1,1,2,"3dab45e",55,1
"5728",1,1,261,6,6,2,"3dab45e",56,1
"5828",0,1,313,1,5,2,"3dab45e",57,1
"5928",1,1,301,3,3,2,"3dab45e",58,1
"6028",0,1,127,3,1,2,"3dab45e",59,1
"6135",1,1,190,2,2,2,"3dab45e",60,1
"6230",0,1,816,2,1,2,"3dab45e",61,1
"6328",1,1,318,4,4,2,"3dab45e",62,1
"6428",1,1,289,5,5,2,"3dab45e",63,1
"6528",1,1,155,1,1,2,"3dab45e",64,1
"6627",0,1,83,1,4,2,"3dab45e",65,1
"6727",0,1,307,6,1,2,"3dab45e",66,1
"6827",1,1,59,3,3,2,"3dab45e",67,1
"6927",1,1,935,6,6,2,"3dab45e",68,1
"7027",1,1,225,2,2,2,"3dab45e",69,1
"7131",1,1,261,1,1,2,"3dab45e",70,1
"7228",1,1,315,4,4,2,"3dab45e",71,1
"7327",0,1,371,4,1,2,"3dab45e",72,1
"7427",0,1,849,6,1,2,"3dab45e",73,1
"7527",1,1,302,5,5,2,"3dab45e",74,1
"7627",1,0,328,2,1,2,"3dab45e",75,1
"7727",1,0,721,1,3,2,"3dab45e",76,1
"7827",0,1,348,1,5,2,"3dab45e",77,1
"2136",1,0,270,3,1,1,"16fa6e0",1,1
"3136",1,1,257,1,1,1,"16fa6e0",2,1
"4136",1,0,222,1,2,1,"16fa6e0",3,1
"5136",1,1,56,2,2,1,"16fa6e0",4,1
"6136",1,0,195,1,4,1,"16fa6e0",5,1
"7104",0,1,70,1,6,1,"16fa6e0",6,1
"829",1,0,180,1,5,1,"16fa6e0",7,1
"929",1,1,39,4,4,1,"16fa6e0",8,1
"1029",1,1,112,6,6,1,"16fa6e0",9,1
"1129",0,0,282,5,5,1,"16fa6e0",10,1
"1229",1,1,292,3,3,1,"16fa6e0",11,1
"1329",0,0,67,5,5,1,"16fa6e0",12,1
"1429",1,0,213,6,1,1,"16fa6e0",13,1
"1529",1,1,202,6,6,1,"16fa6e0",14,1
"1629",1,1,1145,2,2,1,"16fa6e0",15,1
"1729",1,0,265,3,1,1,"16fa6e0",16,1
"1829",1,0,1498,5,1,1,"16fa6e0",17,1
"1929",1,0,187,4,1,1,"16fa6e0",18,1
"2029",0,0,313,4,4,1,"16fa6e0",19,1
"2137",1,0,1994,2,1,1,"16fa6e0",20,1
"2231",1,1,1918,1,1,1,"16fa6e0",21,1
"2329",0,0,1845,3,3,1,"16fa6e0",22,1
"2429",1,1,1329,2,2,1,"16fa6e0",23,1
"2529",1,1,1537,6,6,1,"16fa6e0",24,1
"2629",1,0,1999,1,3,1,"16fa6e0",25,1
"2729",1,1,1099,1,1,1,"16fa6e0",26,1
"2829",0,1,1076,1,2,1,"16fa6e0",27,1
"2929",1,1,1060,3,3,1,"16fa6e0",28,1
"3029",1,0,1197,5,1,1,"16fa6e0",29,1
"3137",1,1,1348,4,4,1,"16fa6e0",30,1
"3231",1,1,1720,5,5,1,"16fa6e0",31,1
"3329",0,1,650,1,4,1,"16fa6e0",32,1
"3429",1,0,96,6,1,1,"16fa6e0",33,1
"3529",1,1,529,5,5,1,"16fa6e0",34,1
"3629",0,0,341,2,2,1,"16fa6e0",35,1
"3729",0,1,348,2,1,1,"16fa6e0",36,1
"3829",0,0,236,4,4,1,"16fa6e0",37,1
"3929",1,0,966,3,1,1,"16fa6e0",38,1
"4029",1,0,1312,4,1,1,"16fa6e0",39,1
"4137",1,1,303,3,3,1,"16fa6e0",40,1
"4231",0,1,278,1,6,1,"16fa6e0",41,1
"4329",1,1,440,6,6,1,"16fa6e0",42,1
"4429",0,0,289,1,1,1,"16fa6e0",43,1
"4529",0,1,396,5,1,1,"16fa6e0",44,1
"4629",0,0,640,1,1,1,"16fa6e0",45,1
"4729",1,1,1998,2,2,1,"16fa6e0",46,1
"4829",1,1,1424,4,4,1,"16fa6e0",47,1
"4929",1,0,354,1,5,1,"16fa6e0",48,1
"5029",0,1,413,6,1,1,"16fa6e0",49,1
"5137",1,0,1377,3,1,1,"16fa6e0",50,1
"5231",1,0,473,1,2,1,"16fa6e0",51,1
"5329",0,0,379,6,6,1,"16fa6e0",52,1
"5429",0,0,744,3,3,1,"16fa6e0",53,1
"5529",1,0,1096,4,1,1,"16fa6e0",54,1
"5629",1,1,1019,5,5,1,"16fa6e0",55,1
"5729",1,1,1318,1,1,1,"16fa6e0",56,1
"5829",1,1,880,6,6,1,"16fa6e0",57,1
"5929",1,1,841,5,5,1,"16fa6e0",58,1
"6029",0,0,807,2,2,1,"16fa6e0",59,1
"6137",1,1,147,4,4,1,"16fa6e0",60,1
"6231",1,0,100,1,3,1,"16fa6e0",61,1
"6329",1,0,913,1,6,1,"16fa6e0",62,1
"6429",0,1,279,1,2,1,"16fa6e0",63,1
"6529",0,1,951,1,5,1,"16fa6e0",64,1
"6628",0,1,271,4,1,1,"16fa6e0",65,1
"6728",-1,0,1999,3,3,1,"16fa6e0",66,1
"6828",0,1,291,1,6,1,"16fa6e0",67,1
"6928",1,1,301,6,6,1,"16fa6e0",68,1
"7028",0,1,304,1,4,1,"16fa6e0",69,1
"7132",1,1,376,4,4,1,"16fa6e0",70,1
"7229",1,1,578,3,3,1,"16fa6e0",71,1
"7328",1,1,543,5,5,1,"16fa6e0",72,1
"7428",1,1,429,1,1,1,"16fa6e0",73,1
"7528",1,0,443,2,1,1,"16fa6e0",74,1
"7628",1,1,638,2,2,1,"16fa6e0",75,1
"7728",0,1,554,1,3,1,"16fa6e0",76,1
"7828",0,1,690,5,1,1,"16fa6e0",77,1
"2138",1,0,809,4,1,1,"113e3c8",1,1
"3138",1,1,449,5,5,1,"113e3c8",2,1
"4138",0,1,358,5,1,1,"113e3c8",3,1
"5138",1,1,454,3,3,1,"113e3c8",4,1
"6138",1,1,488,6,6,1,"113e3c8",5,1
"7105",1,1,706,4,4,1,"113e3c8",6,1
"830",1,0,419,1,2,1,"113e3c8",7,1
"930",0,1,405,6,1,1,"113e3c8",8,1
"1030",1,1,515,2,2,1,"113e3c8",9,1
"1130",0,1,469,3,1,1,"113e3c8",10,1
"1230",1,1,36,1,1,1,"113e3c8",11,1
"1330",0,1,284,6,1,1,"113e3c8",12,1
"1430",1,1,272,5,5,1,"113e3c8",13,1
"1530",1,1,256,4,4,1,"113e3c8",14,1
"1630",0,1,657,1,4,1,"113e3c8",15,1
"1730",1,1,51,6,6,1,"113e3c8",16,1
"1830",0,1,403,5,1,1,"113e3c8",17,1
"1930",0,1,246,3,1,1,"113e3c8",18,1
"2030",1,1,271,2,2,1,"113e3c8",19,1
"2139",1,0,223,2,1,1,"113e3c8",20,1
"2232",1,1,297,3,3,1,"113e3c8",21,1
"2330",1,1,211,1,1,1,"113e3c8",22,1
"2430",1,1,278,1,1,1,"113e3c8",23,1
"2530",1,0,439,1,2,1,"113e3c8",24,1
"2630",0,1,511,1,5,1,"113e3c8",25,1
"2730",1,1,50,5,5,1,"113e3c8",26,1
"2830",0,1,220,4,1,1,"113e3c8",27,1
"2930",0,1,274,1,6,1,"113e3c8",28,1
"3030",0,1,452,1,3,1,"113e3c8",29,1
"3139",1,1,630,4,4,1,"113e3c8",30,1
"3232",1,1,520,6,6,1,"113e3c8",31,1
"3330",1,1,323,2,2,1,"113e3c8",32,1
"3430",1,1,46,3,3,1,"113e3c8",33,1
"3530",0,0,55,6,6,1,"113e3c8",34,1
"3630",1,0,786,2,1,1,"113e3c8",35,1
"3730",1,1,115,1,1,1,"113e3c8",36,1
"3830",0,1,304,1,6,1,"113e3c8",37,1
"3930",1,1,114,3,3,1,"113e3c8",38,1
"4030",1,0,677,1,3,1,"113e3c8",39,1
"4139",1,0,469,1,4,1,"113e3c8",40,1
"4232",1,1,53,4,4,1,"113e3c8",41,1
"4330",1,1,1002,2,2,1,"113e3c8",42,1
"4430",0,1,12,1,5,1,"113e3c8",43,1
"4530",1,1,544,5,5,1,"113e3c8",44,1
"4630",1,1,518,6,6,1,"113e3c8",45,1
"4730",1,1,1561,1,1,1,"113e3c8",46,1
"4830",0,1,9,6,1,1,"113e3c8",47,1
"4930",1,1,613,2,2,1,"113e3c8",48,1
"5030",0,1,278,1,4,1,"113e3c8",49,1
"5139",0,1,96,1,5,1,"113e3c8",50,1
"5232",1,1,241,4,4,1,"113e3c8",51,1
"5330",1,1,155,5,5,1,"113e3c8",52,1
"5430",1,0,729,1,2,1,"113e3c8",53,1
"5530",0,1,95,3,1,1,"113e3c8",54,1
"5630",1,1,257,3,3,1,"113e3c8",55,1
"5730",0,1,353,1,3,1,"113e3c8",56,1
"5830",0,1,648,4,1,1,"113e3c8",57,1
"5930",1,1,99,5,5,1,"113e3c8",58,1
"6030",0,1,236,1,6,1,"113e3c8",59,1
"6139",1,0,159,2,1,1,"113e3c8",60,1
"6232",1,1,312,1,1,1,"113e3c8",61,1
"6330",1,1,268,4,4,1,"113e3c8",62,1
"6430",1,1,303,6,6,1,"113e3c8",63,1
"6530",1,1,312,3,3,1,"113e3c8",64,1
"6629",1,1,353,2,2,1,"113e3c8",65,1
"6729",0,1,65,5,1,1,"113e3c8",66,1
"6829",0,1,131,1,3,1,"113e3c8",67,1
"6929",1,1,318,1,1,1,"113e3c8",68,1
"7029",0,1,119,1,4,1,"113e3c8",69,1
"7133",1,1,203,5,5,1,"113e3c8",70,1
"7230",0,1,293,2,1,1,"113e3c8",71,1
"7329",1,1,495,4,4,1,"113e3c8",72,1
"7429",0,1,217,6,1,1,"113e3c8",73,1
"7529",1,1,186,2,2,1,"113e3c8",74,1
"7629",1,1,131,6,6,1,"113e3c8",75,1
"7729",1,1,450,3,3,1,"113e3c8",76,1
"7829",0,1,663,1,5,1,"113e3c8",77,1
"2140",-1,-1,0,2,2,3,"120b673",1,1
"3140",0,1,1286,5,1,3,"120b673",2,1
"4140",1,1,359,1,1,3,"120b673",3,1
"5140",1,1,282,6,6,3,"120b673",4,1
"6140",0,1,372,1,6,3,"120b673",5,1
"7106",0,1,326,4,1,3,"120b673",6,1
"831",1,1,336,4,4,3,"120b673",7,1
"931",0,1,298,3,1,3,"120b673",8,1
"1031",1,0,281,2,1,3,"120b673",9,1
"1131",1,1,237,3,3,3,"120b673",10,1
"1231",1,1,532,5,5,3,"120b673",11,1
"1331",1,1,281,1,1,3,"120b673",12,1
"1431",1,1,1485,6,6,3,"120b673",13,1
"1531",0,1,258,1,5,3,"120b673",14,1
"1631",1,1,320,2,2,3,"120b673",15,1
"1731",0,1,299,1,4,3,"120b673",16,1
"1831",0,1,241,3,1,3,"120b673",17,1
"1931",1,1,393,5,5,3,"120b673",18,1
"2031",0,1,297,6,1,3,"120b673",19,1
"2141",1,0,259,1,2,3,"120b673",20,1
"2233",1,1,310,3,3,3,"120b673",21,1
"2331",1,1,371,4,4,3,"120b673",22,1
"2431",1,1,245,3,3,3,"120b673",23,1
"2531",0,1,415,1,4,3,"120b673",24,1
"2631",0,1,246,5,1,3,"120b673",25,1
"2731",0,1,248,1,3,3,"120b673",26,1
"2831",1,1,372,5,5,3,"120b673",27,1
"2931",1,1,325,1,1,3,"120b673",28,1
"3031",0,1,277,1,6,3,"120b673",29,1
"3141",1,1,378,2,2,3,"120b673",30,1
"3233",1,0,570,2,1,3,"120b673",31,1
"3331",1,1,501,4,4,3,"120b673",32,1
"3431",1,1,272,6,6,3,"120b673",33,1
"3531",0,0,349,6,6,3,"120b673",34,1
"3631",1,1,283,1,1,3,"120b673",35,1
"3731",1,1,337,5,5,3,"120b673",36,1
"3831",1,1,631,4,4,3,"120b673",37,1
"3931",0,1,275,4,1,3,"120b673",38,1
"4031",0,1,358,6,1,3,"120b673",39,1
"4141",1,1,392,3,3,3,"120b673",40,1
"4233",1,1,257,2,2,3,"120b673",41,1
"4331",0,1,421,1,5,3,"120b673",42,1
"4431",0,1,264,1,2,3,"120b673",43,1
"4531",0,1,307,3,1,3,"120b673",44,1
"4631",0,1,276,1,4,3,"120b673",45,1
"4731",1,1,385,5,5,3,"120b673",46,1
"4831",0,1,270,1,3,3,"120b673",47,1
"4931",1,0,202,2,1,3,"120b673",48,1
"5031",0,1,276,5,1,3,"120b673",49,1
"5141",1,1,278,3,3,3,"120b673",50,1
"5233",0,0,245,2,2,3,"120b673",51,1
"5331",1,0,337,1,6,3,"120b673",52,1
"5431",1,1,287,1,1,3,"120b673",53,1
"5531",1,1,329,4,4,3,"120b673",54,1
"5631",1,1,329,6,6,3,"120b673",55,1
"5731",0,1,279,1,5,3,"120b673",56,1
"5831",1,1,289,5,5,3,"120b673",57,1
"5931",1,1,934,2,2,3,"120b673",58,1
"6031",1,0,456,2,1,3,"120b673",59,1
"6141",1,1,259,4,4,3,"120b673",60,1
"6233",1,1,301,3,3,3,"120b673",61,1
"6331",1,1,285,1,1,3,"120b673",62,1
"6431",1,1,282,6,6,3,"120b673",63,1
"6531",0,1,315,6,1,3,"120b673",64,1
"6630",0,1,299,4,1,3,"120b673",65,1
"6730",0,1,1522,1,3,3,"120b673",66,1
"6830",0,1,854,4,1,3,"120b673",67,1
"6930",1,1,903,5,5,3,"120b673",68,1
"7030",1,1,288,1,1,3,"120b673",69,1
"7134",1,1,140,3,3,3,"120b673",70,1
"7231",1,1,363,2,2,3,"120b673",71,1
"7330",0,1,347,5,1,3,"120b673",72,1
"7430",0,1,569,3,1,3,"120b673",73,1
"7530",0,1,320,2,1,3,"120b673",74,1
"7630",1,1,310,6,6,3,"120b673",75,1
"7730",0,1,265,6,1,3,"120b673",76,1
"7830",1,1,628,4,4,3,"120b673",77,1
"2142",1,1,1612,4,4,2,"11763c2",1,1
"3142",1,1,511,2,2,2,"11763c2",2,1
"4142",0,1,232,6,1,2,"11763c2",3,1
"5142",1,1,243,5,5,2,"11763c2",4,1
"6142",0,0,142,1,1,2,"11763c2",5,1
"7107",0,1,357,3,1,2,"11763c2",6,1
"832",1,0,174,2,1,2,"11763c2",7,1
"932",1,1,1807,6,6,2,"11763c2",8,1
"1032",1,1,92,3,3,2,"11763c2",9,1
"1132",0,1,208,5,1,2,"11763c2",10,1
"1232",0,1,197,1,4,2,"11763c2",11,1
"1332",0,1,169,1,5,2,"11763c2",12,1
"1432",1,1,401,5,5,2,"11763c2",13,1
"1532",1,1,174,3,3,2,"11763c2",14,1
"1632",0,1,1104,6,1,2,"11763c2",15,1
"1732",0,1,295,3,1,2,"11763c2",16,1
"1832",0,1,1245,1,4,2,"11763c2",17,1
"1932",0,0,691,6,6,2,"11763c2",18,1
"2032",1,0,209,2,1,2,"11763c2",19,1
"2143",1,1,338,1,1,2,"11763c2",20,1
"2234",1,1,272,4,4,2,"11763c2",21,1
"2332",1,1,646,2,2,2,"11763c2",22,1
"2432",1,0,56,4,1,2,"11763c2",23,1
"2532",1,1,370,3,3,2,"11763c2",24,1
"2632",1,1,294,4,4,2,"11763c2",25,1
"2732",1,0,368,1,2,2,"11763c2",26,1
"2832",0,1,226,1,3,2,"11763c2",27,1
"2932",0,1,136,5,1,2,"11763c2",28,1
"3032",1,1,276,1,1,2,"11763c2",29,1
"3143",1,1,493,2,2,2,"11763c2",30,1
"3234",1,1,995,5,5,2,"11763c2",31,1
"3332",-1,-1,0,1,6,2,"11763c2",32,1
"3432",1,1,200,6,6,2,"11763c2",33,1
"3532",0,1,284,1,5,2,"11763c2",34,1
"3632",0,1,612,1,6,2,"11763c2",35,1
"3732",1,1,1396,2,2,2,"11763c2",36,1
"3832",1,1,214,5,5,2,"11763c2",37,1
"3932",1,1,126,4,4,2,"11763c2",38,1
"4032",1,1,219,1,1,2,"11763c2",39,1
"4143",1,1,933,6,6,2,"11763c2",40,1
"4234",0,1,118,1,4,2,"11763c2",41,1
"4332",1,1,564,3,3,2,"11763c2",42,1
"4432",0,1,324,1,3,2,"11763c2",43,1
"4532",0,1,627,2,1,2,"11763c2",44,1
"4632",0,1,1210,2,1,2,"11763c2",45,1
"4732",1,1,63,3,3,2,"11763c2",46,1
"4832",-1,-1,0,5,5,2,"11763c2",47,1
"4932",1,1,477,4,4,2,"11763c2",48,1
"5032",0,1,416,3,1,2,"11763c2",49,1
"5143",1,1,246,6,6,2,"11763c2",50,1
"5234",0,1,1335,1,6,2,"11763c2",51,1
"5332",0,1,254,4,1,2,"11763c2",52,1
"5432",0,1,401,5,1,2,"11763c2",53,1
"5532",1,1,588,1,1,2,"11763c2",54,1
"5632",1,1,305,2,2,2,"11763c2",55,1
"5732",0,1,566,1,3,2,"11763c2",56,1
"5832",0,1,883,1,4,2,"11763c2",57,1
"5932",1,1,353,1,1,2,"11763c2",58,1
"6032",1,1,1778,3,3,2,"11763c2",59,1
"6143",1,1,1652,5,5,2,"11763c2",60,1
"6234",0,1,1811,5,1,2,"11763c2",61,1
"6332",0,1,1973,6,1,2,"11763c2",62,1
"6432",1,1,1998,4,4,2,"11763c2",63,1
"6532",0,1,1744,2,1,2,"11763c2",64,1
"6631",1,1,918,6,6,2,"11763c2",65,1
"6731",1,1,425,2,2,2,"11763c2",66,1
"6831",0,1,253,5,1,2,"11763c2",67,1
"6931",1,1,517,5,5,2,"11763c2",68,1
"7031",0,1,1786,2,1,2,"11763c2",69,1
"7135",-1,-1,0,2,2,2,"11763c2",70,1
"7232",1,1,726,3,3,2,"11763c2",71,1
"7331",0,1,792,6,1,2,"11763c2",72,1
"7431",1,1,1952,6,6,2,"11763c2",73,1
"7531",1,1,1900,4,4,2,"11763c2",74,1
"7631",1,1,1766,1,1,2,"11763c2",75,1
"7731",0,1,1194,1,4,2,"11763c2",76,1
"7831",0,1,991,3,1,2,"11763c2",77,1
"2144",1,1,647,4,4,3,"125cce5",1,1
"3144",1,0,378,2,1,3,"125cce5",2,1
"4144",1,1,516,1,1,3,"125cce5",3,1
"5144",1,0,320,6,1,3,"125cce5",4,1
"6144",1,1,369,2,2,3,"125cce5",5,1
"7108",1,0,245,1,4,3,"125cce5",6,1
"833",1,1,265,5,5,3,"125cce5",7,1
"933",0,0,299,6,6,3,"125cce5",8,1
"1033",1,0,270,1,5,3,"125cce5",9,1
"1133",1,1,400,3,3,3,"125cce5",10,1
"1233",1,0,291,3,1,3,"125cce5",11,1
"1333",0,1,284,1,2,3,"125cce5",12,1
"1433",1,0,472,4,1,3,"125cce5",13,1
"1533",1,1,244,3,3,3,"125cce5",14,1
"1633",0,1,272,6,1,3,"125cce5",15,1
"1733",0,1,385,1,5,3,"125cce5",16,1
"1833",1,1,333,5,5,3,"125cce5",17,1
"1933",1,1,359,1,1,3,"125cce5",18,1
"2033",0,1,988,1,3,3,"125cce5",19,1
"2145",1,1,296,4,4,3,"125cce5",20,1
"2235",1,1,295,2,2,3,"125cce5",21,1
"2333",1,1,315,6,6,3,"125cce5",22,1
"2433",1,1,323,1,1,3,"125cce5",23,1
"2533",1,1,420,3,3,3,"125cce5",24,1
"2633",1,1,307,2,2,3,"125cce5",25,1
"2733",0,1,390,1,6,3,"125cce5",26,1
"2833",0,1,531,5,1,3,"125cce5",27,1
"2933",1,1,337,6,6,3,"125cce5",28,1
"3033",0,1,291,1,4,3,"125cce5",29,1
"3145",0,1,266,1,3,3,"125cce5",30,1
"3235",0,1,278,1,2,3,"125cce5",31,1
"3333",1,1,289,5,5,3,"125cce5",32,1
"3433",1,1,236,4,4,3,"125cce5",33,1
"3533",0,1,304,6,1,3,"125cce5",34,1
"3633",1,1,260,6,6,3,"125cce5",35,1
"3733",1,1,281,4,4,3,"125cce5",36,1
"3833",1,1,289,1,1,3,"125cce5",37,1
"3933",1,0,275,4,1,3,"125cce5",38,1
"4033",1,1,272,3,3,3,"125cce5",39,1
"4145",1,1,288,2,2,3,"125cce5",40,1
"4235",1,1,435,5,5,3,"125cce5",41,1
"4333",1,0,248,1,5,3,"125cce5",42,1
"4433",0,1,242,2,1,3,"125cce5",43,1
"4533",1,0,283,1,3,3,"125cce5",44,1
"4633",1,1,122,2,2,3,"125cce5",45,1
"4733",0,1,337,1,2,3,"125cce5",46,1
"4833",0,1,295,4,1,3,"125cce5",47,1
"4933",0,1,290,3,1,3,"125cce5",48,1
"5033",0,1,266,5,1,3,"125cce5",49,1
"5145",1,1,266,3,3,3,"125cce5",50,1
"5235",1,1,261,1,1,3,"125cce5",51,1
"5333",1,1,246,4,4,3,"125cce5",52,1
"5433",1,1,227,6,6,3,"125cce5",53,1
"5533",0,0,281,5,5,3,"125cce5",54,1
"5633",0,1,241,6,1,3,"125cce5",55,1
"5733",1,1,239,3,3,3,"125cce5",56,1
"5833",1,1,291,6,6,3,"125cce5",57,1
"5933",1,1,259,4,4,3,"125cce5",58,1
"6033",0,1,241,4,1,3,"125cce5",59,1
"6145",0,0,297,2,2,3,"125cce5",60,1
"6235",1,1,279,1,1,3,"125cce5",61,1
"6333",0,1,228,5,1,3,"125cce5",62,1
"6433",0,1,357,2,1,3,"125cce5",63,1
"6533",0,1,302,3,1,3,"125cce5",64,1
"6632",1,1,277,5,5,3,"125cce5",65,1
"6732",0,1,401,6,1,3,"125cce5",66,1
"6832",1,1,266,1,1,3,"125cce5",67,1
"6932",0,1,336,4,1,3,"125cce5",68,1
"7032",1,1,245,4,4,3,"125cce5",69,1
"7136",1,0,329,1,2,3,"125cce5",70,1
"7233",0,1,272,5,1,3,"125cce5",71,1
"7332",1,1,294,6,6,3,"125cce5",72,1
"7432",1,0,264,1,6,3,"125cce5",73,1
"7532",1,1,249,3,3,3,"125cce5",74,1
"7632",1,1,199,2,2,3,"125cce5",75,1
"7732",1,1,425,5,5,3,"125cce5",76,1
"7832",0,1,284,1,3,3,"125cce5",77,1
"2146",0,0,1586,5,5,3,"1aafff7",1,1
"3146",1,0,441,2,1,3,"1aafff7",2,1
"4146",1,1,515,6,6,3,"1aafff7",3,1
"5146",1,1,497,3,3,3,"1aafff7",4,1
"6146",1,0,700,1,6,3,"1aafff7",5,1
"7109",0,1,491,1,4,3,"1aafff7",6,1
"834",0,0,500,1,1,3,"1aafff7",7,1
"934",1,1,476,2,2,3,"1aafff7",8,1
"1034",1,0,487,3,1,3,"1aafff7",9,1
"1134",1,1,470,4,4,3,"1aafff7",10,1
"1234",1,0,431,5,1,3,"1aafff7",11,1
"1334",0,1,685,3,1,3,"1aafff7",12,1
"1434",0,0,529,1,1,3,"1aafff7",13,1
"1534",1,1,552,3,3,3,"1aafff7",14,1
"1634",1,1,552,5,5,3,"1aafff7",15,1
"1734",1,0,625,2,1,3,"1aafff7",16,1
"1834",0,1,610,5,1,3,"1aafff7",17,1
"1934",0,1,609,6,1,3,"1aafff7",18,1
"2034",1,1,572,4,4,3,"1aafff7",19,1
"2147",1,1,611,6,6,3,"1aafff7",20,1
"2236",1,1,622,2,2,3,"1aafff7",21,1
"2334",1,0,773,4,1,3,"1aafff7",22,1
"2434",0,1,508,6,1,3,"1aafff7",23,1
"2534",1,1,719,1,1,3,"1aafff7",24,1
"2634",1,0,694,1,3,3,"1aafff7",25,1
"2734",0,1,456,1,4,3,"1aafff7",26,1
"2834",1,1,560,2,2,3,"1aafff7",27,1
"2934",1,1,697,5,5,3,"1aafff7",28,1
"3034",0,1,497,5,1,3,"1aafff7",29,1
"3147",1,1,538,4,4,3,"1aafff7",30,1
"3236",1,0,681,2,1,3,"1aafff7",31,1
"3334",1,1,459,6,6,3,"1aafff7",32,1
"3434",1,1,738,3,3,3,"1aafff7",33,1
"3534",1,1,829,4,4,3,"1aafff7",34,1
"3634",1,1,604,5,5,3,"1aafff7",35,1
"3734",1,1,661,6,6,3,"1aafff7",36,1
"3834",1,0,918,1,4,3,"1aafff7",37,1
"3934",1,0,639,1,2,3,"1aafff7",38,1
"4034",1,1,525,3,3,3,"1aafff7",39,1
"4147",1,1,616,2,2,3,"1aafff7",40,1
"4236",0,1,448,1,5,3,"1aafff7",41,1
"4334",0,1,673,1,3,3,"1aafff7",42,1
"4434",0,1,736,6,1,3,"1aafff7",43,1
"4534",1,1,667,1,1,3,"1aafff7",44,1
"4634",0,1,562,6,1,3,"1aafff7",45,1
"4734",1,1,685,5,5,3,"1aafff7",46,1
"4834",1,0,475,1,2,3,"1aafff7",47,1
"4934",1,1,612,2,2,3,"1aafff7",48,1
"5034",1,1,852,1,1,3,"1aafff7",49,1
"5147",0,0,646,4,4,3,"1aafff7",50,1
"5236",1,1,652,3,3,3,"1aafff7",51,1
"5334",1,1,631,6,6,3,"1aafff7",52,1
"5434",0,1,647,5,1,3,"1aafff7",53,1
"5534",-1,-1,0,4,1,3,"1aafff7",54,1
"5634",0,1,440,1,3,3,"1aafff7",55,1
"5734",1,1,480,3,3,3,"1aafff7",56,1
"5834",1,1,563,6,6,3,"1aafff7",57,1
"5934",1,1,513,4,4,3,"1aafff7",58,1
"6034",1,1,1020,1,1,3,"1aafff7",59,1
"6147",0,1,538,1,3,3,"1aafff7",60,1
"6236",1,0,484,2,1,3,"1aafff7",61,1
"6334",0,1,531,6,1,3,"1aafff7",62,1
"6434",1,1,621,5,5,3,"1aafff7",63,1
"6534",0,1,485,4,1,3,"1aafff7",64,1
"6633",1,1,559,2,2,3,"1aafff7",65,1
"6733",0,1,541,1,5,3,"1aafff7",66,1
"6833",0,1,639,5,1,3,"1aafff7",67,1
"6933",1,1,630,6,6,3,"1aafff7",68,1
"7033",1,1,1088,2,2,3,"1aafff7",69,1
"7137",0,1,432,3,1,3,"1aafff7",70,1
"7234",1,1,609,5,5,3,"1aafff7",71,1
"7333",1,0,442,1,2,3,"1aafff7",72,1
"7433",1,1,1730,1,1,3,"1aafff7",73,1
"7533",1,1,634,4,4,3,"1aafff7",74,1
"7633",1,1,549,3,3,3,"1aafff7",75,1
"7733",0,1,540,6,1,3,"1aafff7",76,1
"7833",0,1,638,4,1,3,"1aafff7",77,1
"2148",1,1,770,4,4,3,"1125a0b",1,1
"3148",0,1,813,1,3,3,"1125a0b",2,1
"4148",0,1,814,6,1,3,"1125a0b",3,1
"5148",1,1,1080,3,3,3,"1125a0b",4,1
"6148",0,1,569,5,1,3,"1125a0b",5,1
"7138",1,1,625,1,1,3,"1125a0b",6,1
"835",1,1,694,6,6,3,"1125a0b",7,1
"935",1,1,298,2,2,3,"1125a0b",8,1
"1035",1,1,782,5,5,3,"1125a0b",9,1
"1135",0,1,233,1,2,3,"1125a0b",10,1
"1235",0,1,962,1,4,3,"1125a0b",11,1
"1335",0,1,281,2,1,3,"1125a0b",12,1
"1435",1,1,701,5,5,3,"1125a0b",13,1
"1535",0,1,492,4,1,3,"1125a0b",14,1
"1635",1,1,252,2,2,3,"1125a0b",15,1
"1735",1,1,239,1,1,3,"1125a0b",16,1
"1835",0,1,151,5,1,3,"1125a0b",17,1
"1935",1,1,111,3,3,3,"1125a0b",18,1
"2035",1,1,294,4,4,3,"1125a0b",19,1
"2149",0,1,336,1,6,3,"1125a0b",20,1
"2237",1,1,153,6,6,3,"1125a0b",21,1
"2335",0,1,139,1,3,3,"1125a0b",22,1
"2435",1,1,643,4,4,3,"1125a0b",23,1
"2535",1,1,138,6,6,3,"1125a0b",24,1
"2635",0,1,279,1,2,3,"1125a0b",25,1
"2735",0,1,259,1,6,3,"1125a0b",26,1
"2835",0,1,301,5,1,3,"1125a0b",27,1
"2935",1,1,283,1,1,3,"1125a0b",28,1
"3035",1,1,606,5,5,3,"1125a0b",29,1
"3149",1,1,331,3,3,3,"1125a0b",30,1
"3237",1,1,219,2,2,3,"1125a0b",31,1
"3335",0,1,424,1,4,3,"1125a0b",32,1
"3435",0,1,238,3,1,3,"1125a0b",33,1
"3535",1,1,908,5,5,3,"1125a0b",34,1
"3635",0,1,43,1,6,3,"1125a0b",35,1
"3735",0,1,457,3,1,3,"1125a0b",36,1
"3835",1,1,293,3,3,3,"1125a0b",37,1
"3935",0,1,810,1,4,3,"1125a0b",38,1
"4035",1,1,323,4,4,3,"1125a0b",39,1
"4149",0,1,490,2,1,3,"1125a0b",40,1
"4237",0,1,258,5,1,3,"1125a0b",41,1
"4335",1,1,492,6,6,3,"1125a0b",42,1
"4435",1,1,1727,1,1,3,"1125a0b",43,1
"4535",1,1,518,2,2,3,"1125a0b",44,1
"4635",0,1,913,1,5,3,"1125a0b",45,1
"4735",0,1,358,2,1,3,"1125a0b",46,1
"4835",1,1,166,2,2,3,"1125a0b",47,1
"4935",1,1,588,1,1,3,"1125a0b",48,1
"5035",1,1,451,3,3,3,"1125a0b",49,1
"5149",0,1,246,1,6,3,"1125a0b",50,1
"5237",0,1,479,4,1,3,"1125a0b",51,1
"5335",1,1,335,5,5,3,"1125a0b",52,1
"5435",0,1,239,3,1,3,"1125a0b",53,1
"5535",1,1,601,4,4,3,"1125a0b",54,1
"5635",1,1,208,6,6,3,"1125a0b",55,1
"5735",1,1,609,3,3,3,"1125a0b",56,1
"5835",1,1,107,4,4,3,"1125a0b",57,1
"5935",0,1,335,1,4,3,"1125a0b",58,1
"6035",1,1,204,1,1,3,"1125a0b",59,1
"6149",0,1,113,1,3,3,"1125a0b",60,1
"6237",0,1,213,1,6,3,"1125a0b",61,1
"6335",1,1,383,5,5,3,"1125a0b",62,1
"6435",0,1,252,1,2,3,"1125a0b",63,1
"6535",1,1,140,2,2,3,"1125a0b",64,1
"6634",0,1,417,5,1,3,"1125a0b",65,1
"6734",1,1,307,6,6,3,"1125a0b",66,1
"6834",1,1,279,5,5,3,"1125a0b",67,1
"6934",1,1,422,3,3,3,"1125a0b",68,1
"7034",1,1,383,6,6,3,"1125a0b",69,1
"7139",0,1,174,1,4,3,"1125a0b",70,1
"7235",0,1,236,1,3,3,"1125a0b",71,1
"7334",0,1,313,1,5,3,"1125a0b",72,1
"7434",1,1,314,1,1,3,"1125a0b",73,1
"7534",1,1,44,4,4,3,"1125a0b",74,1
"7634",0,1,594,6,1,3,"1125a0b",75,1
"7734",1,1,63,2,2,3,"1125a0b",76,1
"7834",0,1,647,2,1,3,"1125a0b",77,1
"2150",1,0,1036,1,5,2,"11b4da8",1,1
"3150",1,0,463,4,1,2,"11b4da8",2,1
"4150",1,1,407,2,2,2,"11b4da8",3,1
"5150",1,1,601,4,4,2,"11b4da8",4,1
"6150",1,1,404,5,5,2,"11b4da8",5,1
"7140",1,1,333,1,1,2,"11b4da8",6,1
"836",1,0,357,1,2,2,"11b4da8",7,1
"936",1,0,383,1,3,2,"11b4da8",8,1
"1036",1,1,389,6,6,2,"11b4da8",9,1
"1136",1,1,346,3,3,2,"11b4da8",10,1
"1236",0,1,867,1,6,2,"11b4da8",11,1
"1336",1,0,440,1,2,2,"11b4da8",12,1
"1436",0,1,299,1,3,2,"11b4da8",13,1
"1536",1,1,298,6,6,2,"11b4da8",14,1
"1636",1,1,438,4,4,2,"11b4da8",15,1
"1736",1,1,460,1,1,2,"11b4da8",16,1
"1836",0,0,655,3,3,2,"11b4da8",17,1
"1936",0,1,601,6,1,2,"11b4da8",18,1
"2036",1,1,457,2,2,2,"11b4da8",19,1
"2151",0,1,603,5,1,2,"11b4da8",20,1
"2238",0,1,418,1,4,2,"11b4da8",21,1
"2336",0,0,759,5,5,2,"11b4da8",22,1
"2436",1,1,689,2,2,2,"11b4da8",23,1
"2536",1,0,1155,6,1,2,"11b4da8",24,1
"2636",1,1,160,3,3,2,"11b4da8",25,1
"2736",1,1,656,5,5,2,"11b4da8",26,1
"2836",0,1,478,1,4,2,"11b4da8",27,1
"2936",1,1,253,4,4,2,"11b4da8",28,1
"3036",1,1,362,1,1,2,"11b4da8",29,1
"3151",0,1,384,3,1,2,"11b4da8",30,1
"3238",0,1,265,5,1,2,"11b4da8",31,1
"3336",1,1,156,6,6,2,"11b4da8",32,1
"3436",0,1,134,1,2,2,"11b4da8",33,1
"3536",1,1,734,4,4,2,"11b4da8",34,1
"3636",1,1,414,5,5,2,"11b4da8",35,1
"3736",1,1,295,2,2,2,"11b4da8",36,1
"3836",1,0,399,2,1,2,"11b4da8",37,1
"3936",0,1,509,1,5,2,"11b4da8",38,1
"4036",1,1,407,3,3,2,"11b4da8",39,1
"4151",1,1,502,1,1,2,"11b4da8",40,1
"4238",0,1,154,4,1,2,"11b4da8",41,1
"4336",0,1,436,6,1,2,"11b4da8",42,1
"4436",1,1,169,6,6,2,"11b4da8",43,1
"4536",0,1,1872,1,3,2,"11b4da8",44,1
"4636",1,1,380,2,2,2,"11b4da8",45,1
"4736",0,1,573,5,1,2,"11b4da8",46,1
"4836",1,1,436,5,5,2,"11b4da8",47,1
"4936",1,1,314,1,1,2,"11b4da8",48,1
"5036",0,1,124,1,2,2,"11b4da8",49,1
"5151",1,1,11,4,4,2,"11b4da8",50,1
