"","keys","accuracy","rt","Fimg","Simg","feature_index","subID","trialNum","run"
"2",1,0,716,5,1,1,"1d9099a",1,1
"3",1,1,692,6,6,1,"1d9099a",2,1
"4",1,0,584,1,3,1,"1d9099a",3,1
"5",0,1,716,1,4,1,"1d9099a",4,1
"6",0,1,434,1,2,1,"1d9099a",5,1
"7",0,1,122,6,1,1,"1d9099a",6,1
"8",1,1,402,2,2,1,"1d9099a",7,1
"9",1,1,486,1,1,1,"1d9099a",8,1
"10",0,0,416,4,4,1,"1d9099a",9,1
"11",1,1,474,3,3,1,"1d9099a",10,1
"12",1,1,374,5,5,1,"1d9099a",11,1
"13",0,1,262,1,4,1,"1d9099a",12,1
"14",1,1,424,6,6,1,"1d9099a",13,1
"15",1,1,354,2,2,1,"1d9099a",14,1
"16",0,1,364,1,5,1,"1d9099a",15,1
"17",1,1,344,3,3,1,"1d9099a",16,1
"18",1,1,410,5,5,1,"1d9099a",17,1
"19",0,1,372,6,1,1,"1d9099a",18,1
"20",1,1,474,1,1,1,"1d9099a",19,1
"21",0,1,614,1,3,1,"1d9099a",20,1
"22",1,1,418,4,4,1,"1d9099a",21,1
"23",1,0,372,1,2,1,"1d9099a",22,1
"24",1,0,384,4,1,1,"1d9099a",23,1
"25",1,1,308,2,2,1,"1d9099a",24,1
"26",0,1,392,1,3,1,"1d9099a",25,1
"27",1,1,434,3,3,1,"1d9099a",26,1
"28",1,1,390,6,6,1,"1d9099a",27,1
"29",1,1,364,4,4,1,"1d9099a",28,1
"30",1,1,476,1,1,1,"1d9099a",29,1
"31",0,1,426,5,1,1,"1d9099a",30,1
"32",0,1,358,6,1,1,"1d9099a",31,1
"33",1,1,484,5,5,1,"1d9099a",32,1
"34",1,0,388,1,2,1,"1d9099a",33,1
"35",1,1,446,2,2,1,"1d9099a",34,1
"36",0,1,542,1,4,1,"1d9099a",35,1
"37",0,1,496,1,6,1,"1d9099a",36,1
"38",1,1,524,6,6,1,"1d9099a",37,1
"39",1,1,1380,4,4,1,"1d9099a",38,1
"40",0,1,468,1,5,1,"1d9099a",39,1
"41",1,1,496,3,3,1,"1d9099a",40,1
"42",1,1,710,1,1,1,"1d9099a",41,1
"43",1,1,490,5,5,1,"1d9099a",42,1
"44",0,1,776,1,3,1,"1d9099a",43,1
"45",0,1,826,2,1,1,"1d9099a",44,1
"46",0,1,476,6,1,1,"1d9099a",45,1
"47",1,1,534,3,3,1,"1d9099a",46,1
"48",0,1,488,3,1,1,"1d9099a",47,1
"49",1,1,548,4,4,1,"1d9099a",48,1
"50",1,1,406,5,5,1,"1d9099a",49,1
"51",1,1,346,1,1,1,"1d9099a",50,1
"52",1,1,980,2,2,1,"1d9099a",51,1
"53",1,0,362,1,2,1,"1d9099a",52,1
"54",0,1,298,1,5,1,"1d9099a",53,1
"55",1,1,314,6,6,1,"1d9099a",54,1
"56",0,1,328,1,4,1,"1d9099a",55,1
"57",1,0,672,1,2,1,"1d9099a",56,1
"58",1,1,1212,6,6,1,"1d9099a",57,1
"59",0,1,328,3,1,1,"1d9099a",58,1
"60",0,1,296,5,1,1,"1d9099a",59,1
"61",0,1,740,6,1,1,"1d9099a",60,1
"62",1,1,414,2,2,1,"1d9099a",61,1
"63",1,1,426,5,5,1,"1d9099a",62,1
"64",0,0,330,1,1,1,"1d9099a",63,1
"65",0,1,328,4,1,1,"1d9099a",64,1
"66",1,1,452,3,3,1,"1d9099a",65,1
"67",1,1,788,4,4,1,"1d9099a",66,1
"68",0,1,382,1,6,1,"1d9099a",67,1
"69",0,1,666,1,2,1,"1d9099a",68,1
"70",1,1,454,3,3,1,"1d9099a",69,1
"71",0,1,406,1,4,1,"1d9099a",70,1
"72",1,1,414,1,1,1,"1d9099a",71,1
"73",0,1,350,1,3,1,"1d9099a",72,1
"74",1,1,444,4,4,1,"1d9099a",73,1
"75",1,1,394,2,2,1,"1d9099a",74,1
"76",1,1,388,5,5,1,"1d9099a",75,1
"77",0,1,516,1,5,1,"1d9099a",76,1
"78",1,1,436,6,6,1,"1d9099a",77,1
"210",1,0,392,1,3,2,"52a562b",1,1
"310",1,1,306,1,1,2,"52a562b",2,1
"410",1,0,453,2,1,2,"52a562b",3,1
"510",1,0,434,1,4,2,"52a562b",4,1
"610",1,1,350,5,5,2,"52a562b",5,1
"79",1,1,442,3,3,2,"52a562b",6,1
"81",1,0,386,5,1,2,"52a562b",7,1
"91",1,1,405,2,2,2,"52a562b",8,1
"101",1,0,383,6,1,2,"52a562b",9,1
"111",1,1,313,6,6,2,"52a562b",10,1
"121",1,1,308,4,4,2,"52a562b",11,1
"131",1,1,281,4,4,2,"52a562b",12,1
"141",1,0,329,5,1,2,"52a562b",13,1
"151",1,1,298,5,5,2,"52a562b",14,1
"161",1,0,378,3,1,2,"52a562b",15,1
"171",1,0,435,1,6,2,"52a562b",16,1
"181",1,1,496,6,6,2,"52a562b",17,1
"191",1,0,351,2,1,2,"52a562b",18,1
"201",0,0,400,3,3,2,"52a562b",19,1
"211",0,0,391,2,2,2,"52a562b",20,1
"221",1,1,400,1,1,2,"52a562b",21,1
"231",0,1,303,1,4,2,"52a562b",22,1
"241",1,1,348,5,5,2,"52a562b",23,1
"251",0,1,290,5,1,2,"52a562b",24,1
"261",1,0,370,2,1,2,"52a562b",25,1
"271",0,1,296,3,1,2,"52a562b",26,1
"281",1,1,644,4,4,2,"52a562b",27,1
"291",0,1,410,6,1,2,"52a562b",28,1
"301",1,0,540,4,1,2,"52a562b",29,1
"311",1,1,356,1,1,2,"52a562b",30,1
"321",1,1,368,6,6,2,"52a562b",31,1
"331",1,1,337,3,3,2,"52a562b",32,1
"341",1,1,424,2,2,2,"52a562b",33,1
"351",1,0,398,1,4,2,"52a562b",34,1
"361",1,0,401,1,2,2,"52a562b",35,1
"371",0,0,243,5,5,2,"52a562b",36,1
"381",1,1,360,3,3,2,"52a562b",37,1
"391",1,1,294,6,6,2,"52a562b",38,1
"401",0,0,332,2,2,2,"52a562b",39,1
"411",0,1,261,3,1,2,"52a562b",40,1
"421",1,1,293,1,1,2,"52a562b",41,1
"431",0,1,254,5,1,2,"52a562b",42,1
"441",0,1,277,1,6,2,"52a562b",43,1
"451",1,1,664,4,4,2,"52a562b",44,1
"461",1,1,316,6,6,2,"52a562b",45,1
"471",0,1,269,1,4,2,"52a562b",46,1
"481",0,1,342,1,3,2,"52a562b",47,1
"491",0,1,367,5,1,2,"52a562b",48,1
"501",0,0,313,2,2,2,"52a562b",49,1
"511",0,1,265,1,2,2,"52a562b",50,1
"521",0,1,464,6,1,2,"52a562b",51,1
"531",1,1,470,3,3,2,"52a562b",52,1
"541",1,1,451,1,1,2,"52a562b",53,1
"551",0,0,307,4,4,2,"52a562b",54,1
"561",0,0,266,5,5,2,"52a562b",55,1
"571",0,0,557,3,3,2,"52a562b",56,1
"581",0,0,825,5,5,2,"52a562b",57,1
"591",1,1,300,1,1,2,"52a562b",58,1
"601",0,1,306,5,1,2,"52a562b",59,1
"611",0,1,275,4,1,2,"52a562b",60,1
"621",0,1,458,1,6,2,"52a562b",61,1
"631",1,0,359,1,3,2,"52a562b",62,1
"641",1,1,319,4,4,2,"52a562b",63,1
"651",1,1,471,2,2,2,"52a562b",64,1
"661",1,1,317,6,6,2,"52a562b",65,1
"671",0,1,261,1,2,2,"52a562b",66,1
"681",1,1,389,6,6,2,"52a562b",67,1
"691",1,1,316,1,1,2,"52a562b",68,1
"701",0,1,275,1,4,2,"52a562b",69,1
"711",0,1,967,1,6,2,"52a562b",70,1
"721",1,0,346,1,2,2,"52a562b",71,1
"731",0,1,317,5,1,2,"52a562b",72,1
"741",1,1,1030,3,3,2,"52a562b",73,1
"751",1,1,348,4,4,2,"52a562b",74,1
"761",0,1,1500,1,3,2,"52a562b",75,1
"771",1,1,371,2,2,2,"52a562b",76,1
"781",1,1,292,5,5,2,"52a562b",77,1
"212",1,1,858,2,2,1,"1750722",1,1
"312",1,1,435,4,4,1,"1750722",2,1
"412",0,1,267,3,1,1,"1750722",3,1
"512",0,0,311,5,5,1,"1750722",4,1
"612",1,1,559,1,1,1,"1750722",5,1
"710",1,1,614,3,3,1,"1750722",6,1
"82",1,0,362,1,6,1,"1750722",7,1
"92",0,1,335,4,1,1,"1750722",8,1
"102",1,1,432,6,6,1,"1750722",9,1
"112",1,0,288,2,1,1,"1750722",10,1
"122",0,1,294,1,5,1,"1750722",11,1
"132",1,0,508,1,6,1,"1750722",12,1
"142",1,1,543,2,2,1,"1750722",13,1
"152",1,1,514,3,3,1,"1750722",14,1
"162",1,1,250,6,6,1,"1750722",15,1
"172",1,0,276,1,2,1,"1750722",16,1
"182",1,1,456,1,1,1,"1750722",17,1
"192",1,0,851,5,1,1,"1750722",18,1
"202",1,0,1660,1,4,1,"1750722",19,1
"213",1,1,323,4,4,1,"1750722",20,1
"222",1,1,354,5,5,1,"1750722",21,1
"232",0,1,323,1,3,1,"1750722",22,1
"242",1,0,261,1,3,1,"1750722",23,1
"252",0,1,267,6,1,1,"1750722",24,1
"262",1,1,1146,6,6,1,"1750722",25,1
"272",1,1,564,1,1,1,"1750722",26,1
"282",1,1,484,3,3,1,"1750722",27,1
"292",1,0,426,2,1,1,"1750722",28,1
"302",1,1,1606,2,2,1,"1750722",29,1
"313",0,0,333,4,4,1,"1750722",30,1
"322",0,0,527,5,5,1,"1750722",31,1
"332",1,0,429,1,4,1,"1750722",32,1
"342",0,1,272,5,1,1,"1750722",33,1
"352",1,0,552,3,1,1,"1750722",34,1
"362",1,1,274,4,4,1,"1750722",35,1
"372",1,0,152,1,2,1,"1750722",36,1
"382",0,1,563,1,4,1,"1750722",37,1
"392",1,1,426,1,1,1,"1750722",38,1
"402",0,1,211,1,6,1,"1750722",39,1
"413",1,1,1190,3,3,1,"1750722",40,1
"422",1,1,509,6,6,1,"1750722",41,1
"432",1,0,482,5,1,1,"1750722",42,1
"442",0,0,1942,2,2,1,"1750722",43,1
"452",1,1,235,5,5,1,"1750722",44,1
"462",1,1,484,4,4,1,"1750722",45,1
"472",0,0,321,1,1,1,"1750722",46,1
"482",0,1,544,5,1,1,"1750722",47,1
"492",1,1,497,2,2,1,"1750722",48,1
"502",1,1,918,5,5,1,"1750722",49,1
"513",1,0,331,2,1,1,"1750722",50,1
"522",0,1,355,1,6,1,"1750722",51,1
"532",0,1,292,4,1,1,"1750722",52,1
"542",1,1,206,3,3,1,"1750722",53,1
"552",1,0,325,1,3,1,"1750722",54,1
"562",1,1,995,6,6,1,"1750722",55,1
"572",1,1,308,5,5,1,"1750722",56,1
"582",1,1,808,4,4,1,"1750722",57,1
"592",1,1,530,3,3,1,"1750722",58,1
"602",0,1,537,1,6,1,"1750722",59,1
"613",1,1,586,1,1,1,"1750722",60,1
"622",1,0,415,2,1,1,"1750722",61,1
"632",1,1,308,2,2,1,"1750722",62,1
"642",1,0,345,1,3,1,"1750722",63,1
"652",1,0,785,5,1,1,"1750722",64,1
"662",1,1,731,6,6,1,"1750722",65,1
"672",0,1,591,4,1,1,"1750722",66,1
"682",1,0,258,1,3,1,"1750722",67,1
"692",1,0,285,1,2,1,"1750722",68,1
"702",1,0,371,1,6,1,"1750722",69,1
"712",1,1,426,4,4,1,"1750722",70,1
"722",0,0,259,1,1,1,"1750722",71,1
"732",0,1,418,4,1,1,"1750722",72,1
"742",1,1,257,5,5,1,"1750722",73,1
"752",1,1,256,6,6,1,"1750722",74,1
"762",0,1,748,5,1,1,"1750722",75,1
"772",1,1,259,3,3,1,"1750722",76,1
"782",1,1,359,2,2,1,"1750722",77,1
"214",1,0,684,4,1,2,"18f5a1c",1,1
"314",1,1,333,4,4,2,"18f5a1c",2,1
"414",1,1,346,6,6,2,"18f5a1c",3,1
"514",1,0,8,1,2,2,"18f5a1c",4,1
"614",0,0,341,1,1,2,"18f5a1c",5,1
"713",1,1,401,2,2,2,"18f5a1c",6,1
"83",1,0,345,1,3,2,"18f5a1c",7,1
"93",1,0,1053,1,6,2,"18f5a1c",8,1
"103",1,1,279,3,3,2,"18f5a1c",9,1
"113",0,1,414,1,5,2,"18f5a1c",10,1
"123",1,1,320,5,5,2,"18f5a1c",11,1
"133",1,1,330,4,4,2,"18f5a1c",12,1
"143",0,1,292,4,1,2,"18f5a1c",13,1
"153",1,1,378,1,1,2,"18f5a1c",14,1
"163",0,1,598,5,1,2,"18f5a1c",15,1
"173",1,1,295,5,5,2,"18f5a1c",16,1
"183",1,1,307,2,2,2,"18f5a1c",17,1
"193",0,1,619,1,3,2,"18f5a1c",18,1
"203",1,1,420,6,6,2,"18f5a1c",19,1
"215",0,1,1386,1,2,2,"18f5a1c",20,1
"223",0,1,341,1,6,2,"18f5a1c",21,1
"233",1,1,335,3,3,2,"18f5a1c",22,1
"243",1,0,491,3,1,2,"18f5a1c",23,1
"253",1,1,560,1,1,2,"18f5a1c",24,1
"263",0,1,371,1,6,2,"18f5a1c",25,1
"273",1,1,23,3,3,2,"18f5a1c",26,1
"283",1,0,493,1,4,2,"18f5a1c",27,1
"293",0,0,341,5,5,2,"18f5a1c",28,1
"303",1,1,361,4,4,2,"18f5a1c",29,1
"315",1,0,741,1,2,2,"18f5a1c",30,1
"323",1,1,1086,2,2,2,"18f5a1c",31,1
"333",0,1,442,1,5,2,"18f5a1c",32,1
"343",1,1,385,6,6,2,"18f5a1c",33,1
"353",0,0,398,2,2,2,"18f5a1c",34,1
"363",1,0,315,1,2,2,"18f5a1c",35,1
"373",1,1,399,4,4,2,"18f5a1c",36,1
"383",0,1,180,1,6,2,"18f5a1c",37,1
"393",1,1,411,3,3,2,"18f5a1c",38,1
"403",0,1,1224,1,4,2,"18f5a1c",39,1
"415",0,1,348,1,5,2,"18f5a1c",40,1
"423",1,1,370,5,5,2,"18f5a1c",41,1
"433",1,1,418,6,6,2,"18f5a1c",42,1
"443",1,1,366,1,1,2,"18f5a1c",43,1
"453",1,0,373,1,3,2,"18f5a1c",44,1
"463",0,0,673,4,4,2,"18f5a1c",45,1
"473",1,0,468,2,1,2,"18f5a1c",46,1
"483",0,1,429,1,4,2,"18f5a1c",47,1
"493",0,1,314,1,3,2,"18f5a1c",48,1
"503",1,1,326,3,3,2,"18f5a1c",49,1
"515",0,0,5,5,5,2,"18f5a1c",50,1
"523",1,0,880,6,1,2,"18f5a1c",51,1
"533",0,1,1172,1,5,2,"18f5a1c",52,1
"543",1,1,1089,2,2,2,"18f5a1c",53,1
"553",-1,-1,0,1,1,2,"18f5a1c",54,1
"563",0,0,467,6,6,2,"18f5a1c",55,1
"573",1,0,616,6,1,2,"18f5a1c",56,1
"583",0,0,758,2,2,2,"18f5a1c",57,1
"593",1,1,194,3,3,2,"18f5a1c",58,1
"603",0,1,400,1,4,2,"18f5a1c",59,1
"615",1,1,1495,6,6,2,"18f5a1c",60,1
"623",1,0,406,2,1,2,"18f5a1c",61,1
"633",-1,-1,0,4,4,2,"18f5a1c",62,1
"643",-1,-1,0,1,1,2,"18f5a1c",63,1
"653",0,0,699,5,5,2,"18f5a1c",64,1
"663",1,0,850,1,3,2,"18f5a1c",65,1
"673",-1,-1,0,5,1,2,"18f5a1c",66,1
"683",0,0,389,1,1,2,"18f5a1c",67,1
"693",1,1,358,2,2,2,"18f5a1c",68,1
"703",1,0,421,1,6,2,"18f5a1c",69,1
"714",0,0,392,4,4,2,"18f5a1c",70,1
"723",1,1,438,6,6,2,"18f5a1c",71,1
"733",0,0,471,3,3,2,"18f5a1c",72,1
"743",1,1,1094,5,5,2,"18f5a1c",73,1
"753",1,0,407,2,1,2,"18f5a1c",74,1
"763",0,1,519,4,1,2,"18f5a1c",75,1
"773",0,1,650,1,5,2,"18f5a1c",76,1
"783",1,0,492,1,3,2,"18f5a1c",77,1
"216",0,0,864,3,3,2,"5875042",1,1
"316",1,0,432,1,2,2,"5875042",2,1
"416",1,1,455,4,4,2,"5875042",3,1
"516",1,0,364,1,3,2,"5875042",4,1
"616",1,1,369,1,1,2,"5875042",5,1
"715",1,1,370,2,2,2,"5875042",6,1
"84",0,1,506,1,6,2,"5875042",7,1
"94",0,1,630,5,1,2,"5875042",8,1
"104",1,1,451,6,6,2,"5875042",9,1
"114",1,1,634,5,5,2,"5875042",10,1
"124",0,1,383,1,4,2,"5875042",11,1
"134",0,0,458,4,4,2,"5875042",12,1
"144",1,1,642,3,3,2,"5875042",13,1
"154",0,1,557,1,5,2,"5875042",14,1
"164",0,1,463,6,1,2,"5875042",15,1
"174",0,1,438,4,1,2,"5875042",16,1
"184",0,0,555,1,1,2,"5875042",17,1
"194",1,1,416,6,6,2,"5875042",18,1
"204",1,1,378,2,2,2,"5875042",19,1
"217",0,1,439,1,3,2,"5875042",20,1
"224",0,1,388,2,1,2,"5875042",21,1
"234",1,1,436,5,5,2,"5875042",22,1
"244",1,1,440,6,6,2,"5875042",23,1
"254",1,1,514,3,3,2,"5875042",24,1
"264",0,1,405,1,6,2,"5875042",25,1
"274",1,1,512,5,5,2,"5875042",26,1
"284",0,1,448,3,1,2,"5875042",27,1
"294",0,1,339,5,1,2,"5875042",28,1
"304",0,0,410,1,1,2,"5875042",29,1
"317",1,1,399,4,4,2,"5875042",30,1
"324",1,1,698,2,2,2,"5875042",31,1
"334",0,1,376,1,4,2,"5875042",32,1
"344",0,1,459,2,1,2,"5875042",33,1
"354",0,1,516,1,3,2,"5875042",34,1
"364",0,0,410,1,1,2,"5875042",35,1
"374",1,1,416,4,4,2,"5875042",36,1
"384",1,0,383,1,2,2,"5875042",37,1
"394",1,1,383,3,3,2,"5875042",38,1
"404",0,1,371,5,1,2,"5875042",39,1
"417",1,1,398,2,2,2,"5875042",40,1
"424",1,1,405,5,5,2,"5875042",41,1
"434",0,1,396,1,4,2,"5875042",42,1
"444",1,1,567,6,6,2,"5875042",43,1
"454",0,1,346,6,1,2,"5875042",44,1
"464",0,0,378,5,5,2,"5875042",45,1
"474",0,1,443,1,5,2,"5875042",46,1
"484",1,1,445,2,2,2,"5875042",47,1
"494",0,1,406,1,4,2,"5875042",48,1
"504",0,1,446,6,1,2,"5875042",49,1
"517",1,1,444,6,6,2,"5875042",50,1
"524",1,1,342,4,4,2,"5875042",51,1
"534",1,1,394,1,1,2,"5875042",52,1
"544",1,0,372,1,2,2,"5875042",53,1
"554",1,1,478,3,3,2,"5875042",54,1
"564",1,0,312,1,3,2,"5875042",55,1
"574",1,0,389,1,2,2,"5875042",56,1
"584",0,1,394,3,1,2,"5875042",57,1
"594",1,1,403,6,6,2,"5875042",58,1
"604",1,1,498,5,5,2,"5875042",59,1
"617",1,1,387,3,3,2,"5875042",60,1
"624",0,1,381,6,1,2,"5875042",61,1
"634",0,1,888,4,1,2,"5875042",62,1
"644",1,1,469,4,4,2,"5875042",63,1
"654",0,1,401,5,1,2,"5875042",64,1
"664",0,0,485,1,1,2,"5875042",65,1
"674",1,1,488,2,2,2,"5875042",66,1
"684",0,1,414,1,6,2,"5875042",67,1
"694",1,1,425,6,6,2,"5875042",68,1
"704",1,1,394,4,4,2,"5875042",69,1
"716",0,1,365,2,1,2,"5875042",70,1
"724",1,1,325,2,2,2,"5875042",71,1
"734",1,1,399,5,5,2,"5875042",72,1
"744",0,1,516,1,4,2,"5875042",73,1
"754",0,1,351,5,1,2,"5875042",74,1
"764",0,1,373,1,3,2,"5875042",75,1
"774",1,1,387,3,3,2,"5875042",76,1
"784",1,1,400,1,1,2,"5875042",77,1
"218",1,0,427,2,1,3,"1b05aaf",1,1
"318",1,1,335,3,3,3,"1b05aaf",2,1
"418",0,0,451,6,6,3,"1b05aaf",3,1
"518",1,1,567,1,1,3,"1b05aaf",4,1
"618",0,1,476,6,1,3,"1b05aaf",5,1
"717",1,1,1494,2,2,3,"1b05aaf",6,1
"85",0,0,580,4,4,3,"1b05aaf",7,1
"95",0,1,344,1,4,3,"1b05aaf",8,1
"105",1,1,772,5,5,3,"1b05aaf",9,1
"115",0,1,728,1,3,3,"1b05aaf",10,1
"125",0,1,400,1,5,3,"1b05aaf",11,1
"135",1,1,688,6,6,3,"1b05aaf",12,1
"145",0,0,397,4,4,3,"1b05aaf",13,1
"155",1,1,463,1,1,3,"1b05aaf",14,1
"165",0,0,461,3,3,3,"1b05aaf",15,1
"175",1,1,477,5,5,3,"1b05aaf",16,1
"185",0,1,1154,6,1,3,"1b05aaf",17,1
"195",1,0,434,2,1,3,"1b05aaf",18,1
"205",1,0,484,3,1,3,"1b05aaf",19,1
"219",0,1,950,4,1,3,"1b05aaf",20,1
"225",0,1,921,5,1,3,"1b05aaf",21,1
"235",0,0,674,2,2,3,"1b05aaf",22,1
"245",-1,-1,0,2,2,3,"1b05aaf",23,1
"255",-1,-1,0,5,5,3,"1b05aaf",24,1
"265",0,0,906,4,4,3,"1b05aaf",25,1
"275",-1,-1,0,1,4,3,"1b05aaf",26,1
"285",1,0,393,5,1,3,"1b05aaf",27,1
"295",1,1,519,1,1,3,"1b05aaf",28,1
"305",1,1,727,3,3,3,"1b05aaf",29,1
"319",1,0,932,3,1,3,"1b05aaf",30,1
"325",0,1,790,1,2,3,"1b05aaf",31,1
"335",1,0,542,1,6,3,"1b05aaf",32,1
"345",0,0,571,6,6,3,"1b05aaf",33,1
"355",1,1,367,5,5,3,"1b05aaf",34,1
"365",0,1,371,1,2,3,"1b05aaf",35,1
"375",0,0,338,3,3,3,"1b05aaf",36,1
"385",0,1,471,4,1,3,"1b05aaf",37,1
"395",0,0,284,6,6,3,"1b05aaf",38,1
"405",1,1,280,1,1,3,"1b05aaf",39,1
"419",1,0,277,1,5,3,"1b05aaf",40,1
"425",1,1,494,4,4,3,"1b05aaf",41,1
"435",1,0,542,1,3,3,"1b05aaf",42,1
"445",1,0,656,1,6,3,"1b05aaf",43,1
"455",0,0,1265,2,2,3,"1b05aaf",44,1
"465",0,0,1436,1,1,3,"1b05aaf",45,1
"475",1,1,583,3,3,3,"1b05aaf",46,1
"485",0,0,823,2,2,3,"1b05aaf",47,1
"495",0,1,1062,1,5,3,"1b05aaf",48,1
"505",0,0,1868,6,6,3,"1b05aaf",49,1
"519",1,1,1100,4,4,3,"1b05aaf",50,1
"525",1,1,559,5,5,3,"1b05aaf",51,1
"535",1,0,606,4,1,3,"1b05aaf",52,1
"545",0,1,452,1,2,3,"1b05aaf",53,1
"555",1,0,594,3,1,3,"1b05aaf",54,1
"565",0,1,508,1,6,3,"1b05aaf",55,1
"575",1,1,414,2,2,3,"1b05aaf",56,1
"585",1,0,707,4,1,3,"1b05aaf",57,1
"595",0,0,590,1,1,3,"1b05aaf",58,1
"605",1,1,494,6,6,3,"1b05aaf",59,1
"619",1,0,558,3,1,3,"1b05aaf",60,1
"625",1,1,522,3,3,3,"1b05aaf",61,1
"635",-1,-1,0,5,5,3,"1b05aaf",62,1
"645",1,0,1642,5,1,3,"1b05aaf",63,1
"655",-1,-1,0,6,1,3,"1b05aaf",64,1
"665",1,0,566,2,1,3,"1b05aaf",65,1
"675",-1,-1,0,4,4,3,"1b05aaf",66,1
"685",1,1,492,4,4,3,"1b05aaf",67,1
"695",-1,-1,0,5,5,3,"1b05aaf",68,1
"705",0,1,522,1,3,3,"1b05aaf",69,1
"718",-1,-1,0,6,6,3,"1b05aaf",70,1
"725",0,1,1955,5,1,3,"1b05aaf",71,1
"735",-1,-1,0,3,3,3,"1b05aaf",72,1
"745",0,0,440,2,2,3,"1b05aaf",73,1
"755",-1,-1,0,2,1,3,"1b05aaf",74,1
"765",1,0,516,1,4,3,"1b05aaf",75,1
"775",-1,-1,0,1,6,3,"1b05aaf",76,1
"785",1,1,421,1,1,3,"1b05aaf",77,1
"220",1,0,728,6,1,3,"1d9ed1f",1,1
"320",1,1,532,3,3,3,"1d9ed1f",2,1
"420",1,0,254,1,2,3,"1d9ed1f",3,1
"520",1,1,276,5,5,3,"1d9ed1f",4,1
"620",1,1,166,4,4,3,"1d9ed1f",5,1
"719",0,1,82,5,1,3,"1d9ed1f",6,1
"86",0,0,110,6,6,3,"1d9ed1f",7,1
"96",1,1,273,2,2,3,"1d9ed1f",8,1
"106",0,1,237,4,1,3,"1d9ed1f",9,1
"116",1,0,136,3,1,3,"1d9ed1f",10,1
"126",1,1,50,1,1,3,"1d9ed1f",11,1
"136",1,0,69,1,6,3,"1d9ed1f",12,1
"146",1,0,200,3,1,3,"1d9ed1f",13,1
"156",0,0,91,4,4,3,"1d9ed1f",14,1
"166",1,0,231,1,5,3,"1d9ed1f",15,1
"176",1,0,50,1,2,3,"1d9ed1f",16,1
"186",1,0,166,1,4,3,"1d9ed1f",17,1
"196",1,1,169,2,2,3,"1d9ed1f",18,1
"206",0,0,173,5,5,3,"1d9ed1f",19,1
"2110",1,1,536,3,3,3,"1d9ed1f",20,1
"226",1,1,739,1,1,3,"1d9ed1f",21,1
"236",1,1,543,6,6,3,"1d9ed1f",22,1
"246",0,1,211,1,3,3,"1d9ed1f",23,1
"256",1,1,789,6,6,3,"1d9ed1f",24,1
"266",1,1,234,4,4,3,"1d9ed1f",25,1
"276",1,0,84,1,2,3,"1d9ed1f",26,1
"286",0,1,271,1,5,3,"1d9ed1f",27,1
"296",1,1,403,1,1,3,"1d9ed1f",28,1
"306",1,1,118,3,3,3,"1d9ed1f",29,1
"3110",1,0,185,1,4,3,"1d9ed1f",30,1
"326",1,1,77,2,2,3,"1d9ed1f",31,1
"336",0,1,256,6,1,3,"1d9ed1f",32,1
"346",1,1,58,5,5,3,"1d9ed1f",33,1
"356",0,1,191,5,1,3,"1d9ed1f",34,1
"366",1,0,99,1,3,3,"1d9ed1f",35,1
"376",1,1,77,6,6,3,"1d9ed1f",36,1
"386",1,1,104,5,5,3,"1d9ed1f",37,1
"396",0,0,149,3,3,3,"1d9ed1f",38,1
"406",1,0,552,1,4,3,"1d9ed1f",39,1
"4110",1,1,634,1,1,3,"1d9ed1f",40,1
"426",1,1,319,4,4,3,"1d9ed1f",41,1
"436",1,1,409,2,2,3,"1d9ed1f",42,1
"446",0,1,133,1,6,3,"1d9ed1f",43,1
"456",1,0,161,2,1,3,"1d9ed1f",44,1
"466",0,1,277,3,1,3,"1d9ed1f",45,1
"476",1,0,39,1,5,3,"1d9ed1f",46,1
"486",1,1,27,4,4,3,"1d9ed1f",47,1
"496",1,0,358,4,1,3,"1d9ed1f",48,1
"506",1,1,386,6,6,3,"1d9ed1f",49,1
"5110",1,1,53,3,3,3,"1d9ed1f",50,1
"526",0,1,1841,1,2,3,"1d9ed1f",51,1
"536",1,1,652,5,5,3,"1d9ed1f",52,1
"546",1,1,327,2,2,3,"1d9ed1f",53,1
"556",1,1,161,1,1,3,"1d9ed1f",54,1
"566",1,0,100,6,1,3,"1d9ed1f",55,1
"576",1,1,279,1,1,3,"1d9ed1f",56,1
"586",1,1,282,6,6,3,"1d9ed1f",57,1
"596",1,1,77,3,3,3,"1d9ed1f",58,1
"606",1,1,63,2,2,3,"1d9ed1f",59,1
"6110",0,1,260,1,5,3,"1d9ed1f",60,1
"626",1,0,199,2,1,3,"1d9ed1f",61,1
"636",0,0,257,4,4,3,"1d9ed1f",62,1
"646",1,0,197,6,1,3,"1d9ed1f",63,1
"656",1,0,218,1,4,3,"1d9ed1f",64,1
"666",1,1,51,5,5,3,"1d9ed1f",65,1
"676",1,0,70,3,1,3,"1d9ed1f",66,1
"686",1,1,66,5,5,3,"1d9ed1f",67,1
"696",1,0,125,4,1,3,"1d9ed1f",68,1
"706",0,0,97,4,4,3,"1d9ed1f",69,1
"7110",1,0,36,5,1,3,"1d9ed1f",70,1
"726",1,1,359,2,2,3,"1d9ed1f",71,1
"736",1,1,146,3,3,3,"1d9ed1f",72,1
"746",1,0,13,2,1,3,"1d9ed1f",73,1
"756",1,1,343,6,6,3,"1d9ed1f",74,1
"766",1,0,251,3,1,3,"1d9ed1f",75,1
"776",0,0,238,1,1,3,"1d9ed1f",76,1
"786",1,0,72,6,1,3,"1d9ed1f",77,1
"227",1,1,703,3,3,2,"18f22a5",1,1
"327",1,1,556,4,4,2,"18f22a5",2,1
"427",1,1,540,5,5,2,"18f22a5",3,1
"527",1,0,390,2,1,2,"18f22a5",4,1
"627",1,0,457,6,1,2,"18f22a5",5,1
"720",1,0,519,3,1,2,"18f22a5",6,1
"87",1,1,382,2,2,2,"18f22a5",7,1
"97",0,1,461,1,5,2,"18f22a5",8,1
"107",0,0,385,1,1,2,"18f22a5",9,1
"117",0,0,385,6,6,2,"18f22a5",10,1
"127",1,0,426,1,4,2,"18f22a5",11,1
"137",1,1,364,2,2,2,"18f22a5",12,1
"147",0,1,386,1,6,2,"18f22a5",13,1
"157",0,1,347,3,1,2,"18f22a5",14,1
"167",1,1,345,5,5,2,"18f22a5",15,1
"177",1,1,342,1,1,2,"18f22a5",16,1
"187",0,1,375,2,1,2,"18f22a5",17,1
"197",1,1,396,3,3,2,"18f22a5",18,1
"207",0,1,335,1,5,2,"18f22a5",19,1
"2111",0,1,398,1,4,2,"18f22a5",20,1
"228",1,1,350,4,4,2,"18f22a5",21,1
"237",1,1,387,6,6,2,"18f22a5",22,1
"247",0,1,355,1,5,2,"18f22a5",23,1
"257",0,1,393,1,6,2,"18f22a5",24,1
"267",1,1,389,3,3,2,"18f22a5",25,1
"277",1,1,407,2,2,2,"18f22a5",26,1
"287",1,0,382,2,1,2,"18f22a5",27,1
"297",1,1,400,5,5,2,"18f22a5",28,1
"307",1,1,506,4,4,2,"18f22a5",29,1
"3111",0,1,404,4,1,2,"18f22a5",30,1
"328",0,0,348,6,6,2,"18f22a5",31,1
"337",1,0,501,1,3,2,"18f22a5",32,1
"347",1,1,329,1,1,2,"18f22a5",33,1
"357",0,1,386,1,6,2,"18f22a5",34,1
"367",1,1,384,6,6,2,"18f22a5",35,1
"377",0,1,383,1,5,2,"18f22a5",36,1
"387",1,1,410,3,3,2,"18f22a5",37,1
"397",1,0,1556,2,1,2,"18f22a5",38,1
"407",0,1,1089,1,3,2,"18f22a5",39,1
"4111",1,1,487,4,4,2,"18f22a5",40,1
"428",0,0,1212,2,2,2,"18f22a5",41,1
"437",1,1,407,5,5,2,"18f22a5",42,1
"447",0,1,256,4,1,2,"18f22a5",43,1
"457",1,1,363,1,1,2,"18f22a5",44,1
"467",0,1,395,4,1,2,"18f22a5",45,1
"477",0,1,737,3,1,2,"18f22a5",46,1
"487",1,1,297,5,5,2,"18f22a5",47,1
"497",1,0,389,2,1,2,"18f22a5",48,1
"507",0,1,142,6,1,2,"18f22a5",49,1
"5111",1,1,359,6,6,2,"18f22a5",50,1
"528",1,1,364,2,2,2,"18f22a5",51,1
"537",0,1,178,5,1,2,"18f22a5",52,1
"547",1,1,287,4,4,2,"18f22a5",53,1
"557",1,1,284,1,1,2,"18f22a5",54,1
"567",1,1,479,3,3,2,"18f22a5",55,1
"577",1,1,403,6,6,2,"18f22a5",56,1
"587",0,1,304,1,6,2,"18f22a5",57,1
"597",1,1,362,3,3,2,"18f22a5",58,1
"607",0,0,330,1,1,2,"18f22a5",59,1
"6111",1,0,447,4,1,2,"18f22a5",60,1
"628",0,1,361,1,2,2,"18f22a5",61,1
"637",1,1,213,5,5,2,"18f22a5",62,1
"647",1,1,330,2,2,2,"18f22a5",63,1
"657",1,1,339,4,4,2,"18f22a5",64,1
"667",0,1,188,1,5,2,"18f22a5",65,1
"677",1,0,338,3,1,2,"18f22a5",66,1
"687",1,1,204,3,3,2,"18f22a5",67,1
"697",1,0,580,1,3,2,"18f22a5",68,1
"707",0,1,454,1,2,2,"18f22a5",69,1
"7111",1,1,324,5,5,2,"18f22a5",70,1
"727",1,1,316,4,4,2,"18f22a5",71,1
"737",0,1,146,6,1,2,"18f22a5",72,1
"747",0,1,261,1,4,2,"18f22a5",73,1
"757",0,1,340,1,5,2,"18f22a5",74,1
"767",1,1,282,1,1,2,"18f22a5",75,1
"777",1,1,324,6,6,2,"18f22a5",76,1
"787",1,1,213,2,2,2,"18f22a5",77,1
"229",1,1,863,4,4,3,"1c10bc5",1,1
"329",1,0,729,4,1,3,"1c10bc5",2,1
"429",1,1,309,3,3,3,"1c10bc5",3,1
"529",1,0,331,1,6,3,"1c10bc5",4,1
"629",-1,-1,0,1,5,3,"1c10bc5",5,1
"728",0,1,304,1,2,3,"1c10bc5",6,1
"88",1,1,311,5,5,3,"1c10bc5",7,1
"98",0,0,399,2,2,3,"1c10bc5",8,1
"108",1,1,246,1,1,3,"1c10bc5",9,1
"118",1,1,287,6,6,3,"1c10bc5",10,1
"128",0,1,385,1,3,3,"1c10bc5",11,1
"138",1,0,408,6,1,3,"1c10bc5",12,1
"148",0,1,273,1,2,3,"1c10bc5",13,1
"158",0,1,261,3,1,3,"1c10bc5",14,1
"168",1,0,266,5,1,3,"1c10bc5",15,1
"178",0,0,256,5,5,3,"1c10bc5",16,1
"188",0,0,290,4,4,3,"1c10bc5",17,1
"198",1,1,309,1,1,3,"1c10bc5",18,1
"208",1,1,266,2,2,3,"1c10bc5",19,1
"2112",1,0,235,4,1,3,"1c10bc5",20,1
"2210",0,0,318,6,6,3,"1c10bc5",21,1
"238",0,0,396,3,3,3,"1c10bc5",22,1
"248",1,1,303,1,1,3,"1c10bc5",23,1
"258",1,0,342,1,2,3,"1c10bc5",24,1
"268",1,1,424,6,6,3,"1c10bc5",25,1
"278",1,1,136,3,3,3,"1c10bc5",26,1
"288",0,0,230,4,4,3,"1c10bc5",27,1
"298",1,1,283,2,2,3,"1c10bc5",28,1
"308",1,0,387,4,1,3,"1c10bc5",29,1
"3112",0,1,463,6,1,3,"1c10bc5",30,1
"3210",1,0,966,1,3,3,"1c10bc5",31,1
"338",1,0,317,1,5,3,"1c10bc5",32,1
"348",1,1,333,5,5,3,"1c10bc5",33,1
"358",1,1,416,4,4,3,"1c10bc5",34,1
"368",1,0,283,2,1,3,"1c10bc5",35,1
"378",1,0,39,6,1,3,"1c10bc5",36,1
"388",1,1,283,3,3,3,"1c10bc5",37,1
"398",1,1,238,2,2,3,"1c10bc5",38,1
"408",1,0,206,5,1,3,"1c10bc5",39,1
"4112",0,0,231,5,5,3,"1c10bc5",40,1
"4210",1,1,270,1,1,3,"1c10bc5",41,1
"438",1,0,50,1,3,3,"1c10bc5",42,1
"448",1,0,250,4,1,3,"1c10bc5",43,1
"458",1,1,252,6,6,3,"1c10bc5",44,1
"468",1,1,285,3,3,3,"1c10bc5",45,1
"478",0,1,383,1,3,3,"1c10bc5",46,1
"488",1,0,218,1,4,3,"1c10bc5",47,1
"498",0,1,357,5,1,3,"1c10bc5",48,1
"508",0,0,254,4,4,3,"1c10bc5",49,1
"5112",1,1,119,1,1,3,"1c10bc5",50,1
"5210",1,1,155,5,5,3,"1c10bc5",51,1
"538",0,1,269,6,1,3,"1c10bc5",52,1
"548",1,1,207,6,6,3,"1c10bc5",53,1
"558",1,1,210,2,2,3,"1c10bc5",54,1
"568",0,1,259,1,2,3,"1c10bc5",55,1
"578",1,0,245,3,1,3,"1c10bc5",56,1
"588",1,0,175,1,5,3,"1c10bc5",57,1
"598",0,1,225,1,6,3,"1c10bc5",58,1
"608",0,0,300,5,5,3,"1c10bc5",59,1
"6112",1,1,74,1,1,3,"1c10bc5",60,1
"6210",0,1,236,1,4,3,"1c10bc5",61,1
"638",1,1,241,6,6,3,"1c10bc5",62,1
"648",1,1,200,3,3,3,"1c10bc5",63,1
"658",0,1,250,1,2,3,"1c10bc5",64,1
"668",1,1,642,4,4,3,"1c10bc5",65,1
"678",0,0,208,2,2,3,"1c10bc5",66,1
"688",0,1,141,1,5,3,"1c10bc5",67,1
"698",1,1,486,1,1,3,"1c10bc5",68,1
"708",0,1,251,1,3,3,"1c10bc5",69,1
"7112",1,1,192,3,3,3,"1c10bc5",70,1
"729",1,1,229,5,5,3,"1c10bc5",71,1
"738",1,1,222,4,4,3,"1c10bc5",72,1
"748",1,1,218,2,2,3,"1c10bc5",73,1
"758",1,1,245,6,6,3,"1c10bc5",74,1
"768",0,1,307,1,4,3,"1c10bc5",75,1
"778",0,1,364,1,2,3,"1c10bc5",76,1
"788",0,1,249,1,6,3,"1c10bc5",77,1
"230",1,1,737,1,1,2,"1f8a514",1,1
"330",1,0,470,6,1,2,"1f8a514",2,1
"430",0,0,443,4,4,2,"1f8a514",3,1
"530",-1,-1,0,1,2,2,"1f8a514",4,1
"630",1,1,693,2,2,2,"1f8a514",5,1
"730",0,1,447,5,1,2,"1f8a514",6,1
"89",1,1,329,3,3,2,"1f8a514",7,1
"99",0,1,289,4,1,2,"1f8a514",8,1
"109",1,1,336,5,5,2,"1f8a514",9,1
"119",0,1,284,3,1,2,"1f8a514",10,1
"129",1,1,446,6,6,2,"1f8a514",11,1
"139",1,1,438,6,6,2,"1f8a514",12,1
"149",0,1,431,1,3,2,"1f8a514",13,1
"159",1,1,323,1,1,2,"1f8a514",14,1
"169",0,1,396,1,4,2,"1f8a514",15,1
"179",-1,-1,0,3,3,2,"1f8a514",16,1
"189",0,0,309,5,5,2,"1f8a514",17,1
"199",0,1,321,1,6,2,"1f8a514",18,1
"209",1,1,469,4,4,2,"1f8a514",19,1
"2113",1,1,312,2,2,2,"1f8a514",20,1
"2211",0,1,353,5,1,2,"1f8a514",21,1
"239",1,0,312,1,2,2,"1f8a514",22,1
"249",0,1,408,3,1,2,"1f8a514",23,1
"259",1,1,316,3,3,2,"1f8a514",24,1
"269",0,0,402,6,6,2,"1f8a514",25,1
"279",1,1,427,1,1,2,"1f8a514",26,1
"289",1,1,342,2,2,2,"1f8a514",27,1
"299",1,1,365,4,4,2,"1f8a514",28,1
"309",1,1,325,5,5,2,"1f8a514",29,1
"3113",0,1,427,1,2,2,"1f8a514",30,1
"3211",1,0,387,1,4,2,"1f8a514",31,1
"339",0,1,364,1,6,2,"1f8a514",32,1
"349",0,1,346,5,1,2,"1f8a514",33,1
"359",0,0,377,1,1,2,"1f8a514",34,1
"369",0,0,416,2,2,2,"1f8a514",35,1
"379",1,1,394,5,5,2,"1f8a514",36,1
"389",1,1,294,6,6,2,"1f8a514",37,1
"399",1,1,303,3,3,2,"1f8a514",38,1
"409",0,1,394,5,1,2,"1f8a514",39,1
"4113",0,1,338,1,3,2,"1f8a514",40,1
"4211",1,1,379,4,4,2,"1f8a514",41,1
"439",0,1,325,1,4,2,"1f8a514",42,1
"449",1,0,335,1,2,2,"1f8a514",43,1
"459",0,1,366,1,6,2,"1f8a514",44,1
"469",1,1,489,5,5,2,"1f8a514",45,1
"479",0,1,544,1,5,2,"1f8a514",46,1
"489",0,1,322,3,1,2,"1f8a514",47,1
"499",1,1,405,3,3,2,"1f8a514",48,1
"509",1,1,326,4,4,2,"1f8a514",49,1
"5113",1,0,411,1,2,2,"1f8a514",50,1
"5211",1,1,317,1,1,2,"1f8a514",51,1
"539",1,1,444,2,2,2,"1f8a514",52,1
"549",0,1,522,1,6,2,"1f8a514",53,1
"559",1,1,353,6,6,2,"1f8a514",54,1
"569",0,1,419,4,1,2,"1f8a514",55,1
"579",1,0,297,1,2,2,"1f8a514",56,1
"589",1,1,473,3,3,2,"1f8a514",57,1
"599",0,1,311,1,5,2,"1f8a514",58,1
"609",1,1,336,1,1,2,"1f8a514",59,1
"6113",0,1,336,1,3,2,"1f8a514",60,1
"6211",1,1,507,4,4,2,"1f8a514",61,1
"639",0,1,412,6,1,2,"1f8a514",62,1
"649",1,1,292,6,6,2,"1f8a514",63,1
"659",1,1,393,5,5,2,"1f8a514",64,1
"669",1,1,365,2,2,2,"1f8a514",65,1
"679",0,1,641,4,1,2,"1f8a514",66,1
"689",0,1,566,3,1,2,"1f8a514",67,1
"699",1,1,337,2,2,2,"1f8a514",68,1
"709",1,1,459,1,1,2,"1f8a514",69,1
"7113",0,1,278,1,6,2,"1f8a514",70,1
"7210",0,1,336,1,2,2,"1f8a514",71,1
"739",1,1,350,3,3,2,"1f8a514",72,1
"749",1,1,383,5,5,2,"1f8a514",73,1
"759",0,1,382,1,5,2,"1f8a514",74,1
"769",0,0,346,4,4,2,"1f8a514",75,1
"779",0,1,398,4,1,2,"1f8a514",76,1
"789",1,1,320,6,6,2,"1f8a514",77,1
"240",1,0,1478,1,5,2,"1cf889a",1,1
"340",1,0,476,1,2,2,"1cf889a",2,1
"440",1,0,275,1,3,2,"1cf889a",3,1
"540",0,1,468,4,1,2,"1cf889a",4,1
"640",1,1,280,1,1,2,"1cf889a",5,1
"740",0,1,136,1,6,2,"1cf889a",6,1
"810",0,0,1,5,5,2,"1cf889a",7,1
"910",1,1,307,4,4,2,"1cf889a",8,1
"1010",1,1,239,3,3,2,"1cf889a",9,1
"1110",1,1,409,2,2,2,"1cf889a",10,1
"1210",1,1,652,6,6,2,"1cf889a",11,1
"1310",0,0,29,5,5,2,"1cf889a",12,1
"1410",1,1,531,1,1,2,"1cf889a",13,1
"1510",0,1,137,5,1,2,"1cf889a",14,1
"1610",1,1,216,2,2,2,"1cf889a",15,1
"1710",0,1,104,1,3,2,"1cf889a",16,1
"1810",1,1,551,4,4,2,"1cf889a",17,1
"1910",1,0,578,1,2,2,"1cf889a",18,1
"2010",0,1,812,6,1,2,"1cf889a",19,1
"2114",1,1,341,3,3,2,"1cf889a",20,1
"2212",1,1,473,6,6,2,"1cf889a",21,1
"2310",0,1,1831,1,4,2,"1cf889a",22,1
"2410",0,0,520,2,2,2,"1cf889a",23,1
"2510",1,1,490,3,3,2,"1cf889a",24,1
"2610",0,1,135,1,6,2,"1cf889a",25,1
"2710",0,1,23,1,4,2,"1cf889a",26,1
"2810",1,1,456,1,1,2,"1cf889a",27,1
"2910",0,1,231,5,1,2,"1cf889a",28,1
"3010",1,1,241,5,5,2,"1cf889a",29,1
"3114",1,1,493,6,6,2,"1cf889a",30,1
"3212",0,1,430,3,1,2,"1cf889a",31,1
"3310",1,0,287,1,2,2,"1cf889a",32,1
"3410",1,1,1785,4,4,2,"1cf889a",33,1
"3510",0,1,258,2,1,2,"1cf889a",34,1
"3610",1,1,261,4,4,2,"1cf889a",35,1
"3710",0,0,227,3,3,2,"1cf889a",36,1
"3810",1,1,124,1,1,2,"1cf889a",37,1
"3910",1,0,63,3,1,2,"1cf889a",38,1
"4010",1,1,174,5,5,2,"1cf889a",39,1
"4114",0,1,138,4,1,2,"1cf889a",40,1
"4212",0,1,969,1,5,2,"1cf889a",41,1
"4310",0,1,262,6,1,2,"1cf889a",42,1
"4410",0,0,390,6,6,2,"1cf889a",43,1
"4510",1,1,135,2,2,2,"1cf889a",44,1
"4610",1,1,256,3,3,2,"1cf889a",45,1
"4710",0,1,167,4,1,2,"1cf889a",46,1
"4810",1,0,12,1,3,2,"1cf889a",47,1
"4910",0,0,267,5,5,2,"1cf889a",48,1
"5010",0,1,215,1,5,2,"1cf889a",49,1
"5114",0,0,49,1,1,2,"1cf889a",50,1
"5212",1,1,27,6,6,2,"1cf889a",51,1
"5310",1,0,410,1,2,2,"1cf889a",52,1
"5410",1,1,193,2,2,2,"1cf889a",53,1
"5510",0,0,354,4,4,2,"1cf889a",54,1
"5610",0,1,244,6,1,2,"1cf889a",55,1
"5710",1,1,224,4,4,2,"1cf889a",56,1
"5810",1,1,194,1,1,2,"1cf889a",57,1
"5910",0,0,249,6,6,2,"1cf889a",58,1
"6010",0,1,986,5,1,2,"1cf889a",59,1
"6114",0,1,695,6,1,2,"1cf889a",60,1
"6212",1,1,490,5,5,2,"1cf889a",61,1
"6310",1,0,713,1,3,2,"1cf889a",62,1
"6410",1,1,53,2,2,2,"1cf889a",63,1
"6510",0,1,589,4,1,2,"1cf889a",64,1
"6610",1,1,256,3,3,2,"1cf889a",65,1
"6710",0,1,1790,2,1,2,"1cf889a",66,1
"6810",1,1,1267,1,1,2,"1cf889a",67,1
"6910",1,1,1415,6,6,2,"1cf889a",68,1
"7010",1,1,541,5,5,2,"1cf889a",69,1
"7114",0,1,1671,5,1,2,"1cf889a",70,1
"7211",0,1,1531,3,1,2,"1cf889a",71,1
"7310",0,1,198,6,1,2,"1cf889a",72,1
"7410",1,1,302,2,2,2,"1cf889a",73,1
"7510",1,0,553,1,2,2,"1cf889a",74,1
"7610",1,1,326,3,3,2,"1cf889a",75,1
"7710",0,1,186,1,4,2,"1cf889a",76,1
"7810",1,1,439,4,4,2,"1cf889a",77,1
"250",1,0,705,1,3,1,"13f3dab",1,1
"350",1,1,354,4,4,1,"13f3dab",2,1
"450",1,1,307,1,1,1,"13f3dab",3,1
"550",1,1,404,2,2,1,"13f3dab",4,1
"650",1,1,377,6,6,1,"13f3dab",5,1
"750",0,1,1326,1,2,1,"13f3dab",6,1
"811",0,1,1549,1,6,1,"13f3dab",7,1
"911",0,1,651,5,1,1,"13f3dab",8,1
"1011",1,1,780,5,5,1,"13f3dab",9,1
"1111",0,1,732,1,4,1,"13f3dab",10,1
"1211",1,1,925,3,3,1,"13f3dab",11,1
"1311",0,1,973,3,1,1,"13f3dab",12,1
"1411",0,1,413,2,1,1,"13f3dab",13,1
"1511",0,1,498,1,4,1,"13f3dab",14,1
"1611",1,1,371,1,1,1,"13f3dab",15,1
"1711",1,1,1221,2,2,1,"13f3dab",16,1
"1811",1,1,1814,3,3,1,"13f3dab",17,1
"1911",1,1,689,5,5,1,"13f3dab",18,1
"2011",0,1,596,1,6,1,"13f3dab",19,1
"2115",1,1,295,4,4,1,"13f3dab",20,1
"2213",0,1,407,1,5,1,"13f3dab",21,1
"2311",1,1,1993,6,6,1,"13f3dab",22,1
"2411",1,1,1981,6,6,1,"13f3dab",23,1
"2511",1,1,1788,1,1,1,"13f3dab",24,1
"2611",1,0,1884,1,6,1,"13f3dab",25,1
"2711",1,1,92,3,3,1,"13f3dab",26,1
"2811",0,1,481,1,4,1,"13f3dab",27,1
"2911",1,0,544,2,1,1,"13f3dab",28,1
"3011",1,1,1313,2,2,1,"13f3dab",29,1
"3115",1,1,272,4,4,1,"13f3dab",30,1
"3213",0,1,334,5,1,1,"13f3dab",31,1
"3311",1,1,338,5,5,1,"13f3dab",32,1
"3411",1,0,228,3,1,1,"13f3dab",33,1
"3511",1,1,483,4,4,1,"13f3dab",34,1
"3611",1,0,1827,1,3,1,"13f3dab",35,1
"3711",1,1,1906,6,6,1,"13f3dab",36,1
"3811",1,1,1190,3,3,1,"13f3dab",37,1
"3911",0,1,1926,6,1,1,"13f3dab",38,1
"4011",0,1,230,1,2,1,"13f3dab",39,1
"4115",0,1,565,1,5,1,"13f3dab",40,1
"4213",1,1,697,2,2,1,"13f3dab",41,1
"4311",0,1,1354,4,1,1,"13f3dab",42,1
"4411",1,1,347,1,1,1,"13f3dab",43,1
"4511",1,1,187,5,5,1,"13f3dab",44,1
"4611",0,1,543,1,4,1,"13f3dab",45,1
"4711",1,1,386,5,5,1,"13f3dab",46,1
"4811",1,0,355,6,1,1,"13f3dab",47,1
"4911",0,1,423,1,2,1,"13f3dab",48,1
"5011",1,1,584,6,6,1,"13f3dab",49,1
"5115",1,1,1833,3,3,1,"13f3dab",50,1
"5213",1,1,1945,1,1,1,"13f3dab",51,1
"5311",1,1,1994,2,2,1,"13f3dab",52,1
"5411",1,0,1018,5,1,1,"13f3dab",53,1
"5511",1,1,1965,4,4,1,"13f3dab",54,1
"5611",1,0,1692,3,1,1,"13f3dab",55,1
"5711",1,0,1980,3,1,1,"13f3dab",56,1
"5811",1,1,1996,6,6,1,"13f3dab",57,1
"5911",1,0,540,1,6,1,"13f3dab",58,1
"6011",0,1,381,5,1,1,"13f3dab",59,1
"6115",1,0,366,1,2,1,"13f3dab",60,1
"6213",0,1,512,4,1,1,"13f3dab",61,1
"6311",-1,-1,0,5,5,1,"13f3dab",62,1
"6411",-1,-1,0,3,3,1,"13f3dab",63,1
"6511",1,1,390,4,4,1,"13f3dab",64,1
"6611",1,1,248,2,2,1,"13f3dab",65,1
"6711",1,1,250,1,1,1,"13f3dab",66,1
"6811",0,1,202,1,6,1,"13f3dab",67,1
"6911",0,1,233,5,1,1,"13f3dab",68,1
"7011",0,0,124,2,2,1,"13f3dab",69,1
"7115",1,1,241,5,5,1,"13f3dab",70,1
"7212",1,0,1392,3,1,1,"13f3dab",71,1
"7311",1,0,290,1,2,1,"13f3dab",72,1
"7411",1,1,210,4,4,1,"13f3dab",73,1
"7511",1,1,340,3,3,1,"13f3dab",74,1
"7611",1,1,596,6,6,1,"13f3dab",75,1
"7711",0,1,453,1,4,1,"13f3dab",76,1
"7811",1,1,375,1,1,1,"13f3dab",77,1
"260",0,1,1860,1,5,2,"1a6fd8a",1,1
"360",1,1,278,3,3,2,"1a6fd8a",2,1
"460",0,1,952,1,3,2,"1a6fd8a",3,1
"560",1,1,419,4,4,2,"1a6fd8a",4,1
"660",0,1,347,1,6,2,"1a6fd8a",5,1
"760",1,1,387,6,6,2,"1a6fd8a",6,1
"812",0,1,997,1,2,2,"1a6fd8a",7,1
"912",0,1,715,4,1,2,"1a6fd8a",8,1
"1012",1,1,363,1,1,2,"1a6fd8a",9,1
"1112",1,1,994,5,5,2,"1a6fd8a",10,1
"1212",1,1,365,2,2,2,"1a6fd8a",11,1
"1312",0,1,754,1,2,2,"1a6fd8a",12,1
"1412",1,1,391,2,2,2,"1a6fd8a",13,1
"1512",0,1,770,1,6,2,"1a6fd8a",14,1
"1612",1,1,482,3,3,2,"1a6fd8a",15,1
"1712",0,1,447,1,5,2,"1a6fd8a",16,1
"1812",0,1,842,1,3,2,"1a6fd8a",17,1
"1912",1,1,370,4,4,2,"1a6fd8a",18,1
"2012",1,1,578,1,1,2,"1a6fd8a",19,1
"2116",0,1,338,4,1,2,"1a6fd8a",20,1
"2214",1,1,805,5,5,2,"1a6fd8a",21,1
"2312",1,1,329,6,6,2,"1a6fd8a",22,1
"2412",0,1,311,2,1,2,"1a6fd8a",23,1
"2512",0,1,321,1,4,2,"1a6fd8a",24,1
"2612",1,1,248,4,4,2,"1a6fd8a",25,1
"2712",1,1,127,6,6,2,"1a6fd8a",26,1
"2812",1,1,809,1,1,2,"1a6fd8a",27,1
"2912",1,1,399,2,2,2,"1a6fd8a",28,1
"3012",0,1,1051,1,6,2,"1a6fd8a",29,1
"3116",0,1,804,1,5,2,"1a6fd8a",30,1
"3214",0,1,937,1,3,2,"1a6fd8a",31,1
"3312",1,1,295,3,3,2,"1a6fd8a",32,1
"3412",1,1,790,5,5,2,"1a6fd8a",33,1
"3512",0,1,851,2,1,2,"1a6fd8a",34,1
"3612",1,1,1258,1,1,2,"1a6fd8a",35,1
"3712",-1,-1,0,2,2,2,"1a6fd8a",36,1
"3812",1,0,1430,4,1,2,"1a6fd8a",37,1
"3912",0,1,456,1,3,2,"1a6fd8a",38,1
"4012",0,1,353,5,1,2,"1a6fd8a",39,1
"4116",1,1,404,6,6,2,"1a6fd8a",40,1
"4214",0,1,946,1,6,2,"1a6fd8a",41,1
"4312",1,1,773,4,4,2,"1a6fd8a",42,1
"4412",1,1,816,5,5,2,"1a6fd8a",43,1
"4512",1,1,375,3,3,2,"1a6fd8a",44,1
"4612",0,1,406,1,4,2,"1a6fd8a",45,1
"4712",1,1,345,3,3,2,"1a6fd8a",46,1
"4812",0,1,857,1,2,2,"1a6fd8a",47,1
"4912",1,1,477,5,5,2,"1a6fd8a",48,1
"5012",1,1,298,6,6,2,"1a6fd8a",49,1
"5116",1,1,324,1,1,2,"1a6fd8a",50,1
"5214",0,1,790,1,3,2,"1a6fd8a",51,1
"5312",1,1,1028,4,4,2,"1a6fd8a",52,1
"5412",1,1,878,2,2,2,"1a6fd8a",53,1
"5512",0,1,296,6,1,2,"1a6fd8a",54,1
"5612",0,1,350,5,1,2,"1a6fd8a",55,1
"5712",0,1,1222,6,1,2,"1a6fd8a",56,1
"5812",1,1,296,5,5,2,"1a6fd8a",57,1
"5912",0,1,513,1,2,2,"1a6fd8a",58,1
"6012",1,1,428,4,4,2,"1a6fd8a",59,1
"6116",1,1,474,2,2,2,"1a6fd8a",60,1
"6214",0,1,1282,1,4,2,"1a6fd8a",61,1
"6312",0,1,834,1,5,2,"1a6fd8a",62,1
"6412",1,1,282,3,3,2,"1a6fd8a",63,1
"6512",1,1,1039,1,1,2,"1a6fd8a",64,1
"6612",0,1,751,1,3,2,"1a6fd8a",65,1
"6712",1,1,724,6,6,2,"1a6fd8a",66,1
"6812",0,1,920,2,1,2,"1a6fd8a",67,1
"6912",1,1,387,5,5,2,"1a6fd8a",68,1
"7012",1,1,791,6,6,2,"1a6fd8a",69,1
"7116",1,1,900,4,4,2,"1a6fd8a",70,1
"7213",0,1,310,6,1,2,"1a6fd8a",71,1
"7312",1,1,800,3,3,2,"1a6fd8a",72,1
"7412",0,1,697,3,1,2,"1a6fd8a",73,1
"7512",0,1,330,1,5,2,"1a6fd8a",74,1
"7612",0,1,1516,4,1,2,"1a6fd8a",75,1
"7712",1,1,806,2,2,2,"1a6fd8a",76,1
"7812",1,1,1047,1,1,2,"1a6fd8a",77,1
"270",1,1,725,6,6,2,"1a01382",1,1
"370",0,1,462,6,1,2,"1a01382",2,1
"470",1,1,312,5,5,2,"1a01382",3,1
"570",1,0,310,1,4,2,"1a01382",4,1
"670",1,0,392,1,2,2,"1a01382",5,1
"770",1,1,296,2,2,2,"1a01382",6,1
"813",0,1,312,1,5,2,"1a01382",7,1
"913",1,0,255,3,1,2,"1a01382",8,1
"1013",0,0,348,4,4,2,"1a01382",9,1
"1113",1,1,256,3,3,2,"1a01382",10,1
"1213",1,1,1073,1,1,2,"1a01382",11,1
"1313",1,0,334,3,1,2,"1a01382",12,1
"1413",1,1,342,3,3,2,"1a01382",13,1
"1513",0,1,986,2,1,2,"1a01382",14,1
"1613",-1,-1,0,1,6,2,"1a01382",15,1
"1713",0,0,356,4,4,2,"1a01382",16,1
"1813",1,1,240,5,5,2,"1a01382",17,1
"1913",1,0,325,1,5,2,"1a01382",18,1
"2013",0,0,269,1,1,2,"1a01382",19,1
"2117",0,1,236,4,1,2,"1a01382",20,1
"2215",0,0,225,2,2,2,"1a01382",21,1
"2313",0,0,776,6,6,2,"1a01382",22,1
"2413",1,1,256,6,6,2,"1a01382",23,1
"2513",1,1,324,5,5,2,"1a01382",24,1
"2613",1,0,268,1,2,2,"1a01382",25,1
"2713",0,1,248,6,1,2,"1a01382",26,1
"2813",0,1,283,1,5,2,"1a01382",27,1
"2913",1,1,354,1,1,2,"1a01382",28,1
"3013",0,0,434,4,4,2,"1a01382",29,1
"3117",0,1,394,1,4,2,"1a01382",30,1
"3215",0,0,316,3,3,2,"1a01382",31,1
"3313",0,1,630,3,1,2,"1a01382",32,1
"3413",0,0,873,2,2,2,"1a01382",33,1
"3513",0,0,1028,4,4,2,"1a01382",34,1
"3613",1,1,245,2,2,2,"1a01382",35,1
"3713",1,1,1921,1,1,2,"1a01382",36,1
"3813",0,1,301,1,6,2,"1a01382",37,1
"3913",1,1,339,6,6,2,"1a01382",38,1
"4013",0,1,465,4,1,2,"1a01382",39,1
"4117",1,0,270,1,2,2,"1a01382",40,1
"4215",0,1,292,1,5,2,"1a01382",41,1
"4313",0,1,536,1,3,2,"1a01382",42,1
"4413",1,1,366,5,5,2,"1a01382",43,1
"4513",1,1,340,3,3,2,"1a01382",44,1
"4613",0,1,497,3,1,2,"1a01382",45,1
"4713",0,1,268,1,6,2,"1a01382",46,1
"4813",0,1,465,5,1,2,"1a01382",47,1
"4913",1,1,279,2,2,2,"1a01382",48,1
"5013",1,1,326,3,3,2,"1a01382",49,1
"5117",1,1,302,4,4,2,"1a01382",50,1
"5215",1,0,824,2,1,2,"1a01382",51,1
"5313",1,1,269,5,5,2,"1a01382",52,1
"5413",1,1,655,1,1,2,"1a01382",53,1
"5513",1,1,492,6,6,2,"1a01382",54,1
"5613",0,1,487,4,1,2,"1a01382",55,1
"5713",0,1,380,1,2,2,"1a01382",56,1
"5813",1,1,326,5,5,2,"1a01382",57,1
"5913",1,1,410,3,3,2,"1a01382",58,1
"6013",1,1,515,6,6,2,"1a01382",59,1
"6117",0,1,382,1,3,2,"1a01382",60,1
"6215",1,1,486,2,2,2,"1a01382",61,1
"6313",0,1,340,1,4,2,"1a01382",62,1
"6413",0,1,341,1,5,2,"1a01382",63,1
"6513",1,1,531,4,4,2,"1a01382",64,1
"6613",1,1,466,1,1,2,"1a01382",65,1
"6713",0,1,332,6,1,2,"1a01382",66,1
"6813",1,1,424,4,4,2,"1a01382",67,1
"6913",0,1,452,6,1,2,"1a01382",68,1
"7013",0,1,234,4,1,2,"1a01382",69,1
"7117",0,1,568,1,5,2,"1a01382",70,1
"7214",1,1,278,3,3,2,"1a01382",71,1
"7313",1,1,325,5,5,2,"1a01382",72,1
"7413",1,1,1781,1,1,2,"1a01382",73,1
"7513",-1,-1,0,2,2,2,"1a01382",74,1
"7613",1,1,63,6,6,2,"1a01382",75,1
"7713",1,0,284,1,2,2,"1a01382",76,1
"7813",0,1,287,3,1,2,"1a01382",77,1
"280",1,0,1054,6,1,3,"155582e",1,1
"380",1,1,429,4,4,3,"155582e",2,1
"480",-1,-1,0,1,1,3,"155582e",3,1
"580",-1,-1,0,1,2,3,"155582e",4,1
"680",-1,-1,0,1,5,3,"155582e",5,1
"780",1,1,283,5,5,3,"155582e",6,1
"814",0,1,476,4,1,3,"155582e",7,1
"914",1,1,271,6,6,3,"155582e",8,1
"1014",1,0,440,1,3,3,"155582e",9,1
"1114",0,0,62,3,3,3,"155582e",10,1
"1214",1,1,389,2,2,3,"155582e",11,1
"1314",1,0,1538,1,2,3,"155582e",12,1
"1414",1,1,168,3,3,3,"155582e",13,1
"1514",1,1,756,6,6,3,"155582e",14,1
"1614",1,0,310,5,1,3,"155582e",15,1
"1714",1,1,329,2,2,3,"155582e",16,1
"1814",1,1,70,5,5,3,"155582e",17,1
"1914",1,0,149,1,3,3,"155582e",18,1
"2014",0,1,204,4,1,3,"155582e",19,1
"2118",1,1,32,4,4,3,"155582e",20,1
"2216",0,0,156,1,1,3,"155582e",21,1
"2314",0,1,73,6,1,3,"155582e",22,1
"2414",1,1,2,6,6,3,"155582e",23,1
"2514",1,1,38,1,1,3,"155582e",24,1
"2614",1,1,284,3,3,3,"155582e",25,1
"2714",1,1,684,5,5,3,"155582e",26,1
"2814",0,0,159,2,2,3,"155582e",27,1
"2914",0,1,83,1,3,3,"155582e",28,1
"3014",0,1,135,1,6,3,"155582e",29,1
"3118",0,1,733,1,2,3,"155582e",30,1
"3216",0,1,184,1,5,3,"155582e",31,1
"3314",0,1,40,4,1,3,"155582e",32,1
"3414",1,1,38,4,4,3,"155582e",33,1
"3514",0,1,1918,1,5,3,"155582e",34,1
"3614",1,1,72,2,2,3,"155582e",35,1
"3714",1,1,40,4,4,3,"155582e",36,1
"3814",1,1,106,6,6,3,"155582e",37,1
"3914",0,1,153,1,2,3,"155582e",38,1
"4014",1,1,64,3,3,3,"155582e",39,1
"4118",1,1,183,1,1,3,"155582e",40,1
"4216",0,1,43,4,1,3,"155582e",41,1
"4314",0,1,638,3,1,3,"155582e",42,1
"4414",0,1,477,1,6,3,"155582e",43,1
"4514",0,0,482,5,5,3,"155582e",44,1
"4614",0,0,1173,3,3,3,"155582e",45,1
"4714",1,1,292,6,6,3,"155582e",46,1
"4814",1,0,437,1,2,3,"155582e",47,1
"4914",0,1,341,1,6,3,"155582e",48,1
"5014",0,1,854,1,5,3,"155582e",49,1
"5118",1,1,194,2,2,3,"155582e",50,1
"5216",0,1,165,4,1,3,"155582e",51,1
"5314",1,1,17,1,1,3,"155582e",52,1
"5414",0,1,211,1,3,3,"155582e",53,1
"5514",1,1,226,4,4,3,"155582e",54,1
"5614",1,1,83,5,5,3,"155582e",55,1
"5714",-1,-1,0,1,6,3,"155582e",56,1
"5814",1,0,309,2,1,3,"155582e",57,1
"5914",0,1,161,3,1,3,"155582e",58,1
"6014",0,1,7,1,4,3,"155582e",59,1
"6118",1,1,311,2,2,3,"155582e",60,1
"6216",0,1,666,5,1,3,"155582e",61,1
"6314",0,0,9,5,5,3,"155582e",62,1
"6414",1,1,84,6,6,3,"155582e",63,1
"6514",1,1,714,4,4,3,"155582e",64,1
"6614",1,1,287,1,1,3,"155582e",65,1
"6714",1,1,706,3,3,3,"155582e",66,1
"6814",1,1,410,5,5,3,"155582e",67,1
"6914",1,1,194,6,6,3,"155582e",68,1
"7014",0,1,1442,1,3,3,"155582e",69,1
"7118",0,1,130,5,1,3,"155582e",70,1
"7215",0,1,96,1,4,3,"155582e",71,1
"7314",1,0,19,2,1,3,"155582e",72,1
"7414",1,1,94,4,4,3,"155582e",73,1
"7514",0,0,475,2,2,3,"155582e",74,1
"7614",1,1,188,1,1,3,"155582e",75,1
"7714",0,1,354,1,6,3,"155582e",76,1
"7814",0,0,484,3,3,3,"155582e",77,1
"290",1,1,1678,5,5,3,"15595cf",1,1
"390",1,1,488,1,1,3,"15595cf",2,1
"490",1,1,419,3,3,3,"15595cf",3,1
"590",-1,-1,0,1,5,3,"15595cf",4,1
"690",-1,-1,0,2,2,3,"15595cf",5,1
"790",1,1,646,4,4,3,"15595cf",6,1
"815",0,1,1791,2,1,3,"15595cf",7,1
"915",0,1,1253,6,1,3,"15595cf",8,1
"1015",1,1,676,6,6,3,"15595cf",9,1
"1115",0,1,856,3,1,3,"15595cf",10,1
"1215",0,1,1147,1,4,3,"15595cf",11,1
"1315",0,1,930,5,1,3,"15595cf",12,1
"1415",0,1,795,1,3,3,"15595cf",13,1
"1515",1,1,1246,6,6,3,"15595cf",14,1
"1615",1,1,977,2,2,3,"15595cf",15,1
"1715",1,1,1118,3,3,3,"15595cf",16,1
"1815",-1,-1,0,1,6,3,"15595cf",17,1
"1915",-1,-1,0,4,4,3,"15595cf",18,1
"2015",0,0,341,5,5,3,"15595cf",19,1
"2119",1,0,1128,4,1,3,"15595cf",20,1
"2217",-1,-1,0,1,2,3,"15595cf",21,1
"2315",-1,-1,0,1,1,3,"15595cf",22,1
"2415",0,1,1058,1,4,3,"15595cf",23,1
"2515",1,0,933,1,5,3,"15595cf",24,1
"2615",0,1,766,1,3,3,"15595cf",25,1
"2715",1,1,1302,2,2,3,"15595cf",26,1
"2815",1,1,788,5,5,3,"15595cf",27,1
"2915",0,1,1343,2,1,3,"15595cf",28,1
"3015",1,1,1148,3,3,3,"15595cf",29,1
"3119",1,1,1313,4,4,3,"15595cf",30,1
"3217",1,1,827,1,1,3,"15595cf",31,1
"3315",0,1,1249,1,6,3,"15595cf",32,1
"3415",1,1,1091,6,6,3,"15595cf",33,1
"3515",1,1,1724,2,2,3,"15595cf",34,1
"3615",1,1,728,3,3,3,"15595cf",35,1
"3715",1,1,619,4,4,3,"15595cf",36,1
"3815",1,1,764,6,6,3,"15595cf",37,1
"3915",0,1,399,1,6,3,"15595cf",38,1
"4015",-1,-1,0,4,1,3,"15595cf",39,1
"4119",0,1,472,2,1,3,"15595cf",40,1
"4217",1,1,817,5,5,3,"15595cf",41,1
"4315",0,1,1365,1,5,3,"15595cf",42,1
"4415",1,1,732,1,1,3,"15595cf",43,1
"4515",0,1,663,3,1,3,"15595cf",44,1
"4615",1,1,615,3,3,3,"15595cf",45,1
"4715",1,1,569,5,5,3,"15595cf",46,1
"4815",0,1,1745,3,1,3,"15595cf",47,1
"4915",1,1,1075,6,6,3,"15595cf",48,1
"5015",1,1,579,4,4,3,"15595cf",49,1
"5119",0,1,1372,2,1,3,"15595cf",50,1
"5217",1,1,306,1,1,3,"15595cf",51,1
"5315",0,1,1027,1,6,3,"15595cf",52,1
"5415",0,1,487,1,5,3,"15595cf",53,1
"5515",0,1,1374,1,4,3,"15595cf",54,1
"5615",1,1,78,2,2,3,"15595cf",55,1
"5715",1,1,1008,2,2,3,"15595cf",56,1
"5815",0,1,1262,1,5,3,"15595cf",57,1
"5915",1,1,1431,1,1,3,"15595cf",58,1
"6015",0,1,1416,3,1,3,"15595cf",59,1
"6119",0,1,935,1,6,3,"15595cf",60,1
"6217",1,1,663,6,6,3,"15595cf",61,1
"6315",1,1,985,5,5,3,"15595cf",62,1
"6415",0,1,1560,4,1,3,"15595cf",63,1
"6515",0,1,762,2,1,3,"15595cf",64,1
"6615",1,1,1733,4,4,3,"15595cf",65,1
"6715",1,1,1752,3,3,3,"15595cf",66,1
"6815",0,1,987,4,1,3,"15595cf",67,1
"6915",1,1,992,4,4,3,"15595cf",68,1
"7015",1,1,1229,3,3,3,"15595cf",69,1
"7119",1,1,1389,1,1,3,"15595cf",70,1
"7216",0,1,1009,5,1,3,"15595cf",71,1
"7315",0,1,531,3,1,3,"15595cf",72,1
"7415",1,1,616,6,6,3,"15595cf",73,1
"7515",0,1,540,1,2,3,"15595cf",74,1
"7615",1,1,513,5,5,3,"15595cf",75,1
"7715",0,1,966,1,6,3,"15595cf",76,1
"7815",-1,-1,0,2,2,3,"15595cf",77,1
"2100",1,1,650,3,3,2,"1bbb7f0",1,1
"3100",1,0,370,4,1,2,"1bbb7f0",2,1
"4100",1,1,278,1,1,2,"1bbb7f0",3,1
"5100",1,0,664,3,1,2,"1bbb7f0",4,1
"6100",1,0,276,5,1,2,"1bbb7f0",5,1
"791",1,1,1736,6,6,2,"1bbb7f0",6,1
"816",-1,-1,0,1,6,2,"1bbb7f0",7,1
"916",1,1,405,5,5,2,"1bbb7f0",8,1
"1016",0,1,309,1,2,2,"1bbb7f0",9,1
"1116",1,1,469,2,2,2,"1bbb7f0",10,1
"1216",1,1,392,4,4,2,"1bbb7f0",11,1
"1316",1,0,304,6,1,2,"1bbb7f0",12,1
"1416",1,1,630,2,2,2,"1bbb7f0",13,1
"1516",1,1,434,6,6,2,"1bbb7f0",14,1
"1616",1,1,632,5,5,2,"1bbb7f0",15,1
"1716",0,1,571,4,1,2,"1bbb7f0",16,1
"1816",1,1,302,1,1,2,"1bbb7f0",17,1
"1916",1,0,295,1,3,2,"1bbb7f0",18,1
"2016",1,1,683,3,3,2,"1bbb7f0",19,1
"2120",1,0,378,1,5,2,"1bbb7f0",20,1
"2218",0,1,381,1,2,2,"1bbb7f0",21,1
"2316",1,1,388,4,4,2,"1bbb7f0",22,1
"2416",0,0,584,1,1,2,"1bbb7f0",23,1
"2516",1,0,394,5,1,2,"1bbb7f0",24,1
"2616",1,1,496,3,3,2,"1bbb7f0",25,1
"2716",0,1,634,1,6,2,"1bbb7f0",26,1
"2816",0,1,425,1,4,2,"1bbb7f0",27,1
"2916",1,1,726,4,4,2,"1bbb7f0",28,1
"3016",0,0,572,6,6,2,"1bbb7f0",29,1
"3120",1,0,324,1,3,2,"1bbb7f0",30,1
"3218",1,0,1399,2,1,2,"1bbb7f0",31,1
"3316",1,1,432,2,2,2,"1bbb7f0",32,1
"3416",1,1,389,5,5,2,"1bbb7f0",33,1
"3516",0,0,713,4,4,2,"1bbb7f0",34,1
"3616",1,1,461,5,5,2,"1bbb7f0",35,1
"3716",1,1,554,3,3,2,"1bbb7f0",36,1
"3816",0,1,392,1,5,2,"1bbb7f0",37,1
"3916",1,1,344,6,6,2,"1bbb7f0",38,1
"4016",0,0,371,2,2,2,"1bbb7f0",39,1
"4120",1,0,493,1,4,2,"1bbb7f0",40,1
"4218",0,1,519,1,6,2,"1bbb7f0",41,1
"4316",1,1,660,1,1,2,"1bbb7f0",42,1
"4416",0,1,401,1,3,2,"1bbb7f0",43,1
"4516",1,0,716,2,1,2,"1bbb7f0",44,1
"4616",0,0,298,3,3,2,"1bbb7f0",45,1
"4716",1,0,332,6,1,2,"1bbb7f0",46,1
"4816",1,0,505,1,5,2,"1bbb7f0",47,1
"4916",1,1,333,4,4,2,"1bbb7f0",48,1
"5016",1,1,340,1,1,2,"1bbb7f0",49,1
"5120",1,0,531,1,2,2,"1bbb7f0",50,1
"5218",1,0,463,4,1,2,"1bbb7f0",51,1
"5316",0,0,932,6,6,2,"1bbb7f0",52,1
"5416",0,0,459,2,2,2,"1bbb7f0",53,1
"5516",1,0,205,3,1,2,"1bbb7f0",54,1
"5616",1,1,451,5,5,2,"1bbb7f0",55,1
"5716",1,1,394,2,2,2,"1bbb7f0",56,1
"5816",1,0,1309,5,1,2,"1bbb7f0",57,1
"5916",0,1,601,3,1,2,"1bbb7f0",58,1
"6016",0,0,287,5,5,2,"1bbb7f0",59,1
"6120",1,1,918,1,1,2,"1bbb7f0",60,1
"6218",1,1,282,4,4,2,"1bbb7f0",61,1
"6316",1,0,269,1,6,2,"1bbb7f0",62,1
"6416",0,1,659,4,1,2,"1bbb7f0",63,1
"6516",1,1,380,3,3,2,"1bbb7f0",64,1
"6616",1,1,393,6,6,2,"1bbb7f0",65,1
"6716",0,1,360,1,2,2,"1bbb7f0",66,1
"6816",1,1,946,1,1,2,"1bbb7f0",67,1
"6916",0,0,611,2,2,2,"1bbb7f0",68,1
"7016",0,0,439,6,6,2,"1bbb7f0",69,1
"7120",1,1,332,4,4,2,"1bbb7f0",70,1
"7217",0,1,393,2,1,2,"1bbb7f0",71,1
"7316",0,0,209,3,3,2,"1bbb7f0",72,1
"7416",1,0,341,1,5,2,"1bbb7f0",73,1
"7516",1,1,288,5,5,2,"1bbb7f0",74,1
"7616",1,0,579,6,1,2,"1bbb7f0",75,1
"7716",0,1,519,1,4,2,"1bbb7f0",76,1
"7816",0,1,589,1,3,2,"1bbb7f0",77,1
"2101",1,1,462,1,1,2,"14a2759",1,1
"3101",1,1,197,3,3,2,"14a2759",2,1
"4101",0,1,272,6,1,2,"14a2759",3,1
"5101",1,1,382,6,6,2,"14a2759",4,1
"6101",1,0,21,2,1,2,"14a2759",5,1
"792",0,1,222,5,1,2,"14a2759",6,1
"817",0,0,253,5,5,2,"14a2759",7,1
"917",1,0,1193,1,3,2,"14a2759",8,1
"1017",0,0,904,2,2,2,"14a2759",9,1
"1117",0,1,272,1,4,2,"14a2759",10,1
"1217",0,0,284,4,4,2,"14a2759",11,1
"1317",0,1,807,6,1,2,"14a2759",12,1
"1417",1,1,465,6,6,2,"14a2759",13,1
"1517",0,1,797,2,1,2,"14a2759",14,1
"1617",1,1,1450,5,5,2,"14a2759",15,1
"1717",0,1,167,1,5,2,"14a2759",16,1
"1817",1,1,339,3,3,2,"14a2759",17,1
"1917",0,1,655,4,1,2,"14a2759",18,1
"2017",0,1,396,3,1,2,"14a2759",19,1
"2121",1,1,264,2,2,2,"14a2759",20,1
"2219",1,1,325,1,1,2,"14a2759",21,1
"2317",1,1,361,4,4,2,"14a2759",22,1
"2417",1,1,680,3,3,2,"14a2759",23,1
"2517",1,1,287,4,4,2,"14a2759",24,1
"2617",1,1,298,5,5,2,"14a2759",25,1
"2717",1,0,507,1,2,2,"14a2759",26,1
"2817",0,1,209,6,1,2,"14a2759",27,1
"2917",1,1,480,6,6,2,"14a2759",28,1
"3017",1,1,876,2,2,2,"14a2759",29,1
"3121",0,1,440,3,1,2,"14a2759",30,1
"3219",1,1,260,1,1,2,"14a2759",31,1
"3317",0,1,63,1,5,2,"14a2759",32,1
"3417",0,1,103,1,4,2,"14a2759",33,1
"3517",0,1,1573,6,1,2,"14a2759",34,1
"3617",0,1,784,1,5,2,"14a2759",35,1
"3717",-1,-1,0,1,1,2,"14a2759",36,1
"3817",-1,-1,0,1,2,2,"14a2759",37,1
"3917",0,0,732,6,6,2,"14a2759",38,1
"4017",0,0,806,2,2,2,"14a2759",39,1
"4121",1,1,382,3,3,2,"14a2759",40,1
"4219",1,1,266,5,5,2,"14a2759",41,1
"4317",0,1,1130,1,4,2,"14a2759",42,1
"4417",1,1,787,4,4,2,"14a2759",43,1
"4517",0,1,544,3,1,2,"14a2759",44,1
"4617",0,1,488,6,1,2,"14a2759",45,1
"4717",1,1,159,3,3,2,"14a2759",46,1
"4817",0,1,812,1,5,2,"14a2759",47,1
"4917",0,1,1351,1,4,2,"14a2759",48,1
"5017",1,1,1488,1,1,2,"14a2759",49,1
"5121",1,1,284,2,2,2,"14a2759",50,1
"5219",1,1,377,6,6,2,"14a2759",51,1
"5317",0,1,646,2,1,2,"14a2759",52,1
"5417",1,1,112,5,5,2,"14a2759",53,1
"5517",1,0,408,1,3,2,"14a2759",54,1
"5617",1,1,357,4,4,2,"14a2759",55,1
"5717",0,1,276,6,1,2,"14a2759",56,1
"5817",1,1,268,5,5,2,"14a2759",57,1
"5917",1,1,630,6,6,2,"14a2759",58,1
"6017",0,1,318,4,1,2,"14a2759",59,1
"6121",0,1,235,2,1,2,"14a2759",60,1
"6219",1,1,600,2,2,2,"14a2759",61,1
"6317",0,1,312,3,1,2,"14a2759",62,1
"6417",0,1,272,5,1,2,"14a2759",63,1
"6517",1,1,554,1,1,2,"14a2759",64,1
"6617",1,1,456,4,4,2,"14a2759",65,1
"6717",1,1,409,3,3,2,"14a2759",66,1
"6817",1,1,425,5,5,2,"14a2759",67,1
"6917",0,1,276,1,5,2,"14a2759",68,1
"7017",0,1,82,1,4,2,"14a2759",69,1
"7121",0,1,416,2,1,2,"14a2759",70,1
"7218",1,1,220,1,1,2,"14a2759",71,1
"7317",1,1,326,4,4,2,"14a2759",72,1
"7417",1,1,996,6,6,2,"14a2759",73,1
"7517",1,1,657,3,3,2,"14a2759",74,1
"7617",1,1,236,2,2,2,"14a2759",75,1
"7717",0,1,249,1,6,2,"14a2759",76,1
"7817",0,1,291,1,3,2,"14a2759",77,1
"2102",1,1,25,3,3,2,"6b82a7d",1,1
"3102",1,0,413,1,4,2,"6b82a7d",2,1
"4102",1,0,295,1,6,2,"6b82a7d",3,1
"5102",0,0,432,1,1,2,"6b82a7d",4,1
"6102",1,1,357,5,5,2,"6b82a7d",5,1
"793",0,0,284,4,4,2,"6b82a7d",6,1
"818",1,0,436,3,1,2,"6b82a7d",7,1
"918",1,1,416,2,2,2,"6b82a7d",8,1
"1018",1,1,357,6,6,2,"6b82a7d",9,1
"1118",0,1,285,1,5,2,"6b82a7d",10,1
"1218",1,0,219,1,2,2,"6b82a7d",11,1
"1318",1,0,673,1,4,2,"6b82a7d",12,1
"1418",1,1,510,3,3,2,"6b82a7d",13,1
"1518",1,0,306,1,6,2,"6b82a7d",14,1
"1618",0,1,300,5,1,2,"6b82a7d",15,1
"1718",0,1,159,2,1,2,"6b82a7d",16,1
"1818",1,1,259,2,2,2,"6b82a7d",17,1
"1918",1,0,279,1,3,2,"6b82a7d",18,1
"2018",1,1,304,5,5,2,"6b82a7d",19,1
"2122",0,0,439,6,6,2,"6b82a7d",20,1
"2220",1,1,278,1,1,2,"6b82a7d",21,1
"2318",0,0,404,4,4,2,"6b82a7d",22,1
"2418",0,0,159,1,1,2,"6b82a7d",23,1
"2518",0,0,265,6,6,2,"6b82a7d",24,1
"2618",1,1,297,5,5,2,"6b82a7d",25,1
"2718",0,1,295,1,3,2,"6b82a7d",26,1
"2818",1,0,279,1,4,2,"6b82a7d",27,1
"2918",1,1,286,2,2,2,"6b82a7d",28,1
"3018",0,1,452,1,6,2,"6b82a7d",29,1
"3122",1,0,475,1,5,2,"6b82a7d",30,1
"3220",0,0,270,3,3,2,"6b82a7d",31,1
"3318",0,0,130,4,4,2,"6b82a7d",32,1
"3418",1,0,293,2,1,2,"6b82a7d",33,1
"3518",1,0,260,1,2,2,"6b82a7d",34,1
"3618",0,1,294,1,4,2,"6b82a7d",35,1
"3718",0,1,358,1,5,2,"6b82a7d",36,1
"3818",1,1,306,6,6,2,"6b82a7d",37,1
"3918",1,1,447,2,2,2,"6b82a7d",38,1
"4018",1,1,375,1,1,2,"6b82a7d",39,1
"4122",1,0,360,3,1,2,"6b82a7d",40,1
"4220",0,0,372,3,3,2,"6b82a7d",41,1
"4318",0,0,169,5,5,2,"6b82a7d",42,1
"4418",0,0,275,4,4,2,"6b82a7d",43,1
"4518",0,1,312,1,6,2,"6b82a7d",44,1
"4618",0,1,233,5,1,2,"6b82a7d",45,1
"4718",1,1,573,3,3,2,"6b82a7d",46,1
"4818",1,1,128,4,4,2,"6b82a7d",47,1
"4918",1,0,288,3,1,2,"6b82a7d",48,1
"5018",1,1,306,2,2,2,"6b82a7d",49,1
"5122",1,1,39,5,5,2,"6b82a7d",50,1
"5220",1,1,468,1,1,2,"6b82a7d",51,1
"5318",1,1,264,6,6,2,"6b82a7d",52,1
"5418",0,1,316,6,1,2,"6b82a7d",53,1
"5518",0,1,331,2,1,2,"6b82a7d",54,1
"5618",0,1,345,4,1,2,"6b82a7d",55,1
"5718",1,1,471,2,2,2,"6b82a7d",56,1
"5818",0,1,369,5,1,2,"6b82a7d",57,1
"5918",1,0,327,3,1,2,"6b82a7d",58,1
"6018",0,0,260,5,5,2,"6b82a7d",59,1
"6122",0,0,497,3,3,2,"6b82a7d",60,1
"6220",0,1,241,1,6,2,"6b82a7d",61,1
"6318",1,1,318,6,6,2,"6b82a7d",62,1
"6418",1,1,177,1,1,2,"6b82a7d",63,1
"6518",0,1,302,1,4,2,"6b82a7d",64,1
"6618",1,1,1017,4,4,2,"6b82a7d",65,1
"6718",1,0,312,2,1,2,"6b82a7d",66,1
"6818",0,0,384,2,2,2,"6b82a7d",67,1
"6918",0,1,162,1,4,2,"6b82a7d",68,1
"7018",1,0,319,6,1,2,"6b82a7d",69,1
"7122",1,1,665,3,3,2,"6b82a7d",70,1
"7219",1,0,430,3,1,2,"6b82a7d",71,1
"7318",0,0,159,6,6,2,"6b82a7d",72,1
"7418",1,1,116,5,5,2,"6b82a7d",73,1
"7518",0,1,88,5,1,2,"6b82a7d",74,1
"7618",1,1,302,1,1,2,"6b82a7d",75,1
"7718",0,0,73,4,4,2,"6b82a7d",76,1
"7818",0,1,665,1,2,2,"6b82a7d",77,1
"2103",1,1,1309,4,4,3,"19b19bf",1,1
"3103",1,0,436,4,1,3,"19b19bf",2,1
"4103",1,0,411,1,3,3,"19b19bf",3,1
"5103",1,1,483,2,2,3,"19b19bf",4,1
"6103",1,1,493,1,1,3,"19b19bf",5,1
"794",1,0,480,1,6,3,"19b19bf",6,1
"819",1,1,413,5,5,3,"19b19bf",7,1
"919",1,0,469,5,1,3,"19b19bf",8,1
"1019",1,0,455,1,2,3,"19b19bf",9,1
"1119",1,1,502,3,3,3,"19b19bf",10,1
"1219",1,1,368,6,6,3,"19b19bf",11,1
"1319",1,0,401,5,1,3,"19b19bf",12,1
"1419",1,0,653,4,1,3,"19b19bf",13,1
"1519",1,1,364,2,2,3,"19b19bf",14,1
"1619",1,1,406,4,4,3,"19b19bf",15,1
"1719",1,1,380,6,6,3,"19b19bf",16,1
"1819",1,1,460,3,3,3,"19b19bf",17,1
"1919",1,0,410,1,6,3,"19b19bf",18,1
"2019",1,0,388,3,1,3,"19b19bf",19,1
"2123",1,1,373,5,5,3,"19b19bf",20,1
"2221",1,0,336,1,2,3,"19b19bf",21,1
"2319",1,1,493,1,1,3,"19b19bf",22,1
"2419",1,0,500,1,5,3,"19b19bf",23,1
"2519",1,1,472,3,3,3,"19b19bf",24,1
"2619",1,0,517,6,1,3,"19b19bf",25,1
"2719",1,1,581,2,2,3,"19b19bf",26,1
"2819",1,1,641,6,6,3,"19b19bf",27,1
"2919",1,1,412,1,1,3,"19b19bf",28,1
"3019",1,0,496,1,4,3,"19b19bf",29,1
"3123",1,1,635,5,5,3,"19b19bf",30,1
"3221",1,0,546,2,1,3,"19b19bf",31,1
"3319",1,0,687,1,3,3,"19b19bf",32,1
"3419",1,1,482,4,4,3,"19b19bf",33,1
"3519",1,0,353,1,4,3,"19b19bf",34,1
"3619",1,0,817,1,6,3,"19b19bf",35,1
"3719",1,0,408,1,2,3,"19b19bf",36,1
"3819",1,1,353,5,5,3,"19b19bf",37,1
"3919",1,1,475,6,6,3,"19b19bf",38,1
"4019",1,1,418,2,2,3,"19b19bf",39,1
"4123",-1,-1,0,1,3,3,"19b19bf",40,1
"4221",1,1,412,3,3,3,"19b19bf",41,1
"4319",1,1,670,4,4,3,"19b19bf",42,1
"4419",1,1,481,1,1,3,"19b19bf",43,1
"4519",1,0,833,5,1,3,"19b19bf",44,1
"4619",1,0,518,1,2,3,"19b19bf",45,1
"4719",1,1,565,2,2,3,"19b19bf",46,1
"4819",1,0,358,1,3,3,"19b19bf",47,1
"4919",1,0,383,5,1,3,"19b19bf",48,1
"5019",1,1,431,3,3,3,"19b19bf",49,1
"5123",1,1,499,5,5,3,"19b19bf",50,1
"5221",1,0,420,6,1,3,"19b19bf",51,1
"5319",1,1,443,1,1,3,"19b19bf",52,1
"5419",1,1,434,6,6,3,"19b19bf",53,1
"5519",1,0,506,4,1,3,"19b19bf",54,1
"5619",1,1,541,4,4,3,"19b19bf",55,1
"5719",1,0,365,1,3,3,"19b19bf",56,1
"5819",1,1,418,1,1,3,"19b19bf",57,1
"5919",1,1,347,6,6,3,"19b19bf",58,1
"6019",1,1,371,5,5,3,"19b19bf",59,1
"6123",1,1,366,4,4,3,"19b19bf",60,1
"6221",1,1,552,2,2,3,"19b19bf",61,1
"6319",1,1,600,3,3,3,"19b19bf",62,1
"6419",1,0,541,1,6,3,"19b19bf",63,1
"6519",1,0,845,1,4,3,"19b19bf",64,1
"6619",1,0,567,5,1,3,"19b19bf",65,1
"6719",1,0,361,2,1,3,"19b19bf",66,1
"6819",1,0,465,2,1,3,"19b19bf",67,1
"6919",1,1,547,3,3,3,"19b19bf",68,1
"7019",1,1,497,2,2,3,"19b19bf",69,1
"7123",1,0,558,1,4,3,"19b19bf",70,1
"7220",1,1,630,4,4,3,"19b19bf",71,1
"7319",1,0,637,5,1,3,"19b19bf",72,1
"7419",1,0,633,6,1,3,"19b19bf",73,1
"7519",1,1,481,1,1,3,"19b19bf",74,1
"7619",1,1,366,6,6,3,"19b19bf",75,1
"7719",1,1,625,5,5,3,"19b19bf",76,1
"7819",1,0,414,1,3,3,"19b19bf",77,1
"2104",1,0,659,1,2,3,"16ea51f",1,1
"3104",1,0,439,3,1,3,"16ea51f",2,1
"4104",0,0,465,4,4,3,"16ea51f",3,1
"5104",1,1,166,2,2,3,"16ea51f",4,1
"6104",1,1,275,6,6,3,"16ea51f",5,1
"795",1,1,297,3,3,3,"16ea51f",6,1
"820",1,1,325,1,1,3,"16ea51f",7,1
"920",1,0,355,1,5,3,"16ea51f",8,1
"1020",0,1,358,6,1,3,"16ea51f",9,1
"1120",0,1,309,4,1,3,"16ea51f",10,1
"1220",1,1,315,5,5,3,"16ea51f",11,1
"1320",1,1,416,4,4,3,"16ea51f",12,1
"1420",1,1,371,5,5,3,"16ea51f",13,1
"1520",0,1,306,3,1,3,"16ea51f",14,1
"1620",0,1,330,6,1,3,"16ea51f",15,1
"1720",0,1,355,1,2,3,"16ea51f",16,1
"1820",0,1,368,5,1,3,"16ea51f",17,1
"1920",1,1,298,3,3,3,"16ea51f",18,1
"2020",0,1,283,1,4,3,"16ea51f",19,1
"2124",1,1,349,1,1,3,"16ea51f",20,1
"2222",1,1,264,6,6,3,"16ea51f",21,1
"2320",1,1,332,2,2,3,"16ea51f",22,1
"2420",0,1,374,6,1,3,"16ea51f",23,1
"2520",1,1,301,6,6,3,"16ea51f",24,1
"2620",0,1,312,2,1,3,"16ea51f",25,1
"2720",1,1,320,4,4,3,"16ea51f",26,1
"2820",1,1,276,1,1,3,"16ea51f",27,1
"2920",1,1,301,5,5,3,"16ea51f",28,1
"3020",0,1,349,1,3,3,"16ea51f",29,1
"3124",1,1,324,2,2,3,"16ea51f",30,1
"3222",0,1,366,1,4,3,"16ea51f",31,1
"3320",0,1,295,5,1,3,"16ea51f",32,1
"3420",1,1,281,3,3,3,"16ea51f",33,1
"3520",0,1,349,1,4,3,"16ea51f",34,1
"3620",1,1,286,1,1,3,"16ea51f",35,1
"3720",1,1,309,6,6,3,"16ea51f",36,1
"3820",0,1,353,1,5,3,"16ea51f",37,1
"3920",0,1,303,6,1,3,"16ea51f",38,1
"4020",1,0,325,2,1,3,"16ea51f",39,1
"4124",1,1,420,3,3,3,"16ea51f",40,1
"4222",1,1,298,4,4,3,"16ea51f",41,1
"4320",1,1,273,2,2,3,"16ea51f",42,1
"4420",1,0,662,3,1,3,"16ea51f",43,1
"4520",1,1,425,5,5,3,"16ea51f",44,1
"4620",1,1,353,5,5,3,"16ea51f",45,1
"4720",1,1,237,3,3,3,"16ea51f",46,1
"4820",1,0,277,1,2,3,"16ea51f",47,1
"4920",1,1,250,4,4,3,"16ea51f",48,1
"5020",1,1,321,6,6,3,"16ea51f",49,1
"5124",1,1,301,1,1,3,"16ea51f",50,1
"5222",1,1,281,2,2,3,"16ea51f",51,1
"5320",0,1,259,1,4,3,"16ea51f",52,1
"5420",1,0,303,1,5,3,"16ea51f",53,1
"5520",0,1,346,6,1,3,"16ea51f",54,1
"5620",0,1,363,1,3,3,"16ea51f",55,1
"5720",1,1,308,6,6,3,"16ea51f",56,1
"5820",1,1,472,5,5,3,"16ea51f",57,1
"5920",0,1,405,5,1,3,"16ea51f",58,1
"6020",1,1,1165,3,3,3,"16ea51f",59,1
"6124",0,1,337,1,6,3,"16ea51f",60,1
"6222",0,1,359,1,2,3,"16ea51f",61,1
"6320",0,1,288,3,1,3,"16ea51f",62,1
"6420",1,1,429,1,1,3,"16ea51f",63,1
"6520",1,1,532,4,4,3,"16ea51f",64,1
"6620",0,1,312,1,4,3,"16ea51f",65,1
"6720",1,1,413,2,2,3,"16ea51f",66,1
"6820",1,1,353,5,5,3,"16ea51f",67,1
"6920",1,1,252,4,4,3,"16ea51f",68,1
"7020",1,1,505,6,6,3,"16ea51f",69,1
"7124",0,1,282,5,1,3,"16ea51f",70,1
"7221",1,1,307,1,1,3,"16ea51f",71,1
"7320",1,1,272,2,2,3,"16ea51f",72,1
"7420",0,1,276,1,2,3,"16ea51f",73,1
"7520",0,1,271,3,1,3,"16ea51f",74,1
"7620",0,1,292,1,4,3,"16ea51f",75,1
"7720",0,1,321,6,1,3,"16ea51f",76,1
"7820",1,1,361,3,3,3,"16ea51f",77,1
"2105",-1,-1,0,3,1,2,"1b9e272",1,1
"3105",1,1,459,4,4,2,"1b9e272",2,1
"4105",1,1,405,1,1,2,"1b9e272",3,1
"5105",1,1,603,2,2,2,"1b9e272",4,1
"6105",1,0,288,5,1,2,"1b9e272",5,1
"796",0,0,506,5,5,2,"1b9e272",6,1
"821",1,0,385,1,4,2,"1b9e272",7,1
"921",1,1,390,6,6,2,"1b9e272",8,1
"1021",1,1,309,3,3,2,"1b9e272",9,1
"1121",1,0,339,1,6,2,"1b9e272",10,1
"1221",1,0,396,2,1,2,"1b9e272",11,1
"1321",1,1,363,5,5,2,"1b9e272",12,1
"1421",1,1,557,6,6,2,"1b9e272",13,1
"1521",0,1,370,1,3,2,"1b9e272",14,1
"1621",1,1,462,3,3,2,"1b9e272",15,1
"1721",1,0,309,1,4,2,"1b9e272",16,1
"1821",0,1,345,6,1,2,"1b9e272",17,1
"1921",1,1,480,1,1,2,"1b9e272",18,1
"2021",1,0,415,2,1,2,"1b9e272",19,1
"2125",1,0,424,1,5,2,"1b9e272",20,1
"2223",1,1,498,2,2,2,"1b9e272",21,1
"2321",1,1,495,4,4,2,"1b9e272",22,1
"2421",0,0,284,4,4,2,"1b9e272",23,1
"2521",0,1,673,1,2,2,"1b9e272",24,1
"2621",1,1,377,5,5,2,"1b9e272",25,1
"2721",0,1,405,1,6,2,"1b9e272",26,1
"2821",0,1,464,3,1,2,"1b9e272",27,1
"2921",0,1,455,1,4,2,"1b9e272",28,1
"3021",1,1,373,6,6,2,"1b9e272",29,1
"3125",1,1,529,2,2,2,"1b9e272",30,1
"3223",1,1,385,3,3,2,"1b9e272",31,1
"3321",0,1,369,1,5,2,"1b9e272",32,1
"3421",1,1,389,1,1,2,"1b9e272",33,1
"3521",1,1,435,6,6,2,"1b9e272",34,1
"3621",1,1,433,5,5,2,"1b9e272",35,1
"3721",1,1,496,4,4,2,"1b9e272",36,1
"3821",1,1,319,1,1,2,"1b9e272",37,1
"3921",1,1,493,2,2,2,"1b9e272",38,1
"4021",1,0,421,2,1,2,"1b9e272",39,1
"4125",1,0,305,1,6,2,"1b9e272",40,1
"4223",0,1,529,1,4,2,"1b9e272",41,1
"4321",1,1,557,3,3,2,"1b9e272",42,1
"4421",0,1,403,5,1,2,"1b9e272",43,1
"4521",0,1,374,3,1,2,"1b9e272",44,1
"4621",0,1,529,6,1,2,"1b9e272",45,1
"4721",0,1,394,5,1,2,"1b9e272",46,1
"4821",1,1,429,5,5,2,"1b9e272",47,1
"4921",1,1,706,4,4,2,"1b9e272",48,1
"5021",1,0,249,1,4,2,"1b9e272",49,1
"5125",1,0,343,1,2,2,"1b9e272",50,1
"5223",1,1,429,2,2,2,"1b9e272",51,1
"5321",1,1,442,1,1,2,"1b9e272",52,1
"5421",1,1,435,3,3,2,"1b9e272",53,1
"5521",-1,-1,0,1,3,2,"1b9e272",54,1
"5621",1,1,640,6,6,2,"1b9e272",55,1
"5721",0,1,542,4,1,2,"1b9e272",56,1
"5821",0,1,1748,1,2,2,"1b9e272",57,1
"5921",1,1,330,5,5,2,"1b9e272",58,1
"6021",1,1,297,3,3,2,"1b9e272",59,1
"6125",1,1,506,4,4,2,"1b9e272",60,1
"6223",0,1,529,1,3,2,"1b9e272",61,1
"6321",1,1,446,6,6,2,"1b9e272",62,1
"6421",1,0,592,5,1,2,"1b9e272",63,1
"6521",0,0,1103,2,2,2,"1b9e272",64,1
"6621",1,1,368,1,1,2,"1b9e272",65,1
"6721",0,1,431,6,1,2,"1b9e272",66,1
"6821",1,1,1708,2,2,2,"1b9e272",67,1
"6921",1,0,556,4,1,2,"1b9e272",68,1
"7021",1,1,480,5,5,2,"1b9e272",69,1
"7125",1,1,430,1,1,2,"1b9e272",70,1
"7222",0,1,477,6,1,2,"1b9e272",71,1
"7321",1,0,420,2,1,2,"1b9e272",72,1
"7421",1,1,358,6,6,2,"1b9e272",73,1
"7521",0,1,213,1,5,2,"1b9e272",74,1
"7621",1,1,276,3,3,2,"1b9e272",75,1
"7721",0,1,338,1,3,2,"1b9e272",76,1
"7821",1,1,302,4,4,2,"1b9e272",77,1
"2106",1,1,831,1,1,1,"199e80c",1,1
"3106",1,1,368,4,4,1,"199e80c",2,1
"4106",1,1,338,3,3,1,"199e80c",3,1
"5106",0,1,308,2,1,1,"199e80c",4,1
"6106",1,1,373,2,2,1,"199e80c",5,1
"797",0,1,700,5,1,1,"199e80c",6,1
"822",0,1,509,1,6,1,"199e80c",7,1
"922",1,1,352,6,6,1,"199e80c",8,1
"1022",0,1,512,3,1,1,"199e80c",9,1
"1122",0,1,500,1,4,1,"199e80c",10,1
"1222",0,0,261,5,5,1,"199e80c",11,1
"1322",0,1,455,3,1,1,"199e80c",12,1
"1422",1,1,536,2,2,1,"199e80c",13,1
"1522",1,1,363,6,6,1,"199e80c",14,1
"1622",1,1,333,3,3,1,"199e80c",15,1
"1722",0,1,480,1,4,1,"199e80c",16,1
"1822",1,0,320,1,2,1,"199e80c",17,1
"1922",1,1,339,4,4,1,"199e80c",18,1
"2022",0,1,596,6,1,1,"199e80c",19,1
"2126",0,1,470,5,1,1,"199e80c",20,1
"2224",1,1,327,1,1,1,"199e80c",21,1
"2322",1,1,299,5,5,1,"199e80c",22,1
"2422",0,1,410,1,6,1,"199e80c",23,1
"2522",1,1,590,4,4,1,"199e80c",24,1
"2622",0,1,366,5,1,1,"199e80c",25,1
"2722",1,1,482,6,6,1,"199e80c",26,1
"2822",0,1,307,1,3,1,"199e80c",27,1
"2922",1,1,454,5,5,1,"199e80c",28,1
"3022",1,1,486,1,1,1,"199e80c",29,1
"3126",1,1,601,3,3,1,"199e80c",30,1
"3224",0,1,249,1,2,1,"199e80c",31,1
"3322",0,1,445,1,4,1,"199e80c",32,1
"3422",1,1,285,2,2,1,"199e80c",33,1
"3522",1,1,464,1,1,1,"199e80c",34,1
"3622",0,1,304,1,4,1,"199e80c",35,1
"3722",1,1,323,2,2,1,"199e80c",36,1
"3822",1,1,309,6,6,1,"199e80c",37,1
"3922",0,1,360,2,1,1,"199e80c",38,1
"4022",0,1,409,6,1,1,"199e80c",39,1
"4126",1,1,524,5,5,1,"199e80c",40,1
"4224",0,1,285,5,1,1,"199e80c",41,1
"4322",0,1,271,1,3,1,"199e80c",42,1
"4422",1,1,305,4,4,1,"199e80c",43,1
"4522",1,1,356,3,3,1,"199e80c",44,1
"4622",1,1,340,3,3,1,"199e80c",45,1
"4722",1,1,311,6,6,1,"199e80c",46,1
"4822",1,1,183,5,5,1,"199e80c",47,1
"4922",0,1,314,6,1,1,"199e80c",48,1
"5022",0,1,300,1,5,1,"199e80c",49,1
"5126",0,1,238,1,2,1,"199e80c",50,1
"5224",1,1,367,2,2,1,"199e80c",51,1
"5322",0,1,402,4,1,1,"199e80c",52,1
"5422",1,1,452,1,1,1,"199e80c",53,1
"5522",0,1,438,1,3,1,"199e80c",54,1
"5622",1,1,246,4,4,1,"199e80c",55,1
"5722",1,1,314,1,1,1,"199e80c",56,1
"5822",0,1,652,1,6,1,"199e80c",57,1
"5922",1,1,494,4,4,1,"199e80c",58,1
"6022",1,1,288,6,6,1,"199e80c",59,1
"6126",1,1,322,2,2,1,"199e80c",60,1
"6224",0,1,291,4,1,1,"199e80c",61,1
"6322",0,1,407,1,5,1,"199e80c",62,1
"6422",0,1,455,1,3,1,"199e80c",63,1
"6522",0,1,361,2,1,1,"199e80c",64,1
"6622",1,1,283,5,5,1,"199e80c",65,1
"6722",1,1,541,3,3,1,"199e80c",66,1
"6822",1,1,270,6,6,1,"199e80c",67,1
"6922",0,0,290,5,5,1,"199e80c",68,1
"7022",1,1,273,1,1,1,"199e80c",69,1
"7126",1,1,309,2,2,1,"199e80c",70,1
"7223",0,1,405,1,4,1,"199e80c",71,1
"7322",1,1,362,4,4,1,"199e80c",72,1
"7422",1,1,458,3,3,1,"199e80c",73,1
"7522",0,1,349,1,3,1,"199e80c",74,1
"7622",0,1,270,1,5,1,"199e80c",75,1
"7722",0,1,289,2,1,1,"199e80c",76,1
"7822",0,1,273,1,6,1,"199e80c",77,1
"2107",1,0,1454,1,4,3,"1b74bbc",1,1
"3107",1,0,684,3,1,3,"1b74bbc",2,1
"4107",1,1,585,5,5,3,"1b74bbc",3,1
"5107",1,1,398,1,1,3,"1b74bbc",4,1
"6107",1,1,347,6,6,3,"1b74bbc",5,1
"798",1,1,401,3,3,3,"1b74bbc",6,1
"823",1,0,428,1,5,3,"1b74bbc",7,1
"923",1,1,436,4,4,3,"1b74bbc",8,1
"1023",1,1,426,2,2,3,"1b74bbc",9,1
"1123",1,0,559,1,6,3,"1b74bbc",10,1
"1223",0,1,413,2,1,3,"1b74bbc",11,1
"1323",1,1,250,2,2,3,"1b74bbc",12,1
"1423",0,0,400,6,6,3,"1b74bbc",13,1
"1523",1,1,526,5,5,3,"1b74bbc",14,1
"1623",0,1,418,1,6,3,"1b74bbc",15,1
"1723",1,1,559,4,4,3,"1b74bbc",16,1
"1823",0,1,357,1,5,3,"1b74bbc",17,1
"1923",1,1,435,3,3,3,"1b74bbc",18,1
"2023",1,0,369,1,4,3,"1b74bbc",19,1
"2127",0,0,468,1,1,3,"1b74bbc",20,1
"2225",1,0,436,1,3,3,"1b74bbc",21,1
"2323",1,0,517,2,1,3,"1b74bbc",22,1
"2423",0,0,550,3,3,3,"1b74bbc",23,1
"2523",0,0,412,6,6,3,"1b74bbc",24,1
"2623",1,0,418,1,2,3,"1b74bbc",25,1
"2723",0,1,290,4,1,3,"1b74bbc",26,1
"2823",0,1,439,1,5,3,"1b74bbc",27,1
"2923",1,1,400,1,1,3,"1b74bbc",28,1
"3023",0,0,307,4,4,3,"1b74bbc",29,1
"3127",0,1,433,6,1,3,"1b74bbc",30,1
"3225",1,0,825,3,1,3,"1b74bbc",31,1
"3323",0,0,308,2,2,3,"1b74bbc",32,1
"3423",1,1,313,5,5,3,"1b74bbc",33,1
"3523",1,1,423,3,3,3,"1b74bbc",34,1
"3623",1,0,572,4,1,3,"1b74bbc",35,1
"3723",1,1,488,2,2,3,"1b74bbc",36,1
"3823",0,1,551,1,5,3,"1b74bbc",37,1
"3923",0,0,315,5,5,3,"1b74bbc",38,1
"4023",1,1,409,1,1,3,"1b74bbc",39,1
"4127",0,0,71,4,4,3,"1b74bbc",40,1
"4225",1,0,445,6,1,3,"1b74bbc",41,1
"4323",1,1,422,6,6,3,"1b74bbc",42,1
"4423",1,0,350,1,3,3,"1b74bbc",43,1
"4523",0,1,444,2,1,3,"1b74bbc",44,1
"4623",1,1,447,1,1,3,"1b74bbc",45,1
"4723",1,1,386,2,2,3,"1b74bbc",46,1
"4823",1,0,462,1,3,3,"1b74bbc",47,1
"4923",0,0,425,6,6,3,"1b74bbc",48,1
"5023",0,1,269,1,6,3,"1b74bbc",49,1
"5127",1,1,490,4,4,3,"1b74bbc",50,1
"5225",1,1,402,5,5,3,"1b74bbc",51,1
"5323",1,0,241,1,4,3,"1b74bbc",52,1
"5423",1,0,448,2,1,3,"1b74bbc",53,1
"5523",1,0,461,5,1,3,"1b74bbc",54,1
"5623",1,1,419,3,3,3,"1b74bbc",55,1
"5723",0,0,311,1,1,3,"1b74bbc",56,1
"5823",0,1,330,1,2,3,"1b74bbc",57,1
"5923",1,1,338,5,5,3,"1b74bbc",58,1
"6023",0,0,283,3,3,3,"1b74bbc",59,1
"6127",1,1,305,4,4,3,"1b74bbc",60,1
"6225",0,1,346,3,1,3,"1b74bbc",61,1
"6323",1,0,295,6,1,3,"1b74bbc",62,1
"6423",1,1,285,6,6,3,"1b74bbc",63,1
"6523",1,0,465,4,1,3,"1b74bbc",64,1
"6623",0,0,352,2,2,3,"1b74bbc",65,1
"6723",0,1,433,1,5,3,"1b74bbc",66,1
"6823",1,0,666,4,1,3,"1b74bbc",67,1
"6923",1,1,404,3,3,3,"1b74bbc",68,1
"7023",1,0,426,5,1,3,"1b74bbc",69,1
"7127",1,0,536,6,1,3,"1b74bbc",70,1
"7224",1,1,486,5,5,3,"1b74bbc",71,1
"7323",1,1,684,1,1,3,"1b74bbc",72,1
"7423",0,0,471,4,4,3,"1b74bbc",73,1
"7523",1,0,1317,1,2,3,"1b74bbc",74,1
"7623",1,0,532,3,1,3,"1b74bbc",75,1
"7723",1,1,1055,6,6,3,"1b74bbc",76,1
"7823",1,1,705,2,2,3,"1b74bbc",77,1
"2108",1,1,1553,4,4,1,"17e71e4",1,1
"3108",1,1,579,3,3,1,"17e71e4",2,1
"4108",1,0,495,5,1,1,"17e71e4",3,1
"5108",1,0,635,1,4,1,"17e71e4",4,1
"6108",1,1,447,5,5,1,"17e71e4",5,1
"799",1,0,439,1,6,1,"17e71e4",6,1
"824",1,1,449,6,6,1,"17e71e4",7,1
"924",0,0,347,2,2,1,"17e71e4",8,1
"1024",1,0,500,1,3,1,"17e71e4",9,1
"1124",1,1,425,1,1,1,"17e71e4",10,1
"1224",0,1,388,2,1,1,"17e71e4",11,1
"1324",0,0,806,5,5,1,"17e71e4",12,1
"1424",1,0,871,5,1,1,"17e71e4",13,1
"1524",1,1,438,4,4,1,"17e71e4",14,1
"1624",0,1,401,4,1,1,"17e71e4",15,1
"1724",0,1,280,1,3,1,"17e71e4",16,1
"1824",0,0,367,2,2,1,"17e71e4",17,1
"1924",1,1,310,1,1,1,"17e71e4",18,1
"2024",1,0,1104,2,1,1,"17e71e4",19,1
"2128",1,1,407,3,3,1,"17e71e4",20,1
"2226",0,1,314,1,6,1,"17e71e4",21,1
"2324",1,1,365,6,6,1,"17e71e4",22,1
"2424",1,0,391,2,1,1,"17e71e4",23,1
"2524",0,0,290,6,6,1,"17e71e4",24,1
"2624",1,1,357,4,4,1,"17e71e4",25,1
"2724",0,1,17,4,1,1,"17e71e4",26,1
"2824",0,0,249,1,1,1,"17e71e4",27,1
"2924",1,1,1119,2,2,1,"17e71e4",28,1
"3024",1,1,510,5,5,1,"17e71e4",29,1
"3128",0,1,401,6,1,1,"17e71e4",30,1
"3226",0,1,872,3,1,1,"17e71e4",31,1
"3324",0,1,226,1,5,1,"17e71e4",32,1
"3424",1,1,404,3,3,1,"17e71e4",33,1
"3524",1,0,246,4,1,1,"17e71e4",34,1
"3624",1,0,51,5,1,1,"17e71e4",35,1
"3724",1,1,49,3,3,1,"17e71e4",36,1
"3824",1,1,34,2,2,1,"17e71e4",37,1
"3924",0,1,262,3,1,1,"17e71e4",38,1
"4024",1,1,238,1,1,1,"17e71e4",39,1
"4128",0,1,255,6,1,1,"17e71e4",40,1
"4226",0,0,650,6,6,1,"17e71e4",41,1
"4324",1,1,550,4,4,1,"17e71e4",42,1
"4424",0,1,64,2,1,1,"17e71e4",43,1
"4524",1,1,146,5,5,1,"17e71e4",44,1
"4624",0,1,469,4,1,1,"17e71e4",45,1
"4724",0,0,88,2,2,1,"17e71e4",46,1
"4824",0,0,203,1,1,1,"17e71e4",47,1
"4924",0,1,456,1,5,1,"17e71e4",48,1
"5024",1,1,407,6,6,1,"17e71e4",49,1
"5128",0,0,411,3,3,1,"17e71e4",50,1
"5226",0,1,280,2,1,1,"17e71e4",51,1
"5324",1,1,1400,4,4,1,"17e71e4",52,1
"5424",1,1,308,5,5,1,"17e71e4",53,1
"5524",1,0,273,1,3,1,"17e71e4",54,1
"5624",0,1,298,6,1,1,"17e71e4",55,1
"5724",1,1,1701,2,2,1,"17e71e4",56,1
"5824",1,1,133,1,1,1,"17e71e4",57,1
"5924",0,1,510,3,1,1,"17e71e4",58,1
"6024",0,1,600,1,6,1,"17e71e4",59,1
"6128",0,1,461,4,1,1,"17e71e4",60,1
"6226",1,1,364,6,6,1,"17e71e4",61,1
"6324",0,1,220,1,2,1,"17e71e4",62,1
"6424",1,1,171,3,3,1,"17e71e4",63,1
"6524",1,1,316,4,4,1,"17e71e4",64,1
"6624",1,1,392,5,5,1,"17e71e4",65,1
"6724",0,1,1764,5,1,1,"17e71e4",66,1
"6824",1,1,278,4,4,1,"17e71e4",67,1
"6924",1,1,1075,3,3,1,"17e71e4",68,1
"7024",1,0,1932,1,3,1,"17e71e4",69,1
"7128",1,1,249,2,2,1,"17e71e4",70,1
"7225",1,1,426,5,5,1,"17e71e4",71,1
"7324",1,0,1845,2,1,1,"17e71e4",72,1
"7424",-1,-1,0,1,1,1,"17e71e4",73,1
"7524",-1,-1,0,6,6,1,"17e71e4",74,1
"7624",-1,-1,0,5,1,1,"17e71e4",75,1
"7724",0,1,1175,1,4,1,"17e71e4",76,1
"7824",0,1,417,6,1,1,"17e71e4",77,1
"2109",1,0,249,1,2,3,"c8f4967",1,1
"3109",1,1,951,5,5,3,"c8f4967",2,1
"4109",1,0,423,5,1,3,"c8f4967",3,1
"5109",1,1,267,4,4,3,"c8f4967",4,1
"6109",0,0,301,1,1,3,"c8f4967",5,1
"7100",0,0,138,3,3,3,"c8f4967",6,1
"825",1,1,492,2,2,3,"c8f4967",7,1
"925",1,0,299,1,4,3,"c8f4967",8,1
"1025",1,0,345,6,1,3,"c8f4967",9,1
"1125",1,1,648,6,6,3,"c8f4967",10,1
"1225",1,0,543,3,1,3,"c8f4967",11,1
"1325",1,1,372,5,5,3,"c8f4967",12,1
"1425",1,0,209,3,1,3,"c8f4967",13,1
"1525",0,1,364,5,1,3,"c8f4967",14,1
"1625",0,1,346,6,1,3,"c8f4967",15,1
"1725",1,1,412,3,3,3,"c8f4967",16,1
"1825",1,1,312,4,4,3,"c8f4967",17,1
"1925",0,1,350,4,1,3,"c8f4967",18,1
"2025",1,1,303,6,6,3,"c8f4967",19,1
"2129",0,0,292,1,1,3,"c8f4967",20,1
"2227",1,0,244,2,1,3,"c8f4967",21,1
"2325",0,0,336,2,2,3,"c8f4967",22,1
"2425",1,0,1306,1,6,3,"c8f4967",23,1
"2525",1,1,588,1,1,3,"c8f4967",24,1
"2625",1,0,115,2,1,3,"c8f4967",25,1
"2725",0,1,378,1,4,3,"c8f4967",26,1
"2825",1,1,1403,3,3,3,"c8f4967",27,1
"2925",1,1,614,4,4,3,"c8f4967",28,1
"3025",0,1,510,3,1,3,"c8f4967",29,1
"3129",1,1,992,2,2,3,"c8f4967",30,1
"3227",1,1,840,5,5,3,"c8f4967",31,1
"3325",0,1,606,5,1,3,"c8f4967",32,1
"3425",1,1,1798,6,6,3,"c8f4967",33,1
"3525",1,0,595,1,2,3,"c8f4967",34,1
"3625",0,1,393,1,4,3,"c8f4967",35,1
"3725",1,0,772,3,1,3,"c8f4967",36,1
"3825",0,0,467,5,5,3,"c8f4967",37,1
"3925",1,0,1126,1,5,3,"c8f4967",38,1
"4025",1,1,900,6,6,3,"c8f4967",39,1
"4129",1,0,1769,6,1,3,"c8f4967",40,1
"4227",1,1,1949,2,2,3,"c8f4967",41,1
"4325",1,1,1187,1,1,3,"c8f4967",42,1
"4425",1,1,584,4,4,3,"c8f4967",43,1
"4525",1,1,978,3,3,3,"c8f4967",44,1
"4625",0,0,826,3,3,3,"c8f4967",45,1
"4725",0,0,1008,1,1,3,"c8f4967",46,1
"4825",1,0,517,2,1,3,"c8f4967",47,1
"4925",1,0,760,1,6,3,"c8f4967",48,1
"5025",1,0,494,1,5,3,"c8f4967",49,1
"5129",1,1,485,6,6,3,"c8f4967",50,1
"5227",1,1,540,4,4,3,"c8f4967",51,1
"5325",0,1,696,4,1,3,"c8f4967",52,1
"5425",1,1,654,5,5,3,"c8f4967",53,1
"5525",1,0,639,1,3,3,"c8f4967",54,1
"5625",1,1,1033,2,2,3,"c8f4967",55,1
"5725",1,1,1587,2,2,3,"c8f4967",56,1
"5825",1,1,997,6,6,3,"c8f4967",57,1
"5925",1,1,538,5,5,3,"c8f4967",58,1
"6025",0,1,273,6,1,3,"c8f4967",59,1
"6129",1,1,635,3,3,3,"c8f4967",60,1
"6227",1,1,707,4,4,3,"c8f4967",61,1
"6325",1,0,849,1,5,3,"c8f4967",62,1
"6425",1,0,473,2,1,3,"c8f4967",63,1
"6525",1,0,510,1,3,3,"c8f4967",64,1
"6625",1,0,628,4,1,3,"c8f4967",65,1
"6725",0,0,684,1,1,3,"c8f4967",66,1
"6825",0,0,764,6,6,3,"c8f4967",67,1
"6925",1,1,610,3,3,3,"c8f4967",68,1
"7025",1,0,744,2,1,3,"c8f4967",69,1
"7129",1,0,682,6,1,3,"c8f4967",70,1
"7226",0,0,1165,4,4,3,"c8f4967",71,1
"7325",1,1,1494,5,5,3,"c8f4967",72,1
"7425",1,0,1184,5,1,3,"c8f4967",73,1
"7525",1,1,1345,1,1,3,"c8f4967",74,1
"7625",1,0,934,4,1,3,"c8f4967",75,1
"7725",0,1,695,1,3,3,"c8f4967",76,1
"7825",1,1,1256,2,2,3,"c8f4967",77,1
"2130",1,1,1602,6,6,2,"dfd6b65",1,1
"3130",1,1,595,3,3,2,"dfd6b65",2,1
"4130",1,1,409,5,5,2,"dfd6b65",3,1
"5130",1,0,439,1,3,2,"dfd6b65",4,1
"6130",1,1,470,4,4,2,"dfd6b65",5,1
"7101",1,0,433,1,6,2,"dfd6b65",6,1
"826",1,1,374,1,1,2,"dfd6b65",7,1
"926",1,0,232,5,1,2,"dfd6b65",8,1
"1026",1,0,283,1,4,2,"dfd6b65",9,1
"1126",0,1,233,1,2,2,"dfd6b65",10,1
"1226",1,1,986,2,2,2,"dfd6b65",11,1
"1326",1,1,221,1,1,2,"dfd6b65",12,1
"1426",1,0,285,1,4,2,"dfd6b65",13,1
"1526",1,1,261,5,5,2,"dfd6b65",14,1
"1626",0,1,279,1,6,2,"dfd6b65",15,1
"1726",1,0,242,2,1,2,"dfd6b65",16,1
"1826",1,0,199,5,1,2,"dfd6b65",17,1
"1926",1,1,706,6,6,2,"dfd6b65",18,1
"2026",1,1,364,4,4,2,"dfd6b65",19,1
"2131",1,1,253,2,2,2,"dfd6b65",20,1
"2228",1,1,374,3,3,2,"dfd6b65",21,1
"2326",0,1,313,1,3,2,"dfd6b65",22,1
"2426",0,1,237,3,1,2,"dfd6b65",23,1
"2526",0,1,326,6,1,2,"dfd6b65",24,1
"2626",0,1,250,4,1,2,"dfd6b65",25,1
"2726",0,0,261,3,3,2,"dfd6b65",26,1
"2826",1,1,221,2,2,2,"dfd6b65",27,1
"2926",1,1,308,6,6,2,"dfd6b65",28,1
"3026",1,1,297,1,1,2,"dfd6b65",29,1
"3131",0,1,248,5,1,2,"dfd6b65",30,1
"3228",1,1,478,4,4,2,"dfd6b65",31,1
"3326",1,1,658,5,5,2,"dfd6b65",32,1
"3426",1,0,396,1,2,2,"dfd6b65",33,1
"3526",0,0,228,2,2,2,"dfd6b65",34,1
"3626",0,1,301,1,4,2,"dfd6b65",35,1
"3726",0,1,260,1,5,2,"dfd6b65",36,1
"3826",1,1,614,5,5,2,"dfd6b65",37,1
"3926",1,1,403,6,6,2,"dfd6b65",38,1
"4026",1,0,501,3,1,2,"dfd6b65",39,1
"4131",1,1,252,3,3,2,"dfd6b65",40,1
"4228",1,1,224,1,1,2,"dfd6b65",41,1
"4326",1,1,288,4,4,2,"dfd6b65",42,1
"4426",1,0,375,6,1,2,"dfd6b65",43,1
"4526",1,0,428,1,2,2,"dfd6b65",44,1
"4626",1,0,857,6,1,2,"dfd6b65",45,1
"4726",0,1,225,4,1,2,"dfd6b65",46,1
"4826",1,0,404,2,1,2,"dfd6b65",47,1
"4926",1,1,275,4,4,2,"dfd6b65",48,1
"5026",1,1,253,5,5,2,"dfd6b65",49,1
"5131",0,1,400,5,1,2,"dfd6b65",50,1
"5228",1,1,237,6,6,2,"dfd6b65",51,1
"5326",1,0,284,3,1,2,"dfd6b65",52,1
"5426",1,1,284,1,1,2,"dfd6b65",53,1
"5526",1,1,527,2,2,2,"dfd6b65",54,1
"5626",1,1,303,3,3,2,"dfd6b65",55,1
"5726",0,1,394,4,1,2,"dfd6b65",56,1
"5826",0,1,532,1,5,2,"dfd6b65",57,1
"5926",0,1,597,6,1,2,"dfd6b65",58,1
"6026",1,1,233,6,6,2,"dfd6b65",59,1
"6131",1,1,329,1,1,2,"dfd6b65",60,1
"6228",1,0,273,1,3,2,"dfd6b65",61,1
"6326",1,0,365,2,1,2,"dfd6b65",62,1
"6426",1,1,268,3,3,2,"dfd6b65",63,1
"6526",1,1,600,5,5,2,"dfd6b65",64,1
"6626",1,1,348,2,2,2,"dfd6b65",65,1
"6726",1,1,1188,4,4,2,"dfd6b65",66,1
"6826",1,0,751,1,2,2,"dfd6b65",67,1
"6926",1,0,1329,1,5,2,"dfd6b65",68,1
"7026",1,1,804,2,2,2,"dfd6b65",69,1
"7130",1,1,200,1,1,2,"dfd6b65",70,1
"7227",1,1,324,5,5,2,"dfd6b65",71,1
"7326",1,0,521,1,3,2,"dfd6b65",72,1
"7426",0,1,330,6,1,2,"dfd6b65",73,1
"7526",1,1,268,4,4,2,"dfd6b65",74,1
"7626",1,1,553,6,6,2,"dfd6b65",75,1
"7726",1,1,476,3,3,2,"dfd6b65",76,1
"7826",1,0,959,4,1,2,"dfd6b65",77,1
"2132",1,1,652,5,5,3,"155b0b0",1,1
"3132",-1,-1,0,6,1,3,"155b0b0",2,1
"4132",1,1,353,3,3,3,"155b0b0",3,1
"5132",1,0,374,4,1,3,"155b0b0",4,1
"6132",1,1,808,4,4,3,"155b0b0",5,1
"7102",1,0,348,1,5,3,"155b0b0",6,1
"827",1,0,325,1,3,3,"155b0b0",7,1
"927",0,1,399,2,1,3,"155b0b0",8,1
"1027",1,1,358,2,2,3,"155b0b0",9,1
"1127",1,1,505,1,1,3,"155b0b0",10,1
"1227",1,1,369,6,6,3,"155b0b0",11,1
"1327",1,1,362,5,5,3,"155b0b0",12,1
"1427",0,1,481,5,1,3,"155b0b0",13,1
"1527",1,1,384,3,3,3,"155b0b0",14,1
"1627",0,1,391,6,1,3,"155b0b0",15,1
"1727",1,1,333,4,4,3,"155b0b0",16,1
"1827",0,1,456,4,1,3,"155b0b0",17,1
"1927",1,1,1970,2,2,3,"155b0b0",18,1
"2027",1,1,416,6,6,3,"155b0b0",19,1
"2133",1,0,325,1,2,3,"155b0b0",20,1
"2229",1,0,301,1,3,3,"155b0b0",21,1
"2327",1,1,283,1,1,3,"155b0b0",22,1
"2427",0,1,322,1,4,3,"155b0b0",23,1
"2527",0,1,409,5,1,3,"155b0b0",24,1
"2627",1,1,548,4,4,3,"155b0b0",25,1
"2727",1,1,367,3,3,3,"155b0b0",26,1
"2827",1,0,313,1,2,3,"155b0b0",27,1
"2927",0,1,316,1,3,3,"155b0b0",28,1
"3027",0,1,342,1,6,3,"155b0b0",29,1
"3133",1,1,374,1,1,3,"155b0b0",30,1
"3229",1,1,266,5,5,3,"155b0b0",31,1
"3327",1,1,350,2,2,3,"155b0b0",32,1
"3427",0,0,714,6,6,3,"155b0b0",33,1
"3527",1,1,341,3,3,3,"155b0b0",34,1
"3627",0,1,936,4,1,3,"155b0b0",35,1
"3727",0,1,395,1,5,3,"155b0b0",36,1
"3827",1,1,309,2,2,3,"155b0b0",37,1
"3927",1,1,331,5,5,3,"155b0b0",38,1
"4027",0,1,330,2,1,3,"155b0b0",39,1
"4133",0,1,326,3,1,3,"155b0b0",40,1
"4229",0,1,336,6,1,3,"155b0b0",41,1
"4327",1,1,527,6,6,3,"155b0b0",42,1
"4427",1,1,378,4,4,3,"155b0b0",43,1
"4527",1,1,416,1,1,3,"155b0b0",44,1
"4627",1,1,503,3,3,3,"155b0b0",45,1
"4727",1,1,391,1,1,3,"155b0b0",46,1
"4827",0,1,676,2,1,3,"155b0b0",47,1
"4927",1,1,404,5,5,3,"155b0b0",48,1
"5027",0,1,303,6,1,3,"155b0b0",49,1
"5133",0,1,254,5,1,3,"155b0b0",50,1
"5229",1,0,322,1,3,3,"155b0b0",51,1
"5327",1,1,378,6,6,3,"155b0b0",52,1
"5427",0,1,359,1,4,3,"155b0b0",53,1
"5527",1,1,348,2,2,3,"155b0b0",54,1
"5627",1,1,451,4,4,3,"155b0b0",55,1
"5727",0,1,385,1,4,3,"155b0b0",56,1
"5827",0,1,322,5,1,3,"155b0b0",57,1
"5927",1,1,499,6,6,3,"155b0b0",58,1
"6027",1,1,425,5,5,3,"155b0b0",59,1
"6133",0,1,793,2,1,3,"155b0b0",60,1
"6229",0,1,310,6,1,3,"155b0b0",61,1
"6327",1,1,510,3,3,3,"155b0b0",62,1
"6427",1,1,323,2,2,3,"155b0b0",63,1
"6527",0,1,333,3,1,3,"155b0b0",64,1
"6627",1,1,524,1,1,3,"155b0b0",65,1
"6727",1,1,332,4,4,3,"155b0b0",66,1
"6827",1,1,324,3,3,3,"155b0b0",67,1
"6927",1,1,373,5,5,3,"155b0b0",68,1
"7027",1,1,632,4,4,3,"155b0b0",69,1
"7131",1,1,402,1,1,3,"155b0b0",70,1
"7228",0,1,466,5,1,3,"155b0b0",71,1
"7327",0,1,281,1,3,3,"155b0b0",72,1
"7427",0,1,286,1,2,3,"155b0b0",73,1
"7527",0,1,348,6,1,3,"155b0b0",74,1
"7627",1,1,298,2,2,3,"155b0b0",75,1
"7727",1,1,384,6,6,3,"155b0b0",76,1
"7827",0,1,420,4,1,3,"155b0b0",77,1
"2134",1,1,1254,2,2,2,"11399cf",1,1
"3134",1,1,1755,5,5,2,"11399cf",2,1
"4134",-1,-1,0,1,1,2,"11399cf",3,1
"5134",1,0,279,3,1,2,"11399cf",4,1
"6134",1,1,595,4,4,2,"11399cf",5,1
"7103",1,1,1454,3,3,2,"11399cf",6,1
"828",1,0,631,1,6,2,"11399cf",7,1
"928",1,0,758,5,1,2,"11399cf",8,1
"1028",1,0,1068,1,4,2,"11399cf",9,1
"1128",1,1,748,6,6,2,"11399cf",10,1
"1228",1,0,740,2,1,2,"11399cf",11,1
"1328",1,0,628,3,1,2,"11399cf",12,1
"1428",1,0,693,4,1,2,"11399cf",13,1
"1528",1,1,675,4,4,2,"11399cf",14,1
"1628",1,1,544,1,1,2,"11399cf",15,1
"1728",1,0,650,1,2,2,"11399cf",16,1
"1828",1,0,184,1,6,2,"11399cf",17,1
"1928",1,1,86,6,6,2,"11399cf",18,1
"2028",-1,-1,0,5,5,2,"11399cf",19,1
"2135",1,1,678,2,2,2,"11399cf",20,1
"2230",1,1,1169,3,3,2,"11399cf",21,1
"2328",1,0,398,1,5,2,"11399cf",22,1
"2428",1,1,663,4,4,2,"11399cf",23,1
"2528",1,0,1175,1,5,2,"11399cf",24,1
"2628",1,1,301,1,1,2,"11399cf",25,1
"2728",1,1,509,6,6,2,"11399cf",26,1
"2828",1,0,796,1,2,2,"11399cf",27,1
"2928",1,0,607,4,1,2,"11399cf",28,1
"3028",1,1,913,2,2,2,"11399cf",29,1
"3135",1,1,582,3,3,2,"11399cf",30,1
"3230",1,0,439,3,1,2,"11399cf",31,1
"3328",1,1,349,5,5,2,"11399cf",32,1
"3428",1,0,458,1,6,2,"11399cf",33,1
"3528",1,1,308,3,3,2,"11399cf",34,1
"3628",1,1,1305,2,2,2,"11399cf",35,1
"3728",1,1,392,6,6,2,"11399cf",36,1
"3828",1,1,716,5,5,2,"11399cf",37,1
"3928",1,0,879,1,4,2,"11399cf",38,1
"4028",1,0,435,5,1,2,"11399cf",39,1
"4135",1,0,428,3,1,2,"11399cf",40,1
"4230",1,1,745,1,1,2,"11399cf",41,1
"4328",1,1,394,4,4,2,"11399cf",42,1
"4428",1,0,426,1,2,2,"11399cf",43,1
"4528",1,0,414,1,6,2,"11399cf",44,1
"4628",1,1,351,1,1,2,"11399cf",45,1
"4728",1,1,904,5,5,2,"11399cf",46,1
"4828",1,1,797,2,2,2,"11399cf",47,1
"4928",1,0,741,4,1,2,"11399cf",48,1
"5028",-1,-1,0,6,6,2,"11399cf",49,1
"5135",-1,-1,0,3,3,2,"11399cf",50,1
"5230",-1,-1,0,1,5,2,"11399cf",51,1
"5328",-1,-1,0,4,4,2,"11399cf",52,1
"5428",-1,-1,0,6,1,2,"11399cf",53,1
"5528",-1,-1,0,3,1,2,"11399cf",54,1
"5628",-1,-1,0,1,2,2,"11399cf",55,1
"5728",-1,-1,0,1,1,2,"11399cf",56,1
"5828",-1,-1,0,5,5,2,"11399cf",57,1
"5928",-1,-1,0,3,3,2,"11399cf",58,1
"6028",-1,-1,0,4,4,2,"11399cf",59,1
"6135",-1,-1,0,3,1,2,"11399cf",60,1
"6230",-1,-1,0,1,5,2,"11399cf",61,1
"6328",-1,-1,0,2,1,2,"11399cf",62,1
"6428",-1,-1,0,6,6,2,"11399cf",63,1
"6528",-1,-1,0,4,1,2,"11399cf",64,1
"6628",-1,-1,0,2,2,2,"11399cf",65,1
"6728",-1,-1,0,6,1,2,"11399cf",66,1
"6828",-1,-1,0,4,4,2,"11399cf",67,1
"6928",-1,-1,0,3,3,2,"11399cf",68,1
"7028",-1,-1,0,3,1,2,"11399cf",69,1
"7132",-1,-1,0,1,1,2,"11399cf",70,1
"7229",-1,-1,0,6,6,2,"11399cf",71,1
"7328",-1,-1,0,5,5,2,"11399cf",72,1
"7428",-1,-1,0,2,2,2,"11399cf",73,1
"7528",-1,-1,0,1,6,2,"11399cf",74,1
"7628",-1,-1,0,4,1,2,"11399cf",75,1
"7728",-1,-1,0,2,1,2,"11399cf",76,1
"7828",-1,-1,0,1,5,2,"11399cf",77,1
"2136",1,1,924,1,1,1,"1d9099a",1,2
"3136",1,0,780,3,1,1,"1d9099a",2,2
"4136",1,1,342,6,6,1,"1d9099a",3,2
"5136",0,1,670,1,4,1,"1d9099a",4,2
"6136",0,1,816,1,2,1,"1d9099a",5,2
"7104",0,1,1560,1,5,1,"1d9099a",6,2
"829",1,1,426,5,5,1,"1d9099a",7,2
"929",1,1,452,4,4,1,"1d9099a",8,2
"1029",0,1,350,6,1,1,"1d9099a",9,2
"1129",1,1,714,2,2,1,"1d9099a",10,2
"1229",0,0,682,3,3,1,"1d9099a",11,2
"1329",0,1,454,1,4,1,"1d9099a",12,2
"1429",0,1,474,3,1,1,"1d9099a",13,2
"1529",1,0,382,2,1,1,"1d9099a",14,2
"1629",1,1,416,1,1,1,"1d9099a",15,2
"1729",1,1,570,3,3,1,"1d9099a",16,2
"1829",1,1,478,4,4,1,"1d9099a",17,2
"1929",0,1,328,5,1,1,"1d9099a",18,2
"2029",1,1,500,5,5,1,"1d9099a",19,2
"2137",1,1,624,6,6,1,"1d9099a",20,2
"2231",1,1,450,2,2,1,"1d9099a",21,2
"2329",0,1,320,6,1,1,"1d9099a",22,2
"2429",1,0,390,1,2,1,"1d9099a",23,2
"2529",1,1,396,2,2,1,"1d9099a",24,2
"2629",0,1,346,1,4,1,"1d9099a",25,2
"2729",1,1,448,5,5,1,"1d9099a",26,2
"2829",0,1,300,1,3,1,"1d9099a",27,2
"2929",0,1,276,1,6,1,"1d9099a",28,2
"3029",1,1,362,4,4,1,"1d9099a",29,2
"3137",1,1,340,6,6,1,"1d9099a",30,2
"3231",0,1,430,5,1,1,"1d9099a",31,2
"3329",1,1,392,1,1,1,"1d9099a",32,2
"3429",1,1,386,3,3,1,"1d9099a",33,2
"3529",1,1,432,4,4,1,"1d9099a",34,2
"3629",1,1,746,5,5,1,"1d9099a",35,2
"3729",0,1,444,4,1,1,"1d9099a",36,2
"3829",1,0,366,2,1,1,"1d9099a",37,2
"3929",1,1,576,6,6,1,"1d9099a",38,2
"4029",1,1,454,2,2,1,"1d9099a",39,2
"4137",1,1,342,1,1,1,"1d9099a",40,2
"4231",0,1,616,3,1,1,"1d9099a",41,2
"4329",1,1,370,3,3,1,"1d9099a",42,2
"4429",0,1,312,6,1,1,"1d9099a",43,2
"4529",0,1,394,5,1,1,"1d9099a",44,2
"4629",0,1,288,1,5,1,"1d9099a",45,2
"4729",1,0,460,1,2,1,"1d9099a",46,2
"4829",0,1,660,1,4,1,"1d9099a",47,2
"4929",1,1,432,1,1,1,"1d9099a",48,2
"5029",1,1,602,3,3,1,"1d9099a",49,2
"5137",1,1,286,4,4,1,"1d9099a",50,2
"5231",1,1,308,2,2,1,"1d9099a",51,2
"5329",1,1,330,6,6,1,"1d9099a",52,2
"5429",0,1,598,1,3,1,"1d9099a",53,2
"5529",1,1,552,5,5,1,"1d9099a",54,2
"5629",0,1,266,6,1,1,"1d9099a",55,2
"5729",0,1,414,6,1,1,"1d9099a",56,2
"5829",1,1,370,1,1,1,"1d9099a",57,2
"5929",0,0,308,3,3,1,"1d9099a",58,2
"6029",1,0,458,1,2,1,"1d9099a",59,2
"6137",1,1,430,6,6,1,"1d9099a",60,2
"6231",0,1,318,1,4,1,"1d9099a",61,2
"6329",1,1,392,2,2,1,"1d9099a",62,2
"6429",0,1,296,3,1,1,"1d9099a",63,2
"6529",1,1,412,5,5,1,"1d9099a",64,2
"6629",1,1,330,4,4,1,"1d9099a",65,2
"6729",0,1,318,5,1,1,"1d9099a",66,2
"6829",1,1,464,3,3,1,"1d9099a",67,2
"6929",1,1,358,1,1,1,"1d9099a",68,2
"7029",0,1,646,3,1,1,"1d9099a",69,2
"7133",0,1,258,4,1,1,"1d9099a",70,2
"7230",1,1,576,5,5,1,"1d9099a",71,2
"7329",0,1,340,1,2,1,"1d9099a",72,2
"7429",1,1,346,4,4,1,"1d9099a",73,2
"7529",1,1,600,2,2,1,"1d9099a",74,2
"7629",0,1,682,6,1,1,"1d9099a",75,2
"7729",1,1,468,6,6,1,"1d9099a",76,2
"7829",0,1,284,1,5,1,"1d9099a",77,2
"2138",1,1,366,6,6,2,"52a562b",1,2
"3138",0,1,584,4,1,2,"52a562b",2,2
"4138",1,1,415,1,1,2,"52a562b",3,2
"5138",0,1,328,2,1,2,"52a562b",4,2
"6138",0,1,151,1,6,2,"52a562b",5,2
"7105",1,1,366,2,2,2,"52a562b",6,2
"830",0,1,307,3,1,2,"52a562b",7,2
"930",1,1,618,3,3,2,"52a562b",8,2
"1030",1,1,282,4,4,2,"52a562b",9,2
"1130",1,1,329,5,5,2,"52a562b",10,2
"1230",0,1,647,1,5,2,"52a562b",11,2
"1330",1,1,516,2,2,2,"52a562b",12,2
"1430",1,0,602,4,1,2,"52a562b",13,2
"1530",1,0,542,1,2,2,"52a562b",14,2
"1630",1,1,270,4,4,2,"52a562b",15,2
"1730",0,1,543,6,1,2,"52a562b",16,2
"1830",1,0,246,1,3,2,"52a562b",17,2
"1930",1,1,764,3,3,2,"52a562b",18,2
"2030",0,0,575,1,1,2,"52a562b",19,2
"2139",0,1,312,1,5,2,"52a562b",20,2
"2232",1,1,505,6,6,2,"52a562b",21,2
"2330",1,1,443,5,5,2,"52a562b",22,2
"2430",0,0,817,2,2,2,"52a562b",23,2
"2530",1,0,662,1,4,2,"52a562b",24,2
"2630",1,0,560,1,2,2,"52a562b",25,2
"2730",0,1,286,1,3,2,"52a562b",26,2
"2830",1,1,1192,1,1,2,"52a562b",27,2
"2930",0,1,495,5,1,2,"52a562b",28,2
"3030",0,0,853,4,4,2,"52a562b",29,2
"3139",0,1,283,6,1,2,"52a562b",30,2
"3232",0,0,349,5,5,2,"52a562b",31,2
"3330",1,1,214,6,6,2,"52a562b",32,2
"3430",0,0,544,3,3,2,"52a562b",33,2
"3530",1,0,499,4,1,2,"52a562b",34,2
"3630",0,1,417,3,1,2,"52a562b",35,2
"3730",0,0,668,5,5,2,"52a562b",36,2
"3830",1,1,459,1,1,2,"52a562b",37,2
"3930",0,1,384,1,2,2,"52a562b",38,2
"4030",1,1,468,3,3,2,"52a562b",39,2
"4139",0,1,428,1,6,2,"52a562b",40,2
"4232",1,1,450,6,6,2,"52a562b",41,2
"4330",0,1,553,1,5,2,"52a562b",42,2
"4430",1,1,487,4,4,2,"52a562b",43,2
"4530",1,1,505,2,2,2,"52a562b",44,2
"4630",1,0,1221,2,1,2,"52a562b",45,2
"4730",1,1,1136,5,5,2,"52a562b",46,2
"4830",0,1,487,3,1,2,"52a562b",47,2
"4930",1,1,423,2,2,2,"52a562b",48,2
"5030",0,1,766,6,1,2,"52a562b",49,2
"5139",1,1,163,1,1,2,"52a562b",50,2
"5232",0,0,338,4,4,2,"52a562b",51,2
"5330",0,1,387,4,1,2,"52a562b",52,2
"5430",0,1,359,1,5,2,"52a562b",53,2
"5530",0,0,910,6,6,2,"52a562b",54,2
"5630",1,1,377,3,3,2,"52a562b",55,2
"5730",1,1,748,6,6,2,"52a562b",56,2
"5830",0,1,367,5,1,2,"52a562b",57,2
"5930",1,1,6,5,5,2,"52a562b",58,2
"6030",0,1,662,4,1,2,"52a562b",59,2
"6139",1,0,329,1,2,2,"52a562b",60,2
"6232",0,1,348,1,3,2,"52a562b",61,2
"6330",1,1,425,3,3,2,"52a562b",62,2
"6430",0,0,359,2,2,2,"52a562b",63,2
"6530",0,1,354,1,6,2,"52a562b",64,2
"6630",0,0,260,1,1,2,"52a562b",65,2
"6730",1,1,69,4,4,2,"52a562b",66,2
"6830",1,1,458,4,4,2,"52a562b",67,2
"6930",0,1,58,1,2,2,"52a562b",68,2
"7030",0,1,1002,5,1,2,"52a562b",69,2
"7134",1,1,798,6,6,2,"52a562b",70,2
"7231",1,0,948,3,1,2,"52a562b",71,2
"7330",0,1,429,1,4,2,"52a562b",72,2
"7430",0,1,483,6,1,2,"52a562b",73,2
"7530",1,1,294,1,1,2,"52a562b",74,2
"7630",1,1,654,5,5,2,"52a562b",75,2
"7730",1,1,484,3,3,2,"52a562b",76,2
"7830",0,0,539,2,2,2,"52a562b",77,2
"2140",0,1,415,3,1,1,"1750722",1,2
"3140",1,1,792,6,6,1,"1750722",2,2
"4140",1,1,299,3,3,1,"1750722",3,2
"5140",0,1,793,5,1,1,"1750722",4,2
"6140",0,1,277,4,1,1,"1750722",5,2
"7106",1,0,542,6,1,1,"1750722",6,2
"831",1,0,207,2,1,1,"1750722",7,2
"931",1,1,482,4,4,1,"1750722",8,2
"1031",1,1,583,1,1,1,"1750722",9,2
"1131",1,1,497,5,5,1,"1750722",10,2
"1231",1,1,536,2,2,1,"1750722",11,2
"1331",1,1,801,4,4,1,"1750722",12,2
"1431",1,1,782,5,5,1,"1750722",13,2
"1531",1,1,360,6,6,1,"1750722",14,2
"1631",0,1,219,1,4,1,"1750722",15,2
"1731",0,1,299,3,1,1,"1750722",16,2
"1831",0,1,163,6,1,1,"1750722",17,2
"1931",1,1,298,1,1,1,"1750722",18,2
"2031",1,1,416,2,2,1,"1750722",19,2
"2141",1,1,574,3,3,1,"1750722",20,2
"2233",1,0,420,1,2,1,"1750722",21,2
"2331",0,1,258,5,1,1,"1750722",22,2
"2431",1,1,450,1,1,1,"1750722",23,2
"2531",0,1,713,2,1,1,"1750722",24,2
"2631",0,1,605,4,1,1,"1750722",25,2
"2731",1,1,442,2,2,1,"1750722",26,2
"2831",1,1,509,4,4,1,"1750722",27,2
"2931",1,0,390,1,3,1,"1750722",28,2
"3031",0,1,170,6,1,1,"1750722",29,2
"3141",1,1,568,3,3,1,"1750722",30,2
"3233",0,1,441,5,1,1,"1750722",31,2
"3331",1,1,238,5,5,1,"1750722",32,2
"3431",1,1,1067,6,6,1,"1750722",33,2
"3531",1,1,377,5,5,1,"1750722",34,2
"3631",1,1,664,3,3,1,"1750722",35,2
"3731",0,1,311,6,1,1,"1750722",36,2
"3831",1,1,349,2,2,1,"1750722",37,2
"3931",0,1,321,3,1,1,"1750722",38,2
"4031",1,0,258,2,1,1,"1750722",39,2
"4141",0,1,270,5,1,1,"1750722",40,2
"4233",0,1,436,4,1,1,"1750722",41,2
"4331",1,1,321,6,6,1,"1750722",42,2
"4431",1,1,721,4,4,1,"1750722",43,2
"4531",1,1,605,1,1,1,"1750722",44,2
"4631",1,1,288,4,4,1,"1750722",45,2
"4731",1,1,331,3,3,1,"1750722",46,2
"4831",1,1,299,5,5,1,"1750722",47,2
"4931",0,1,372,1,3,1,"1750722",48,2
"5031",0,1,516,6,1,1,"1750722",49,2
"5141",1,1,375,6,6,1,"1750722",50,2
"5233",1,0,151,1,2,1,"1750722",51,2
"5331",0,1,417,4,1,1,"1750722",52,2
"5431",1,1,317,2,2,1,"1750722",53,2
"5531",0,1,421,5,1,1,"1750722",54,2
"5631",1,1,333,1,1,1,"1750722",55,2
"5731",0,1,375,5,1,1,"1750722",56,2
"5831",1,1,337,5,5,1,"1750722",57,2
"5931",1,1,86,4,4,1,"1750722",58,2
"6031",0,1,631,1,6,1,"1750722",59,2
"6141",1,1,385,1,1,1,"1750722",60,2
"6233",1,0,277,1,3,1,"1750722",61,2
"6331",1,1,299,3,3,1,"1750722",62,2
"6431",1,1,298,6,6,1,"1750722",63,2
"6531",1,1,294,2,2,1,"1750722",64,2
"6631",1,0,242,1,2,1,"1750722",65,2
"6731",0,1,486,4,1,1,"1750722",66,2
"6831",1,1,583,4,4,1,"1750722",67,2
"6931",1,1,543,5,5,1,"1750722",68,2
"7031",1,1,246,1,1,1,"1750722",69,2
"7135",1,1,759,3,3,1,"1750722",70,2
"7232",1,1,310,2,2,1,"1750722",71,2
"7331",0,1,284,5,1,1,"1750722",72,2
"7431",0,1,250,1,4,1,"1750722",73,2
"7531",0,1,769,6,1,1,"1750722",74,2
"7631",1,0,384,2,1,1,"1750722",75,2
"7731",1,0,415,3,1,1,"1750722",76,2
"7831",1,1,0,6,6,1,"1750722",77,2
"2142",0,1,1399,3,1,2,"18f5a1c",1,2
"3142",1,1,390,4,4,2,"18f5a1c",2,2
"4142",1,1,559,3,3,2,"18f5a1c",3,2
"5142",1,1,339,1,1,2,"18f5a1c",4,2
"6142",1,0,321,1,2,2,"18f5a1c",5,2
"7107",0,0,345,5,5,2,"18f5a1c",6,2
"832",0,1,378,1,6,2,"18f5a1c",7,2
"932",1,1,1226,2,2,2,"18f5a1c",8,2
"1032",1,0,534,1,4,2,"18f5a1c",9,2
"1132",0,1,1220,1,5,2,"18f5a1c",10,2
"1232",1,1,335,6,6,2,"18f5a1c",11,2
"1332",0,0,1749,6,6,2,"18f5a1c",12,2
"1432",1,1,390,2,2,2,"18f5a1c",13,2
"1532",1,0,372,3,1,2,"18f5a1c",14,2
"1632",0,0,530,3,3,2,"18f5a1c",15,2
"1732",1,1,336,4,4,2,"18f5a1c",16,2
"1832",0,0,367,5,5,2,"18f5a1c",17,2
"1932",0,1,893,2,1,2,"18f5a1c",18,2
"2032",-1,-1,0,1,1,2,"18f5a1c",19,2
"2143",1,0,319,1,5,2,"18f5a1c",20,2
"2234",-1,-1,0,4,1,2,"18f5a1c",21,2
"2332",-1,-1,0,6,1,2,"18f5a1c",22,2
"2432",1,0,1533,4,1,2,"18f5a1c",23,2
"2532",0,0,1362,5,5,2,"18f5a1c",24,2
"2632",1,0,1639,3,1,2,"18f5a1c",25,2
"2732",0,0,335,3,3,2,"18f5a1c",26,2
"2832",1,1,383,4,4,2,"18f5a1c",27,2
"2932",0,1,349,5,1,2,"18f5a1c",28,2
"3032",0,1,761,1,6,2,"18f5a1c",29,2
"3143",1,1,1963,1,1,2,"18f5a1c",30,2
"3234",-1,-1,0,2,1,2,"18f5a1c",31,2
"3332",-1,-1,0,2,2,2,"18f5a1c",32,2
"3432",0,0,530,6,6,2,"18f5a1c",33,2
"3532",-1,-1,0,3,3,2,"18f5a1c",34,2
"3632",1,1,380,1,1,2,"18f5a1c",35,2
"3732",0,1,749,3,1,2,"18f5a1c",36,2
"3832",1,0,586,2,1,2,"18f5a1c",37,2
"3932",0,1,465,4,1,2,"18f5a1c",38,2
"4032",0,0,1281,2,2,2,"18f5a1c",39,2
"4143",-1,-1,0,5,5,2,"18f5a1c",40,2
"4234",-1,-1,0,4,4,2,"18f5a1c",41,2
"4332",0,1,436,6,1,2,"18f5a1c",42,2
"4432",1,1,754,6,6,2,"18f5a1c",43,2
"4532",-1,-1,0,5,1,2,"18f5a1c",44,2
"4632",-1,-1,0,1,5,2,"18f5a1c",45,2
"4732",1,0,892,1,6,2,"18f5a1c",46,2
"4832",0,0,642,4,4,2,"18f5a1c",47,2
"4932",1,1,627,1,1,2,"18f5a1c",48,2
"5032",1,0,509,3,1,2,"18f5a1c",49,2
"5143",1,1,547,6,6,2,"18f5a1c",50,2
"5234",0,0,620,3,3,2,"18f5a1c",51,2
"5332",1,1,532,2,2,2,"18f5a1c",52,2
"5432",0,1,479,4,1,2,"18f5a1c",53,2
"5532",1,0,1252,1,2,2,"18f5a1c",54,2
"5632",0,0,934,5,5,2,"18f5a1c",55,2
"5732",0,1,358,1,5,2,"18f5a1c",56,2
"5832",0,1,326,1,6,2,"18f5a1c",57,2
"5932",1,1,459,2,2,2,"18f5a1c",58,2
"6032",1,1,436,1,1,2,"18f5a1c",59,2
"6143",1,0,612,1,3,2,"18f5a1c",60,2
"6234",0,0,391,5,5,2,"18f5a1c",61,2
"6332",1,1,576,3,3,2,"18f5a1c",62,2
"6432",1,1,308,6,6,2,"18f5a1c",63,2
"6532",1,0,755,4,1,2,"18f5a1c",64,2
"6632",0,1,478,2,1,2,"18f5a1c",65,2
"6732",1,1,926,4,4,2,"18f5a1c",66,2
"6832",0,1,876,1,2,2,"18f5a1c",67,2
"6932",-1,-1,0,1,5,2,"18f5a1c",68,2
"7032",1,0,457,1,6,2,"18f5a1c",69,2
"7136",-1,-1,0,5,5,2,"18f5a1c",70,2
"7233",1,1,719,2,2,2,"18f5a1c",71,2
"7332",1,0,897,1,3,2,"18f5a1c",72,2
"7432",-1,-1,0,1,1,2,"18f5a1c",73,2
"7532",1,1,455,6,6,2,"18f5a1c",74,2
"7632",1,1,737,4,4,2,"18f5a1c",75,2
"7732",1,0,1108,4,1,2,"18f5a1c",76,2
"7832",1,1,634,3,3,2,"18f5a1c",77,2
"2144",1,1,335,4,4,2,"5875042",1,2
"3144",0,1,439,2,1,2,"5875042",2,2
"4144",0,1,364,3,1,2,"5875042",3,2
"5144",0,0,388,2,2,2,"5875042",4,2
"6144",0,1,452,4,1,2,"5875042",5,2
"7108",1,1,353,6,6,2,"5875042",6,2
"833",0,1,376,5,1,2,"5875042",7,2
"933",1,1,523,3,3,2,"5875042",8,2
"1033",1,1,352,1,1,2,"5875042",9,2
"1133",0,1,531,6,1,2,"5875042",10,2
"1233",1,1,478,5,5,2,"5875042",11,2
"1333",1,1,320,5,5,2,"5875042",12,2
"1433",1,1,469,4,4,2,"5875042",13,2
"1533",1,1,369,3,3,2,"5875042",14,2
"1633",0,1,364,3,1,2,"5875042",15,2
"1733",0,0,367,1,1,2,"5875042",16,2
"1833",0,1,315,1,5,2,"5875042",17,2
"1933",1,1,349,2,2,2,"5875042",18,2
"2033",1,0,319,1,2,2,"5875042",19,2
"2145",0,1,345,1,6,2,"5875042",20,2
"2235",0,1,482,4,1,2,"5875042",21,2
"2333",1,1,466,6,6,2,"5875042",22,2
"2433",1,0,378,1,4,2,"5875042",23,2
"2533",1,1,245,6,6,2,"5875042",24,2
"2633",0,1,354,1,3,2,"5875042",25,2
"2733",1,1,287,3,3,2,"5875042",26,2
"2833",0,1,380,6,1,2,"5875042",27,2
"2933",0,0,337,2,2,2,"5875042",28,2
"3033",0,1,431,1,5,2,"5875042",29,2
"3145",1,1,417,5,5,2,"5875042",30,2
"3235",1,1,754,4,4,2,"5875042",31,2
"3333",1,0,387,1,2,2,"5875042",32,2
"3433",1,1,372,1,1,2,"5875042",33,2
"3533",0,1,382,5,1,2,"5875042",34,2
"3633",0,0,348,2,2,2,"5875042",35,2
"3733",1,0,342,1,3,2,"5875042",36,2
"3833",0,1,428,1,6,2,"5875042",37,2
"3933",1,1,371,5,5,2,"5875042",38,2
"4033",1,1,340,6,6,2,"5875042",39,2
"4145",1,0,418,1,2,2,"5875042",40,2
"4235",1,1,416,1,1,2,"5875042",41,2
"4333",1,1,407,4,4,2,"5875042",42,2
"4433",1,1,327,3,3,2,"5875042",43,2
"4533",0,1,392,1,4,2,"5875042",44,2
"4633",1,1,388,6,6,2,"5875042",45,2
"4733",1,1,437,2,2,2,"5875042",46,2
"4833",0,1,382,1,4,2,"5875042",47,2
"4933",1,1,327,3,3,2,"5875042",48,2
"5033",1,1,349,1,1,2,"5875042",49,2
"5145",0,1,878,1,3,2,"5875042",50,2
"5235",0,1,379,1,5,2,"5875042",51,2
"5333",1,1,473,4,4,2,"5875042",52,2
"5433",1,1,358,5,5,2,"5875042",53,2
"5533",0,1,326,1,6,2,"5875042",54,2
"5633",1,0,339,1,2,2,"5875042",55,2
"5733",1,0,390,1,2,2,"5875042",56,2
"5833",0,1,441,1,5,2,"5875042",57,2
"5933",1,1,490,3,3,2,"5875042",58,2
"6033",0,1,345,1,3,2,"5875042",59,2
"6145",1,1,333,2,2,2,"5875042",60,2
"6235",1,1,397,5,5,2,"5875042",61,2
"6333",1,1,363,1,1,2,"5875042",62,2
"6433",0,1,353,1,4,2,"5875042",63,2
"6533",1,1,384,4,4,2,"5875042",64,2
"6633",1,1,394,6,6,2,"5875042",65,2
"6733",0,1,469,1,6,2,"5875042",66,2
"6833",0,1,278,3,1,2,"5875042",67,2
"6933",1,1,237,5,5,2,"5875042",68,2
"7033",1,1,341,4,4,2,"5875042",69,2
"7137",1,0,357,2,1,2,"5875042",70,2
"7234",0,1,530,6,1,2,"5875042",71,2
"7333",1,1,489,6,6,2,"5875042",72,2
"7433",0,0,364,2,2,2,"5875042",73,2
"7533",0,1,339,4,1,2,"5875042",74,2
"7633",1,1,419,1,1,2,"5875042",75,2
"7733",1,1,360,3,3,2,"5875042",76,2
"7833",0,1,338,1,5,2,"5875042",77,2
"2146",1,1,461,6,6,3,"1b05aaf",1,2
"3146",0,1,538,1,2,3,"1b05aaf",2,2
"4146",1,0,316,5,1,3,"1b05aaf",3,2
"5146",0,1,177,1,3,3,"1b05aaf",4,2
"6146",0,1,1438,6,1,3,"1b05aaf",5,2
"7109",0,0,418,4,4,3,"1b05aaf",6,2
"834",1,1,449,1,1,3,"1b05aaf",7,2
"934",0,0,396,3,3,3,"1b05aaf",8,2
"1034",1,0,283,1,4,3,"1b05aaf",9,2
"1134",0,0,389,5,5,3,"1b05aaf",10,2
"1234",-1,-1,0,2,2,3,"1b05aaf",11,2
"1334",-1,-1,0,1,1,3,"1b05aaf",12,2
"1434",-1,-1,0,2,2,3,"1b05aaf",13,2
"1534",-1,-1,0,4,4,3,"1b05aaf",14,2
"1634",-1,-1,0,6,6,3,"1b05aaf",15,2
"1734",-1,-1,0,3,1,3,"1b05aaf",16,2
"1834",1,1,344,3,3,3,"1b05aaf",17,2
"1934",0,1,706,2,1,3,"1b05aaf",18,2
"2034",1,0,1854,1,5,3,"1b05aaf",19,2
"2147",0,0,1259,5,5,3,"1b05aaf",20,2
"2236",1,0,499,6,1,3,"1b05aaf",21,2
"2334",0,1,1855,4,1,3,"1b05aaf",22,2
"2434",1,0,564,6,1,3,"1b05aaf",23,2
"2534",1,1,339,3,3,3,"1b05aaf",24,2
"2634",-1,-1,0,1,4,3,"1b05aaf",25,2
"2734",0,0,1145,2,2,3,"1b05aaf",26,2
"2834",0,1,752,3,1,3,"1b05aaf",27,2
"2934",0,0,350,1,1,3,"1b05aaf",28,2
"3034",0,0,397,5,5,3,"1b05aaf",29,2
"3147",1,1,385,6,6,3,"1b05aaf",30,2
"3236",0,1,667,5,1,3,"1b05aaf",31,2
"3334",-1,0,711,1,2,3,"1b05aaf",32,2
"3434",1,1,723,4,4,3,"1b05aaf",33,2
"3534",0,1,1781,5,1,3,"1b05aaf",34,2
"3634",1,0,389,2,1,3,"1b05aaf",35,2
"3734",1,1,272,6,6,3,"1b05aaf",36,2
"3834",0,1,398,3,1,3,"1b05aaf",37,2
"3934",-1,-1,0,3,3,3,"1b05aaf",38,2
"4034",0,0,363,2,2,3,"1b05aaf",39,2
"4147",0,0,1757,5,5,3,"1b05aaf",40,2
"4236",1,1,943,4,4,3,"1b05aaf",41,2
"4334",0,1,311,1,6,3,"1b05aaf",42,2
"4434",1,1,545,1,1,3,"1b05aaf",43,2
"4534",1,0,433,1,4,3,"1b05aaf",44,2
"4634",-1,-1,0,1,1,3,"1b05aaf",45,2
"4734",1,1,419,6,6,3,"1b05aaf",46,2
"4834",0,1,569,1,5,3,"1b05aaf",47,2
"4934",0,1,489,1,4,3,"1b05aaf",48,2
"5034",1,1,333,4,4,3,"1b05aaf",49,2
"5147",0,1,412,1,2,3,"1b05aaf",50,2
"5236",0,1,766,1,6,3,"1b05aaf",51,2
"5334",-1,-1,0,2,2,3,"1b05aaf",52,2
"5434",-1,-1,0,3,1,3,"1b05aaf",53,2
"5534",1,1,347,5,5,3,"1b05aaf",54,2
"5634",0,0,491,3,3,3,"1b05aaf",55,2
"5734",1,0,291,6,1,3,"1b05aaf",56,2
"5834",0,0,312,4,4,3,"1b05aaf",57,2
"5934",1,0,275,2,1,3,"1b05aaf",58,2
"6034",0,0,346,1,1,3,"1b05aaf",59,2
"6147",1,1,310,5,5,3,"1b05aaf",60,2
"6236",0,0,350,3,3,3,"1b05aaf",61,2
"6334",0,1,428,1,4,3,"1b05aaf",62,2
"6434",0,0,534,6,6,3,"1b05aaf",63,2
"6534",1,0,306,1,3,3,"1b05aaf",64,2
"6634",0,1,340,5,1,3,"1b05aaf",65,2
"6734",-1,-1,0,2,2,3,"1b05aaf",66,2
"6834",0,0,288,1,1,3,"1b05aaf",67,2
"6934",0,0,551,6,6,3,"1b05aaf",68,2
"7034",0,1,563,1,3,3,"1b05aaf",69,2
"7138",0,1,1623,1,4,3,"1b05aaf",70,2
"7235",1,1,1589,2,2,3,"1b05aaf",71,2
"7334",1,0,531,2,1,3,"1b05aaf",72,2
"7434",1,0,539,6,1,3,"1b05aaf",73,2
"7534",-1,-1,0,1,5,3,"1b05aaf",74,2
"7634",-1,-1,0,4,4,3,"1b05aaf",75,2
"7734",-1,-1,0,3,3,3,"1b05aaf",76,2
"7834",-1,-1,0,5,5,3,"1b05aaf",77,2
"2148",1,1,446,3,3,3,"1d9ed1f",1,2
"3148",1,1,138,1,1,3,"1d9ed1f",2,2
"4148",1,1,109,4,4,3,"1d9ed1f",3,2
"5148",1,0,161,5,1,3,"1d9ed1f",4,2
"6148",0,0,187,5,5,3,"1d9ed1f",5,2
"7139",1,0,232,1,3,3,"1d9ed1f",6,2
"835",1,0,218,4,1,3,"1d9ed1f",7,2
"935",1,1,263,2,2,3,"1d9ed1f",8,2
"1035",1,0,25,6,1,3,"1d9ed1f",9,2
"1135",1,1,268,6,6,3,"1d9ed1f",10,2
"1235",1,0,128,1,2,3,"1d9ed1f",11,2
"1335",1,1,203,2,2,3,"1d9ed1f",12,2
"1435",1,1,174,4,4,3,"1d9ed1f",13,2
"1535",1,0,258,4,1,3,"1d9ed1f",14,2
"1635",1,1,229,1,1,3,"1d9ed1f",15,2
"1735",0,1,202,3,1,3,"1d9ed1f",16,2
"1835",0,0,154,5,5,3,"1d9ed1f",17,2
"1935",1,1,71,6,6,3,"1d9ed1f",18,2
"2035",0,1,91,5,1,3,"1d9ed1f",19,2
"2149",0,1,142,2,1,3,"1d9ed1f",20,2
"2237",1,1,24,3,3,3,"1d9ed1f",21,2
"2335",1,0,140,6,1,3,"1d9ed1f",22,2
"2435",0,1,54,1,2,3,"1d9ed1f",23,2
"2535",1,1,627,2,2,3,"1d9ed1f",24,2
"2635",0,0,222,1,1,3,"1d9ed1f",25,2
"2735",1,0,180,1,6,3,"1d9ed1f",26,2
"2835",1,0,205,5,1,3,"1d9ed1f",27,2
"2935",1,1,74,4,4,3,"1d9ed1f",28,2
"3035",0,0,75,6,6,3,"1d9ed1f",29,2
"3149",1,0,94,4,1,3,"1d9ed1f",30,2
"3237",1,0,306,1,3,3,"1d9ed1f",31,2
"3335",0,0,127,3,3,3,"1d9ed1f",32,2
"3435",1,1,217,5,5,3,"1d9ed1f",33,2
"3535",1,0,251,1,6,3,"1d9ed1f",34,2
"3635",1,1,240,6,6,3,"1d9ed1f",35,2
"3735",1,0,307,1,2,3,"1d9ed1f",36,2
"3835",1,0,173,5,1,3,"1d9ed1f",37,2
"3935",1,1,362,2,2,3,"1d9ed1f",38,2
"4035",0,1,100,3,1,3,"1d9ed1f",39,2
"4149",0,0,247,4,4,3,"1d9ed1f",40,2
"4237",1,1,202,1,1,3,"1d9ed1f",41,2
"4335",1,1,149,3,3,3,"1d9ed1f",42,2
"4435",1,0,168,4,1,3,"1d9ed1f",43,2
"4535",1,1,283,5,5,3,"1d9ed1f",44,2
"4635",1,0,318,1,2,3,"1d9ed1f",45,2
"4735",1,0,257,1,5,3,"1d9ed1f",46,2
"4835",0,1,268,4,1,3,"1d9ed1f",47,2
"4935",1,1,33,4,4,3,"1d9ed1f",48,2
"5035",1,1,284,1,1,3,"1d9ed1f",49,2
"5149",1,1,110,2,2,3,"1d9ed1f",50,2
"5237",1,1,177,5,5,3,"1d9ed1f",51,2
"5335",1,1,189,6,6,3,"1d9ed1f",52,2
"5435",0,1,184,1,3,3,"1d9ed1f",53,2
"5535",1,1,187,3,3,3,"1d9ed1f",54,2
"5635",1,0,271,6,1,3,"1d9ed1f",55,2
"5735",1,1,521,3,3,3,"1d9ed1f",56,2
"5835",1,1,229,6,6,3,"1d9ed1f",57,2
"5935",1,1,255,4,4,3,"1d9ed1f",58,2
"6035",1,1,194,5,5,3,"1d9ed1f",59,2
"6149",0,1,134,1,2,3,"1d9ed1f",60,2
"6237",1,1,329,2,2,3,"1d9ed1f",61,2
"6335",0,1,292,1,5,3,"1d9ed1f",62,2
"6435",0,1,80,1,6,3,"1d9ed1f",63,2
"6535",0,1,522,4,1,3,"1d9ed1f",64,2
"6635",0,1,277,3,1,3,"1d9ed1f",65,2
"6735",1,1,201,1,1,3,"1d9ed1f",66,2
"6835",1,1,196,6,6,3,"1d9ed1f",67,2
"6935",0,1,78,1,2,3,"1d9ed1f",68,2
"7035",1,1,290,3,3,3,"1d9ed1f",69,2
"7140",0,1,254,6,1,3,"1d9ed1f",70,2
"7236",1,1,177,2,2,3,"1d9ed1f",71,2
"7335",1,1,253,4,4,3,"1d9ed1f",72,2
"7435",1,1,279,5,5,3,"1d9ed1f",73,2
"7535",0,1,490,5,1,3,"1d9ed1f",74,2
"7635",1,1,221,1,1,3,"1d9ed1f",75,2
"7735",0,1,208,1,3,3,"1d9ed1f",76,2
"7835",0,1,331,4,1,3,"1d9ed1f",77,2
"2150",1,1,335,1,1,2,"18f22a5",1,2
"3150",1,1,305,5,5,2,"18f22a5",2,2
"4150",0,1,127,1,4,2,"18f22a5",3,2
"5150",0,1,159,1,5,2,"18f22a5",4,2
"6150",1,1,309,2,2,2,"18f22a5",5,2
"7141",1,1,196,4,4,2,"18f22a5",6,2
"836",1,0,359,1,3,2,"18f22a5",7,2
"936",0,1,300,2,1,2,"18f22a5",8,2
"1036",1,1,136,3,3,2,"18f22a5",9,2
"1136",0,1,314,1,6,2,"18f22a5",10,2
"1236",1,1,197,6,6,2,"18f22a5",11,2
"1336",0,1,143,3,1,2,"18f22a5",12,2
"1436",0,1,338,6,1,2,"18f22a5",13,2
"1536",1,0,826,1,2,2,"18f22a5",14,2
"1636",1,1,300,4,4,2,"18f22a5",15,2
"1736",1,1,688,3,3,2,"18f22a5",16,2
"1836",1,1,301,5,5,2,"18f22a5",17,2
"1936",1,1,364,1,1,2,"18f22a5",18,2
"2036",1,1,288,6,6,2,"18f22a5",19,2
"2151",1,1,250,2,2,2,"18f22a5",20,2
"2238",0,1,234,1,5,2,"18f22a5",21,2
"2336",0,1,378,1,4,2,"18f22a5",22,2
"2436",1,1,387,2,2,2,"18f22a5",23,2
"2536",0,1,369,1,6,2,"18f22a5",24,2
"2636",1,1,145,3,3,2,"18f22a5",25,2
"2736",0,1,323,5,1,2,"18f22a5",26,2
"2836",1,1,120,1,1,2,"18f22a5",27,2
"2936",1,1,227,5,5,2,"18f22a5",28,2
"3036",1,1,293,6,6,2,"18f22a5",29,2
"3151",1,0,918,1,3,2,"18f22a5",30,2
"3238",1,1,183,4,4,2,"18f22a5",31,2
"3336",1,0,238,1,2,2,"18f22a5",32,2
"3436",0,1,397,4,1,2,"18f22a5",33,2
"3536",1,1,933,2,2,2,"18f22a5",34,2
"3636",1,1,377,4,4,2,"18f22a5",35,2
"3736",1,1,285,3,3,2,"18f22a5",36,2
