"","keys","accuracy","rt","Fimg","Simg","feature_index","subID","trialNum","run"
"2",1,0,838,6,1,26,"128df7d",1,1
"3",1,0,507,5,1,26,"128df7d",2,1
"4",0,1,465,1,4,26,"128df7d",3,1
"5",1,1,411,1,1,26,"128df7d",4,1
"6",1,1,413,4,4,26,"128df7d",5,1
"7",0,0,360,6,6,26,"128df7d",6,1
"8",1,1,382,5,5,26,"128df7d",7,1
"9",0,1,364,5,1,26,"128df7d",8,1
"10",1,1,351,1,1,26,"128df7d",9,1
"11",1,1,329,6,6,26,"128df7d",10,1
"12",1,1,383,4,4,26,"128df7d",11,1
"13",1,1,446,5,5,26,"128df7d",12,1
"14",0,1,399,1,4,26,"128df7d",13,1
"15",0,1,425,6,1,26,"128df7d",14,1
"16",1,1,507,4,4,26,"128df7d",15,1
"17",1,1,438,1,1,26,"128df7d",16,1
"18",1,1,372,6,6,26,"128df7d",17,1
"19",0,1,441,5,1,26,"128df7d",18,1
"20",0,1,535,6,1,26,"128df7d",19,1
"21",1,1,442,5,5,26,"128df7d",20,1
"22",0,1,454,1,4,26,"128df7d",21,1
"23",0,1,353,4,1,26,"128df7d",22,1
"24",1,1,341,6,6,26,"128df7d",23,1
"25",1,1,315,5,5,26,"128df7d",24,1
"26",0,1,329,6,1,26,"128df7d",25,1
"27",1,1,261,1,1,26,"128df7d",26,1
"28",1,1,612,4,4,26,"128df7d",27,1
"29",0,1,296,1,5,26,"128df7d",28,1
"30",0,1,386,4,1,26,"128df7d",29,1
"31",0,1,374,5,1,26,"128df7d",30,1
"32",1,1,325,5,5,26,"128df7d",31,1
"33",0,1,441,1,6,26,"128df7d",32,1
"34",1,1,371,6,6,26,"128df7d",33,1
"35",1,1,433,1,1,26,"128df7d",34,1
"36",1,1,266,4,4,26,"128df7d",35,1
"37",0,1,396,1,6,26,"128df7d",36,1
"38",1,1,350,6,6,26,"128df7d",37,1
"39",1,1,419,4,4,26,"128df7d",38,1
"40",1,1,452,1,1,26,"128df7d",39,1
"41",0,1,284,4,1,26,"128df7d",40,1
"42",1,1,288,5,5,26,"128df7d",41,1
"43",0,1,330,1,5,26,"128df7d",42,1
"44",1,1,329,4,4,26,"128df7d",43,1
"45",1,1,312,6,6,26,"128df7d",44,1
"46",1,1,315,5,5,26,"128df7d",45,1
"47",0,1,379,1,6,26,"128df7d",46,1
"48",1,1,349,1,1,26,"128df7d",47,1
"49",0,1,362,5,1,26,"128df7d",48,1
"50",0,1,296,1,4,26,"128df7d",49,1
"51",1,1,266,6,6,26,"128df7d",50,1
"52",1,1,249,1,1,26,"128df7d",51,1
"53",0,1,478,4,1,26,"128df7d",52,1
"54",0,1,486,1,5,26,"128df7d",53,1
"55",0,1,372,1,6,26,"128df7d",54,1
"56",1,1,329,4,4,26,"128df7d",55,1
"57",1,1,469,5,5,26,"128df7d",56,1
"58",0,1,344,6,1,26,"128df7d",57,1
"59",0,1,351,1,5,26,"128df7d",58,1
"60",1,1,355,6,6,26,"128df7d",59,1
"61",1,1,223,1,1,26,"128df7d",60,1
"62",1,1,256,5,5,26,"128df7d",61,1
"63",0,1,122,1,4,26,"128df7d",62,1
"64",1,1,537,4,4,26,"128df7d",63,1
"65",0,1,346,1,4,26,"128df7d",64,1
"66",0,1,293,6,1,26,"128df7d",65,1
"67",0,1,389,5,1,26,"128df7d",66,1
"68",1,1,274,4,4,26,"128df7d",67,1
"69",1,1,53,6,6,26,"128df7d",68,1
"70",1,1,197,1,1,26,"128df7d",69,1
"71",1,1,280,5,5,26,"128df7d",70,1
"210",0,1,594,6,1,27,"65cd4f1",1,1
"310",0,0,1290,1,1,27,"65cd4f1",2,1
"410",1,1,873,4,4,27,"65cd4f1",3,1
"510",0,0,372,5,5,27,"65cd4f1",4,1
"610",0,1,186,5,1,27,"65cd4f1",5,1
"72",1,1,362,6,6,27,"65cd4f1",6,1
"81",1,0,454,1,4,27,"65cd4f1",7,1
"91",0,1,306,6,1,27,"65cd4f1",8,1
"101",0,0,667,5,5,27,"65cd4f1",9,1
"111",0,0,341,6,6,27,"65cd4f1",10,1
"121",1,0,750,1,5,27,"65cd4f1",11,1
"131",1,0,321,1,4,27,"65cd4f1",12,1
"141",1,1,373,4,4,27,"65cd4f1",13,1
"151",1,1,486,1,1,27,"65cd4f1",14,1
"161",1,1,399,1,1,27,"65cd4f1",15,1
"171",0,0,400,4,4,27,"65cd4f1",16,1
"181",0,1,286,1,4,27,"65cd4f1",17,1
"191",1,0,357,1,5,27,"65cd4f1",18,1
"201",0,1,320,6,1,27,"65cd4f1",19,1
"211",1,1,320,5,5,27,"65cd4f1",20,1
"221",1,1,327,6,6,27,"65cd4f1",21,1
"231",1,0,372,1,4,27,"65cd4f1",22,1
"241",1,0,341,1,6,27,"65cd4f1",23,1
"251",1,1,329,5,5,27,"65cd4f1",24,1
"261",0,0,460,6,6,27,"65cd4f1",25,1
"271",0,0,403,4,4,27,"65cd4f1",26,1
"281",1,1,285,1,1,27,"65cd4f1",27,1
"291",0,1,868,5,1,27,"65cd4f1",28,1
"301",0,0,329,6,6,27,"65cd4f1",29,1
"311",0,1,331,1,4,27,"65cd4f1",30,1
"321",0,1,280,1,6,27,"65cd4f1",31,1
"331",1,1,311,5,5,27,"65cd4f1",32,1
"341",1,1,301,1,1,27,"65cd4f1",33,1
"351",0,1,398,1,5,27,"65cd4f1",34,1
"361",0,0,333,4,4,27,"65cd4f1",35,1
"371",0,1,663,1,5,27,"65cd4f1",36,1
"381",0,1,334,1,6,27,"65cd4f1",37,1
"391",1,1,826,4,4,27,"65cd4f1",38,1
"401",1,1,311,1,1,27,"65cd4f1",39,1
"411",0,1,285,4,1,27,"65cd4f1",40,1
"421",1,1,300,5,5,27,"65cd4f1",41,1
"431",1,1,306,6,6,27,"65cd4f1",42,1
"441",1,1,317,6,6,27,"65cd4f1",43,1
"451",1,1,469,4,4,27,"65cd4f1",44,1
"461",0,1,370,1,5,27,"65cd4f1",45,1
"471",0,1,310,6,1,27,"65cd4f1",46,1
"481",1,1,280,1,1,27,"65cd4f1",47,1
"491",1,1,339,5,5,27,"65cd4f1",48,1
"501",0,1,286,4,1,27,"65cd4f1",49,1
"511",0,1,409,5,1,27,"65cd4f1",50,1
"521",0,1,355,6,1,27,"65cd4f1",51,1
"531",1,1,331,5,5,27,"65cd4f1",52,1
"541",0,1,263,4,1,27,"65cd4f1",53,1
"551",1,1,385,1,1,27,"65cd4f1",54,1
"561",1,1,253,6,6,27,"65cd4f1",55,1
"571",1,1,521,4,4,27,"65cd4f1",56,1
"581",1,1,316,5,5,27,"65cd4f1",57,1
"591",0,1,235,6,1,27,"65cd4f1",58,1
"601",0,1,245,5,1,27,"65cd4f1",59,1
"611",1,1,387,1,1,27,"65cd4f1",60,1
"621",0,1,272,4,1,27,"65cd4f1",61,1
"631",1,1,477,6,6,27,"65cd4f1",62,1
"641",1,1,244,4,4,27,"65cd4f1",63,1
"651",0,1,257,1,6,27,"65cd4f1",64,1
"661",1,1,281,4,4,27,"65cd4f1",65,1
"671",0,1,549,4,1,27,"65cd4f1",66,1
"681",1,1,278,1,1,27,"65cd4f1",67,1
"691",0,1,265,5,1,27,"65cd4f1",68,1
"701",1,1,325,6,6,27,"65cd4f1",69,1
"711",1,1,300,5,5,27,"65cd4f1",70,1
"212",1,1,670,4,4,26,"1108ddc",1,1
"312",1,1,666,5,5,26,"1108ddc",2,1
"412",1,0,482,4,1,26,"1108ddc",3,1
"512",0,1,521,6,1,26,"1108ddc",4,1
"612",0,1,501,1,5,26,"1108ddc",5,1
"73",0,0,451,6,6,26,"1108ddc",6,1
"82",1,1,328,1,1,26,"1108ddc",7,1
"92",0,1,440,4,1,26,"1108ddc",8,1
"102",1,1,323,6,6,26,"1108ddc",9,1
"112",0,1,745,1,5,26,"1108ddc",10,1
"122",0,1,283,1,6,26,"1108ddc",11,1
"132",1,1,249,1,1,26,"1108ddc",12,1
"142",1,1,195,4,4,26,"1108ddc",13,1
"152",1,1,372,5,5,26,"1108ddc",14,1
"162",1,1,431,4,4,26,"1108ddc",15,1
"172",1,1,99,1,1,26,"1108ddc",16,1
"182",0,1,324,6,1,26,"1108ddc",17,1
"192",1,1,1398,6,6,26,"1108ddc",18,1
"202",0,1,400,5,1,26,"1108ddc",19,1
"213",0,1,294,4,1,26,"1108ddc",20,1
"222",1,1,603,5,5,26,"1108ddc",21,1
"232",1,1,266,4,4,26,"1108ddc",22,1
"242",0,1,364,5,1,26,"1108ddc",23,1
"252",1,1,448,5,5,26,"1108ddc",24,1
"262",0,1,260,4,1,26,"1108ddc",25,1
"272",1,1,537,6,6,26,"1108ddc",26,1
"282",1,1,635,1,1,26,"1108ddc",27,1
"292",0,1,390,1,6,26,"1108ddc",28,1
"302",1,1,365,4,4,26,"1108ddc",29,1
"313",1,1,268,1,1,26,"1108ddc",30,1
"322",1,1,286,6,6,26,"1108ddc",31,1
"332",1,1,337,5,5,26,"1108ddc",32,1
"342",0,1,327,1,4,26,"1108ddc",33,1
"352",0,1,458,1,6,26,"1108ddc",34,1
"362",0,1,496,1,5,26,"1108ddc",35,1
"372",1,1,558,6,6,26,"1108ddc",36,1
"382",0,1,306,5,1,26,"1108ddc",37,1
"392",1,1,463,5,5,26,"1108ddc",38,1
"402",1,1,393,4,4,26,"1108ddc",39,1
"413",1,1,364,1,1,26,"1108ddc",40,1
"422",0,1,302,1,6,26,"1108ddc",41,1
"432",0,1,454,1,4,26,"1108ddc",42,1
"442",1,1,477,4,4,26,"1108ddc",43,1
"452",0,1,574,4,1,26,"1108ddc",44,1
"462",0,1,315,1,5,26,"1108ddc",45,1
"472",0,1,136,6,1,26,"1108ddc",46,1
"482",1,1,1383,1,1,26,"1108ddc",47,1
"492",1,1,608,5,5,26,"1108ddc",48,1
"502",1,1,591,6,6,26,"1108ddc",49,1
"513",0,1,399,6,1,26,"1108ddc",50,1
"522",1,1,349,1,1,26,"1108ddc",51,1
"532",1,1,567,6,6,26,"1108ddc",52,1
"542",1,1,323,5,5,26,"1108ddc",53,1
"552",0,1,830,4,1,26,"1108ddc",54,1
"562",1,1,528,4,4,26,"1108ddc",55,1
"572",1,0,419,1,5,26,"1108ddc",56,1
"582",1,1,1087,6,6,26,"1108ddc",57,1
"592",1,1,395,1,1,26,"1108ddc",58,1
"602",0,1,249,1,6,26,"1108ddc",59,1
"613",0,1,263,5,1,26,"1108ddc",60,1
"622",1,1,373,5,5,26,"1108ddc",61,1
"632",1,1,663,4,4,26,"1108ddc",62,1
"642",0,1,42,1,4,26,"1108ddc",63,1
"652",1,1,492,1,1,26,"1108ddc",64,1
"662",0,1,393,4,1,26,"1108ddc",65,1
"672",1,1,220,6,6,26,"1108ddc",66,1
"682",0,1,236,1,6,26,"1108ddc",67,1
"692",1,1,840,5,5,26,"1108ddc",68,1
"702",1,1,371,4,4,26,"1108ddc",69,1
"712",0,1,1109,1,5,26,"1108ddc",70,1
"214",1,1,391,6,6,26,"1dd4cfa",1,1
"314",0,0,185,4,4,26,"1dd4cfa",2,1
"414",1,1,58,5,5,26,"1dd4cfa",3,1
"514",1,0,1972,4,1,26,"1dd4cfa",4,1
"614",0,1,286,1,6,26,"1dd4cfa",5,1
"74",0,0,144,1,1,26,"1dd4cfa",6,1
"83",0,1,261,5,1,26,"1dd4cfa",7,1
"93",1,1,1108,6,6,26,"1dd4cfa",8,1
"103",0,1,575,6,1,26,"1dd4cfa",9,1
"113",1,1,521,1,1,26,"1dd4cfa",10,1
"123",1,1,88,4,4,26,"1dd4cfa",11,1
"133",1,1,1401,5,5,26,"1dd4cfa",12,1
"143",1,0,440,4,1,26,"1dd4cfa",13,1
"153",1,0,313,1,5,26,"1dd4cfa",14,1
"163",1,1,442,6,6,26,"1dd4cfa",15,1
"173",1,1,93,5,5,26,"1dd4cfa",16,1
"183",1,1,332,4,4,26,"1dd4cfa",17,1
"193",1,1,260,1,1,26,"1dd4cfa",18,1
"203",0,1,288,5,1,26,"1dd4cfa",19,1
"215",1,0,394,1,6,26,"1dd4cfa",20,1
"223",0,1,795,4,1,26,"1dd4cfa",21,1
"233",1,1,134,6,6,26,"1dd4cfa",22,1
"243",0,0,265,1,1,26,"1dd4cfa",23,1
"253",1,1,234,5,5,26,"1dd4cfa",24,1
"263",0,1,250,4,1,26,"1dd4cfa",25,1
"273",0,1,1298,1,5,26,"1dd4cfa",26,1
"283",1,1,622,4,4,26,"1dd4cfa",27,1
"293",0,1,452,6,1,26,"1dd4cfa",28,1
"303",1,1,338,5,5,26,"1dd4cfa",29,1
"315",1,1,168,4,4,26,"1dd4cfa",30,1
"323",0,1,492,6,1,26,"1dd4cfa",31,1
"333",1,1,183,1,1,26,"1dd4cfa",32,1
"343",0,1,476,1,4,26,"1dd4cfa",33,1
"353",0,1,236,1,5,26,"1dd4cfa",34,1
"363",1,1,230,6,6,26,"1dd4cfa",35,1
"373",0,1,32,1,4,26,"1dd4cfa",36,1
"383",1,1,297,6,6,26,"1dd4cfa",37,1
"393",0,1,252,1,5,26,"1dd4cfa",38,1
"403",0,1,196,1,6,26,"1dd4cfa",39,1
"415",1,1,119,5,5,26,"1dd4cfa",40,1
"423",1,1,251,4,4,26,"1dd4cfa",41,1
"433",1,1,139,1,1,26,"1dd4cfa",42,1
"443",1,1,115,4,4,26,"1dd4cfa",43,1
"453",0,1,225,1,5,26,"1dd4cfa",44,1
"463",1,1,183,6,6,26,"1dd4cfa",45,1
"473",0,1,742,1,6,26,"1dd4cfa",46,1
"483",1,1,291,5,5,26,"1dd4cfa",47,1
"493",0,1,108,1,4,26,"1dd4cfa",48,1
"503",1,1,214,1,1,26,"1dd4cfa",49,1
"515",1,1,223,6,6,26,"1dd4cfa",50,1
"523",1,1,51,5,5,26,"1dd4cfa",51,1
"533",0,1,257,1,6,26,"1dd4cfa",52,1
"543",1,1,301,1,1,26,"1dd4cfa",53,1
"553",0,1,562,5,1,26,"1dd4cfa",54,1
"563",0,1,1057,4,1,26,"1dd4cfa",55,1
"573",1,1,807,4,4,26,"1dd4cfa",56,1
"583",1,1,574,1,1,26,"1dd4cfa",57,1
"593",1,1,639,4,4,26,"1dd4cfa",58,1
"603",0,1,1466,5,1,26,"1dd4cfa",59,1
"615",0,1,890,1,4,26,"1dd4cfa",60,1
"623",0,1,702,6,1,26,"1dd4cfa",61,1
"633",1,1,32,5,5,26,"1dd4cfa",62,1
"643",1,1,131,6,6,26,"1dd4cfa",63,1
"653",0,1,932,1,4,26,"1dd4cfa",64,1
"663",1,1,796,5,5,26,"1dd4cfa",65,1
"673",1,1,1714,6,6,26,"1dd4cfa",66,1
"683",1,1,1201,1,1,26,"1dd4cfa",67,1
"693",0,1,36,6,1,26,"1dd4cfa",68,1
"703",0,1,1207,5,1,26,"1dd4cfa",69,1
"713",1,1,120,4,4,26,"1dd4cfa",70,1
"216",0,1,909,1,6,27,"1135ce2",1,1
"316",0,1,417,4,1,27,"1135ce2",2,1
"416",0,1,486,5,1,27,"1135ce2",3,1
"516",1,1,315,4,4,27,"1135ce2",4,1
"616",1,1,291,5,5,27,"1135ce2",5,1
"75",1,1,354,1,1,27,"1135ce2",6,1
"84",1,1,424,6,6,27,"1135ce2",7,1
"94",0,1,459,5,1,27,"1135ce2",8,1
"104",1,1,368,4,4,27,"1135ce2",9,1
"114",0,1,485,1,6,27,"1135ce2",10,1
"124",1,1,627,6,6,27,"1135ce2",11,1
"134",1,1,288,5,5,27,"1135ce2",12,1
"144",0,1,398,1,4,27,"1135ce2",13,1
"154",1,1,332,1,1,27,"1135ce2",14,1
"164",1,1,409,1,1,27,"1135ce2",15,1
"174",0,1,471,1,4,27,"1135ce2",16,1
"184",1,1,370,5,5,27,"1135ce2",17,1
"194",1,1,416,4,4,27,"1135ce2",18,1
"204",1,1,253,6,6,27,"1135ce2",19,1
"217",0,1,290,5,1,27,"1135ce2",20,1
"224",0,1,303,6,1,27,"1135ce2",21,1
"234",0,1,349,4,1,27,"1135ce2",22,1
"244",1,1,331,4,4,27,"1135ce2",23,1
"254",0,1,288,1,5,27,"1135ce2",24,1
"264",1,1,294,6,6,27,"1135ce2",25,1
"274",1,1,475,5,5,27,"1135ce2",26,1
"284",1,1,386,1,1,27,"1135ce2",27,1
"294",0,1,374,1,6,27,"1135ce2",28,1
"304",1,1,356,6,6,27,"1135ce2",29,1
"317",0,1,279,4,1,27,"1135ce2",30,1
"324",1,1,509,4,4,27,"1135ce2",31,1
"334",0,1,393,5,1,27,"1135ce2",32,1
"344",1,1,335,5,5,27,"1135ce2",33,1
"354",1,1,260,1,1,27,"1135ce2",34,1
"364",0,1,331,1,6,27,"1135ce2",35,1
"374",0,1,487,5,1,27,"1135ce2",36,1
"384",1,1,261,1,1,27,"1135ce2",37,1
"394",0,1,578,4,1,27,"1135ce2",38,1
"404",1,1,216,5,5,27,"1135ce2",39,1
"417",1,1,277,4,4,27,"1135ce2",40,1
"424",0,1,315,1,6,27,"1135ce2",41,1
"434",1,1,384,6,6,27,"1135ce2",42,1
"444",1,1,318,6,6,27,"1135ce2",43,1
"454",1,1,331,4,4,27,"1135ce2",44,1
"464",0,1,288,1,6,27,"1135ce2",45,1
"474",0,1,270,1,4,27,"1135ce2",46,1
"484",1,1,83,1,1,27,"1135ce2",47,1
"494",1,1,305,5,5,27,"1135ce2",48,1
"504",0,1,382,1,5,27,"1135ce2",49,1
"517",1,1,276,5,5,27,"1135ce2",50,1
"524",0,1,273,1,6,27,"1135ce2",51,1
"534",0,1,455,4,1,27,"1135ce2",52,1
"544",1,1,380,4,4,27,"1135ce2",53,1
"554",1,1,274,1,1,27,"1135ce2",54,1
"564",0,1,446,1,5,27,"1135ce2",55,1
"574",1,1,236,6,6,27,"1135ce2",56,1
"584",1,1,274,1,1,27,"1135ce2",57,1
"594",1,1,303,5,5,27,"1135ce2",58,1
"604",1,1,261,6,6,27,"1135ce2",59,1
"617",0,1,283,5,1,27,"1135ce2",60,1
"624",1,1,680,4,4,27,"1135ce2",61,1
"634",0,1,237,4,1,27,"1135ce2",62,1
"644",0,1,243,6,1,27,"1135ce2",63,1
"654",1,1,281,5,5,27,"1135ce2",64,1
"664",1,1,318,6,6,27,"1135ce2",65,1
"674",0,1,27,6,1,27,"1135ce2",66,1
"684",0,1,465,5,1,27,"1135ce2",67,1
"694",1,1,294,1,1,27,"1135ce2",68,1
"704",1,1,292,4,4,27,"1135ce2",69,1
"714",0,1,345,4,1,27,"1135ce2",70,1
"218",0,0,1153,4,4,26,"189ce44",1,1
"318",0,1,1848,1,4,26,"189ce44",2,1
"418",0,1,1110,5,1,26,"189ce44",3,1
"518",0,0,1074,1,1,26,"189ce44",4,1
"618",0,0,797,6,6,26,"189ce44",5,1
"76",0,0,1375,5,5,26,"189ce44",6,1
"85",1,0,661,6,1,26,"189ce44",7,1
"95",0,1,1254,4,1,26,"189ce44",8,1
"105",1,1,796,5,5,26,"189ce44",9,1
"115",0,0,1013,4,4,26,"189ce44",10,1
"125",0,1,1602,5,1,26,"189ce44",11,1
"135",1,0,1488,6,1,26,"189ce44",12,1
"145",0,0,1277,1,1,26,"189ce44",13,1
"155",0,0,1423,6,6,26,"189ce44",14,1
"165",0,0,936,4,4,26,"189ce44",15,1
"175",0,1,968,1,4,26,"189ce44",16,1
"185",1,0,475,5,1,26,"189ce44",17,1
"195",0,1,1293,1,6,26,"189ce44",18,1
"205",-1,-1,0,5,5,26,"189ce44",19,1
"219",0,0,858,6,6,26,"189ce44",20,1
"225",1,1,1126,1,1,26,"189ce44",21,1
"235",1,1,1089,5,5,26,"189ce44",22,1
"245",-1,-1,0,1,5,26,"189ce44",23,1
"255",1,0,561,6,1,26,"189ce44",24,1
"265",0,0,956,4,4,26,"189ce44",25,1
"275",1,0,895,1,4,26,"189ce44",26,1
"285",1,1,827,1,1,26,"189ce44",27,1
"295",0,0,882,6,6,26,"189ce44",28,1
"305",1,1,1403,5,5,26,"189ce44",29,1
"319",0,1,979,1,4,26,"189ce44",30,1
"325",1,1,700,6,6,26,"189ce44",31,1
"335",0,1,1003,6,1,26,"189ce44",32,1
"345",-1,-1,0,1,1,26,"189ce44",33,1
"355",-1,-1,0,1,5,26,"189ce44",34,1
"365",1,1,739,4,4,26,"189ce44",35,1
"375",0,1,1110,5,1,26,"189ce44",36,1
"385",-1,-1,0,4,1,26,"189ce44",37,1
"395",1,1,794,4,4,26,"189ce44",38,1
"405",0,0,1376,5,5,26,"189ce44",39,1
"419",-1,-1,0,1,1,26,"189ce44",40,1
"425",0,1,612,1,6,26,"189ce44",41,1
"435",1,1,917,6,6,26,"189ce44",42,1
"445",0,1,606,1,5,26,"189ce44",43,1
"455",1,1,1283,5,5,26,"189ce44",44,1
"465",0,0,835,1,1,26,"189ce44",45,1
"475",1,0,653,1,6,26,"189ce44",46,1
"485",0,1,591,1,4,26,"189ce44",47,1
"495",1,1,814,6,6,26,"189ce44",48,1
"505",0,0,1734,4,4,26,"189ce44",49,1
"519",1,0,1339,1,4,26,"189ce44",50,1
"525",1,1,1479,4,4,26,"189ce44",51,1
"535",1,1,699,5,5,26,"189ce44",52,1
"545",1,1,35,1,1,26,"189ce44",53,1
"555",0,1,708,1,6,26,"189ce44",54,1
"565",0,1,650,1,5,26,"189ce44",55,1
"575",1,1,331,6,6,26,"189ce44",56,1
"585",1,1,465,5,5,26,"189ce44",57,1
"595",1,0,324,4,1,26,"189ce44",58,1
"605",0,1,596,5,1,26,"189ce44",59,1
"619",0,1,1270,1,6,26,"189ce44",60,1
"625",1,1,1389,4,4,26,"189ce44",61,1
"635",0,0,1140,1,1,26,"189ce44",62,1
"645",1,1,310,6,6,26,"189ce44",63,1
"655",1,1,513,5,5,26,"189ce44",64,1
"665",1,1,443,4,4,26,"189ce44",65,1
"675",1,1,348,1,1,26,"189ce44",66,1
"685",1,1,481,6,6,26,"189ce44",67,1
"695",0,1,532,1,5,26,"189ce44",68,1
"705",0,1,370,4,1,26,"189ce44",69,1
"715",0,1,450,6,1,26,"189ce44",70,1
"220",1,1,625,4,4,27,"asdiffe",1,1
"320",1,0,673,6,1,27,"asdiffe",2,1
"420",1,1,499,5,5,27,"asdiffe",3,1
"520",0,1,368,5,1,27,"asdiffe",4,1
"620",1,1,549,6,6,27,"asdiffe",5,1
"77",0,1,577,1,4,27,"asdiffe",6,1
"86",1,1,656,1,1,27,"asdiffe",7,1
"96",1,1,573,4,4,27,"asdiffe",8,1
"106",0,1,653,1,6,27,"asdiffe",9,1
"116",1,1,489,6,6,27,"asdiffe",10,1
"126",1,1,404,5,5,27,"asdiffe",11,1
"136",1,1,385,1,1,27,"asdiffe",12,1
"146",0,1,442,4,1,27,"asdiffe",13,1
"156",0,1,391,5,1,27,"asdiffe",14,1
"166",0,1,553,1,4,27,"asdiffe",15,1
"176",0,1,445,1,6,27,"asdiffe",16,1
"186",1,1,464,6,6,27,"asdiffe",17,1
"196",1,1,373,4,4,27,"asdiffe",18,1
"206",0,1,442,5,1,27,"asdiffe",19,1
"2110",1,1,354,1,1,27,"asdiffe",20,1
"226",1,1,415,5,5,27,"asdiffe",21,1
"236",1,1,223,6,6,27,"asdiffe",22,1
"246",0,1,370,6,1,27,"asdiffe",23,1
"256",1,1,589,4,4,27,"asdiffe",24,1
"266",0,1,472,1,5,27,"asdiffe",25,1
"276",1,1,357,5,5,27,"asdiffe",26,1
"286",1,1,632,1,1,27,"asdiffe",27,1
"296",0,1,437,1,4,27,"asdiffe",28,1
"306",1,1,373,1,1,27,"asdiffe",29,1
"3110",0,1,790,5,1,27,"asdiffe",30,1
"326",0,1,481,4,1,27,"asdiffe",31,1
"336",1,1,373,4,4,27,"asdiffe",32,1
"346",0,1,504,1,6,27,"asdiffe",33,1
"356",1,1,213,5,5,27,"asdiffe",34,1
"366",1,1,390,6,6,27,"asdiffe",35,1
"376",0,1,266,6,1,27,"asdiffe",36,1
"386",0,1,1117,4,1,27,"asdiffe",37,1
"396",0,1,599,1,5,27,"asdiffe",38,1
"406",1,1,358,6,6,27,"asdiffe",39,1
"4110",1,1,915,5,5,27,"asdiffe",40,1
"426",1,1,409,1,1,27,"asdiffe",41,1
"436",1,1,996,4,4,27,"asdiffe",42,1
"446",1,0,374,1,4,27,"asdiffe",43,1
"456",1,1,412,5,5,27,"asdiffe",44,1
"466",1,1,356,4,4,27,"asdiffe",45,1
"476",1,1,351,6,6,27,"asdiffe",46,1
"486",0,1,340,5,1,27,"asdiffe",47,1
"496",0,1,467,1,6,27,"asdiffe",48,1
"506",1,1,452,1,1,27,"asdiffe",49,1
"5110",0,1,286,5,1,27,"asdiffe",50,1
"526",0,1,364,6,1,27,"asdiffe",51,1
"536",1,1,411,4,4,27,"asdiffe",52,1
"546",1,1,433,5,5,27,"asdiffe",53,1
"556",1,1,312,6,6,27,"asdiffe",54,1
"566",0,1,336,4,1,27,"asdiffe",55,1
"576",1,1,431,1,1,27,"asdiffe",56,1
"586",1,1,323,6,6,27,"asdiffe",57,1
"596",1,1,329,5,5,27,"asdiffe",58,1
"606",1,1,391,4,4,27,"asdiffe",59,1
"6110",1,1,394,1,1,27,"asdiffe",60,1
"626",0,1,308,1,4,27,"asdiffe",61,1
"636",0,1,394,6,1,27,"asdiffe",62,1
"646",0,1,310,5,1,27,"asdiffe",63,1
"656",0,1,1786,6,1,27,"asdiffe",64,1
"666",0,0,431,5,5,27,"asdiffe",65,1
"676",0,1,367,4,1,27,"asdiffe",66,1
"686",1,1,383,4,4,27,"asdiffe",67,1
"696",1,1,400,6,6,27,"asdiffe",68,1
"706",1,1,496,1,1,27,"asdiffe",69,1
"716",0,1,391,5,1,27,"asdiffe",70,1
"227",1,0,1500,1,5,27,"13174f3",1,1
"327",1,0,705,1,4,27,"13174f3",2,1
"427",0,0,554,4,4,27,"13174f3",3,1
"527",1,1,629,1,1,27,"13174f3",4,1
"627",0,1,506,6,1,27,"13174f3",5,1
"78",1,1,313,5,5,27,"13174f3",6,1
"87",0,0,369,6,6,27,"13174f3",7,1
"97",1,1,285,6,6,27,"13174f3",8,1
"107",1,1,671,5,5,27,"13174f3",9,1
"117",1,1,279,4,4,27,"13174f3",10,1
"127",1,0,236,1,5,27,"13174f3",11,1
"137",1,0,450,4,1,27,"13174f3",12,1
"147",0,1,31,6,1,27,"13174f3",13,1
"157",1,1,279,1,1,27,"13174f3",14,1
"167",1,1,9,5,5,27,"13174f3",15,1
"177",1,1,135,4,4,27,"13174f3",16,1
"187",1,1,371,6,6,27,"13174f3",17,1
"197",0,1,146,4,1,27,"13174f3",18,1
"207",1,0,117,1,6,27,"13174f3",19,1
"2111",1,0,162,5,1,27,"13174f3",20,1
"228",0,0,62,1,1,27,"13174f3",21,1
"237",0,1,25,1,6,27,"13174f3",22,1
"247",1,0,111,1,5,27,"13174f3",23,1
"257",1,1,192,6,6,27,"13174f3",24,1
"267",0,0,385,5,5,27,"13174f3",25,1
"277",1,1,118,4,4,27,"13174f3",26,1
"287",1,1,256,1,1,27,"13174f3",27,1
"297",1,0,102,4,1,27,"13174f3",28,1
"307",1,1,27,6,6,27,"13174f3",29,1
"3111",1,1,1607,4,4,27,"13174f3",30,1
"328",1,0,673,6,1,27,"13174f3",31,1
"337",1,1,225,1,1,27,"13174f3",32,1
"347",1,0,90,4,1,27,"13174f3",33,1
"357",1,0,271,5,1,27,"13174f3",34,1
"367",0,0,96,5,5,27,"13174f3",35,1
"377",1,0,400,5,1,27,"13174f3",36,1
"387",1,1,596,1,1,27,"13174f3",37,1
"397",1,1,310,6,6,27,"13174f3",38,1
"407",1,0,366,1,4,27,"13174f3",39,1
"4111",-1,0,246,4,4,27,"13174f3",40,1
"428",1,1,1086,5,5,27,"13174f3",41,1
"437",0,1,1017,6,1,27,"13174f3",42,1
"447",1,1,298,6,6,27,"13174f3",43,1
"457",1,1,158,1,1,27,"13174f3",44,1
"467",0,1,270,1,4,27,"13174f3",45,1
"477",0,1,706,6,1,27,"13174f3",46,1
"487",1,1,1313,5,5,27,"13174f3",47,1
"497",1,1,423,4,4,27,"13174f3",48,1
"507",1,0,441,5,1,27,"13174f3",49,1
"5111",1,1,331,4,4,27,"13174f3",50,1
"528",1,0,408,1,5,27,"13174f3",51,1
"537",0,0,269,6,6,27,"13174f3",52,1
"547",1,0,298,1,4,27,"13174f3",53,1
"557",0,0,62,1,1,27,"13174f3",54,1
"567",1,1,1143,5,5,27,"13174f3",55,1
"577",1,0,395,6,1,27,"13174f3",56,1
"587",0,1,1052,1,5,27,"13174f3",57,1
"597",1,1,270,6,6,27,"13174f3",58,1
"607",1,1,323,4,4,27,"13174f3",59,1
"6111",0,0,256,1,1,27,"13174f3",60,1
"628",0,1,327,1,6,27,"13174f3",61,1
"637",0,1,267,4,1,27,"13174f3",62,1
"647",1,1,266,5,5,27,"13174f3",63,1
"657",0,1,317,1,4,27,"13174f3",64,1
"667",1,1,277,6,6,27,"13174f3",65,1
"677",1,1,371,5,5,27,"13174f3",66,1
"687",1,1,333,4,4,27,"13174f3",67,1
"697",0,0,265,1,1,27,"13174f3",68,1
"707",0,1,665,1,6,27,"13174f3",69,1
"717",0,1,771,5,1,27,"13174f3",70,1
"229",1,1,757,4,4,27,"hangesi",1,1
"329",1,1,452,1,1,27,"hangesi",2,1
"429",1,0,119,5,1,27,"hangesi",3,1
"529",1,1,551,5,5,27,"hangesi",4,1
"629",0,1,264,6,1,27,"hangesi",5,1
"79",1,0,418,4,1,27,"hangesi",6,1
"88",1,1,630,6,6,27,"hangesi",7,1
"98",0,1,349,4,1,27,"hangesi",8,1
"108",1,1,85,5,5,27,"hangesi",9,1
"118",1,0,404,6,1,27,"hangesi",10,1
"128",1,1,353,4,4,27,"hangesi",11,1
"138",1,1,361,1,1,27,"hangesi",12,1
"148",1,0,539,5,1,27,"hangesi",13,1
"158",1,1,376,6,6,27,"hangesi",14,1
"168",0,1,331,1,4,27,"hangesi",15,1
"178",1,1,114,1,1,27,"hangesi",16,1
"188",1,1,347,6,6,27,"hangesi",17,1
"198",1,1,341,5,5,27,"hangesi",18,1
"208",0,1,374,1,6,27,"hangesi",19,1
"2112",0,1,444,1,5,27,"hangesi",20,1
"2210",1,1,684,4,4,27,"hangesi",21,1
"238",1,1,543,5,5,27,"hangesi",22,1
"248",1,0,569,5,1,27,"hangesi",23,1
"258",1,1,267,1,1,27,"hangesi",24,1
"268",-1,-1,0,4,4,27,"hangesi",25,1
"278",0,0,556,6,6,27,"hangesi",26,1
"288",0,1,560,4,1,27,"hangesi",27,1
"298",1,0,620,6,1,27,"hangesi",28,1
"308",1,1,388,1,1,27,"hangesi",29,1
"3112",1,1,397,5,5,27,"hangesi",30,1
"3210",1,0,264,5,1,27,"hangesi",31,1
"338",1,1,418,4,4,27,"hangesi",32,1
"348",0,1,201,1,6,27,"hangesi",33,1
"358",0,1,423,1,4,27,"hangesi",34,1
"368",0,0,329,6,6,27,"hangesi",35,1
"378",0,0,313,1,1,27,"hangesi",36,1
"388",0,0,360,5,5,27,"hangesi",37,1
"398",1,0,441,4,1,27,"hangesi",38,1
"408",1,1,540,4,4,27,"hangesi",39,1
"4112",1,0,424,5,1,27,"hangesi",40,1
"4210",0,0,523,6,6,27,"hangesi",41,1
"438",0,1,946,1,6,27,"hangesi",42,1
"448",1,1,380,6,6,27,"hangesi",43,1
"458",0,1,434,4,1,27,"hangesi",44,1
"468",0,1,439,5,1,27,"hangesi",45,1
"478",0,1,747,6,1,27,"hangesi",46,1
"488",0,0,432,4,4,27,"hangesi",47,1
"498",1,1,470,1,1,27,"hangesi",48,1
"508",0,0,324,5,5,27,"hangesi",49,1
"5112",0,0,390,1,1,27,"hangesi",50,1
"5210",1,1,409,4,4,27,"hangesi",51,1
"538",0,0,692,6,6,27,"hangesi",52,1
"548",0,1,722,1,5,27,"hangesi",53,1
"558",1,1,466,5,5,27,"hangesi",54,1
"568",0,1,345,6,1,27,"hangesi",55,1
"578",0,1,418,4,1,27,"hangesi",56,1
"588",0,1,549,5,1,27,"hangesi",57,1
"598",0,1,621,1,4,27,"hangesi",58,1
"608",0,1,405,1,6,27,"hangesi",59,1
"6112",1,1,424,4,4,27,"hangesi",60,1
"6210",1,1,305,5,5,27,"hangesi",61,1
"638",1,1,459,1,1,27,"hangesi",62,1
"648",1,1,365,6,6,27,"hangesi",63,1
"658",1,1,589,6,6,27,"hangesi",64,1
"668",0,1,616,1,6,27,"hangesi",65,1
"678",0,1,719,4,1,27,"hangesi",66,1
"688",1,1,136,5,5,27,"hangesi",67,1
"698",1,1,362,1,1,27,"hangesi",68,1
"708",1,1,583,4,4,27,"hangesi",69,1
"718",0,1,507,1,5,27,"hangesi",70,1
"230",0,1,688,4,1,26,"15b937c",1,1
"330",0,1,657,5,1,26,"15b937c",2,1
"430",1,1,115,4,4,26,"15b937c",3,1
"530",1,1,329,1,1,26,"15b937c",4,1
"630",1,1,265,6,6,26,"15b937c",5,1
"710",1,1,366,5,5,26,"15b937c",6,1
"89",0,1,292,1,6,26,"15b937c",7,1
"99",0,1,319,1,5,26,"15b937c",8,1
"109",1,1,231,4,4,26,"15b937c",9,1
"119",1,1,294,6,6,26,"15b937c",10,1
"129",1,1,1,5,5,26,"15b937c",11,1
"139",0,1,219,1,6,26,"15b937c",12,1
"149",0,1,221,1,4,26,"15b937c",13,1
"159",1,1,253,1,1,26,"15b937c",14,1
"169",1,1,286,5,5,26,"15b937c",15,1
"179",0,1,217,1,5,26,"15b937c",16,1
"189",1,1,230,6,6,26,"15b937c",17,1
"199",1,1,203,4,4,26,"15b937c",18,1
"209",1,1,363,1,1,26,"15b937c",19,1
"2113",0,1,266,4,1,26,"15b937c",20,1
"2211",0,1,242,1,6,26,"15b937c",21,1
"239",0,1,325,6,1,26,"15b937c",22,1
"249",1,1,262,1,1,26,"15b937c",23,1
"259",1,1,204,5,5,26,"15b937c",24,1
"269",1,1,222,6,6,26,"15b937c",25,1
"279",1,1,882,4,4,26,"15b937c",26,1
"289",0,1,389,1,5,26,"15b937c",27,1
"299",0,1,216,1,4,26,"15b937c",28,1
"309",1,1,94,5,5,26,"15b937c",29,1
"3113",1,1,427,4,4,26,"15b937c",30,1
"3211",0,1,572,4,1,26,"15b937c",31,1
"339",1,1,267,1,1,26,"15b937c",32,1
"349",1,1,193,6,6,26,"15b937c",33,1
"359",0,1,145,6,1,26,"15b937c",34,1
"369",0,1,168,1,5,26,"15b937c",35,1
"379",1,1,276,6,6,26,"15b937c",36,1
"389",1,1,310,1,1,26,"15b937c",37,1
"399",1,1,186,4,4,26,"15b937c",38,1
"409",0,1,761,6,1,26,"15b937c",39,1
"4113",0,1,697,5,1,26,"15b937c",40,1
"4211",0,1,345,4,1,26,"15b937c",41,1
"439",1,1,261,5,5,26,"15b937c",42,1
"449",1,1,598,6,6,26,"15b937c",43,1
"459",1,1,476,5,5,26,"15b937c",44,1
"469",1,1,272,4,4,26,"15b937c",45,1
"479",0,1,418,1,4,26,"15b937c",46,1
"489",0,1,944,5,1,26,"15b937c",47,1
"499",1,1,1290,1,1,26,"15b937c",48,1
"509",0,1,1185,6,1,26,"15b937c",49,1
"5113",1,1,388,6,6,26,"15b937c",50,1
"5211",0,1,778,6,1,26,"15b937c",51,1
"539",0,1,495,4,1,26,"15b937c",52,1
"549",1,1,339,5,5,26,"15b937c",53,1
"559",0,0,258,1,1,26,"15b937c",54,1
"569",0,1,534,1,5,26,"15b937c",55,1
"579",1,1,378,4,4,26,"15b937c",56,1
"589",1,1,257,6,6,26,"15b937c",57,1
"599",0,1,277,1,5,26,"15b937c",58,1
"609",1,1,177,1,1,26,"15b937c",59,1
"6113",0,1,35,6,1,26,"15b937c",60,1
"6211",1,1,164,5,5,26,"15b937c",61,1
"639",1,1,294,4,4,26,"15b937c",62,1
"649",0,1,367,4,1,26,"15b937c",63,1
"659",1,1,270,1,1,26,"15b937c",64,1
"669",0,1,303,6,1,26,"15b937c",65,1
"679",1,1,301,4,4,26,"15b937c",66,1
"689",1,1,331,6,6,26,"15b937c",67,1
"699",0,1,203,5,1,26,"15b937c",68,1
"709",1,1,205,5,5,26,"15b937c",69,1
"719",0,1,380,1,4,26,"15b937c",70,1
"240",0,1,1747,1,6,26,"13a8429",1,1
"340",1,1,247,1,1,26,"13a8429",2,1
"440",0,1,902,5,1,26,"13a8429",3,1
"540",1,1,294,6,6,26,"13a8429",4,1
"640",0,1,268,4,1,26,"13a8429",5,1
"720",1,1,233,5,5,26,"13a8429",6,1
"810",1,1,310,4,4,26,"13a8429",7,1
"910",1,1,957,1,1,26,"13a8429",8,1
"1010",1,1,1026,4,4,26,"13a8429",9,1
"1110",1,1,890,6,6,26,"13a8429",10,1
"1210",0,1,897,4,1,26,"13a8429",11,1
"1310",0,1,336,5,1,26,"13a8429",12,1
"1410",1,1,308,5,5,26,"13a8429",13,1
"1510",0,1,330,6,1,26,"13a8429",14,1
"1610",0,1,825,6,1,26,"13a8429",15,1
"1710",1,1,967,4,4,26,"13a8429",16,1
"1810",0,1,367,5,1,26,"13a8429",17,1
"1910",0,1,375,1,4,26,"13a8429",18,1
"2010",1,1,296,6,6,26,"13a8429",19,1
"2114",1,1,363,5,5,26,"13a8429",20,1
"2212",1,1,423,1,1,26,"13a8429",21,1
"2310",1,1,1059,6,6,26,"13a8429",22,1
"2410",0,1,434,4,1,26,"13a8429",23,1
"2510",1,1,297,1,1,26,"13a8429",24,1
"2610",0,1,679,1,5,26,"13a8429",25,1
"2710",1,1,49,5,5,26,"13a8429",26,1
"2810",0,1,354,6,1,26,"13a8429",27,1
"2910",1,1,206,4,4,26,"13a8429",28,1
"3010",0,1,418,1,5,26,"13a8429",29,1
"3114",1,1,334,1,1,26,"13a8429",30,1
"3212",0,1,294,4,1,26,"13a8429",31,1
"3310",1,1,399,5,5,26,"13a8429",32,1
"3410",1,1,1071,6,6,26,"13a8429",33,1
"3510",0,1,1279,1,6,26,"13a8429",34,1
"3610",1,1,234,4,4,26,"13a8429",35,1
"3710",1,1,391,6,6,26,"13a8429",36,1
"3810",1,0,1385,1,6,26,"13a8429",37,1
"3910",0,1,284,1,5,26,"13a8429",38,1
"4010",1,1,1507,1,1,26,"13a8429",39,1
"4114",0,1,1518,4,1,26,"13a8429",40,1
"4212",1,1,425,4,4,26,"13a8429",41,1
"4310",1,1,247,5,5,26,"13a8429",42,1
"4410",1,1,428,6,6,26,"13a8429",43,1
"4510",0,1,274,6,1,26,"13a8429",44,1
"4610",1,1,1266,1,1,26,"13a8429",45,1
"4710",1,1,279,5,5,26,"13a8429",46,1
"4810",0,1,333,1,4,26,"13a8429",47,1
"4910",1,1,369,4,4,26,"13a8429",48,1
"5010",0,1,908,1,5,26,"13a8429",49,1
"5114",-1,-1,0,1,4,26,"13a8429",50,1
"5212",1,1,188,5,5,26,"13a8429",51,1
"5310",0,1,351,5,1,26,"13a8429",52,1
"5410",1,1,1320,6,6,26,"13a8429",53,1
"5510",1,1,1821,1,1,26,"13a8429",54,1
"5610",0,1,368,1,6,26,"13a8429",55,1
"5710",1,1,312,4,4,26,"13a8429",56,1
"5810",0,1,684,1,5,26,"13a8429",57,1
"5910",1,1,246,5,5,26,"13a8429",58,1
"6010",0,1,1412,1,6,26,"13a8429",59,1
"6114",1,1,215,1,1,26,"13a8429",60,1
"6212",1,1,414,4,4,26,"13a8429",61,1
"6310",1,1,1229,6,6,26,"13a8429",62,1
"6410",0,1,43,1,4,26,"13a8429",63,1
"6510",1,1,308,1,1,26,"13a8429",64,1
"6610",0,1,306,1,4,26,"13a8429",65,1
"6710",1,1,571,5,5,26,"13a8429",66,1
"6810",0,1,1229,1,5,26,"13a8429",67,1
"6910",0,1,1676,1,6,26,"13a8429",68,1
"7010",1,1,1028,4,4,26,"13a8429",69,1
"7110",1,1,635,6,6,26,"13a8429",70,1
"250",1,1,745,1,1,26,"1620453",1,1
"350",1,1,604,5,5,26,"1620453",2,1
"450",1,0,309,4,1,26,"1620453",3,1
"550",1,0,726,1,5,26,"1620453",4,1
"650",0,1,435,1,6,26,"1620453",5,1
"721",1,1,443,6,6,26,"1620453",6,1
"811",0,0,527,4,4,26,"1620453",7,1
"911",1,1,497,5,5,26,"1620453",8,1
"1011",-1,-1,0,6,1,26,"1620453",9,1
"1111",1,0,749,1,5,26,"1620453",10,1
"1211",-1,-1,0,6,6,26,"1620453",11,1
"1311",1,1,563,4,4,26,"1620453",12,1
"1411",1,0,398,1,4,26,"1620453",13,1
"1511",0,0,760,1,1,26,"1620453",14,1
"1611",1,0,613,1,4,26,"1620453",15,1
"1711",1,0,719,5,1,26,"1620453",16,1
"1811",0,0,465,5,5,26,"1620453",17,1
"1911",1,1,510,6,6,26,"1620453",18,1
"2011",1,1,755,1,1,26,"1620453",19,1
"2115",1,1,578,4,4,26,"1620453",20,1
"2213",1,0,571,6,1,26,"1620453",21,1
"2311",1,1,575,6,6,26,"1620453",22,1
"2411",1,1,738,1,1,26,"1620453",23,1
"2511",1,0,1122,1,6,26,"1620453",24,1
"2611",1,0,770,5,1,26,"1620453",25,1
"2711",0,0,702,5,5,26,"1620453",26,1
"2811",0,0,589,4,4,26,"1620453",27,1
"2911",1,0,377,1,4,26,"1620453",28,1
"3011",0,0,1105,6,6,26,"1620453",29,1
"3115",0,1,550,1,5,26,"1620453",30,1
"3213",0,1,429,6,1,26,"1620453",31,1
"3311",1,1,543,5,5,26,"1620453",32,1
"3411",-1,-1,0,1,1,26,"1620453",33,1
"3511",1,1,524,4,4,26,"1620453",34,1
"3611",0,1,568,1,4,26,"1620453",35,1
"3711",1,0,939,1,6,26,"1620453",36,1
"3811",1,1,814,4,4,26,"1620453",37,1
"3911",0,0,373,1,1,26,"1620453",38,1
"4011",1,1,620,6,6,26,"1620453",39,1
"4115",0,0,710,5,5,26,"1620453",40,1
"4213",1,0,631,1,5,26,"1620453",41,1
"4311",0,1,479,4,1,26,"1620453",42,1
"4411",1,1,1180,1,1,26,"1620453",43,1
"4511",0,1,418,5,1,26,"1620453",44,1
"4611",1,1,451,6,6,26,"1620453",45,1
"4711",0,0,1132,5,5,26,"1620453",46,1
"4811",1,0,1688,1,4,26,"1620453",47,1
"4911",1,1,1082,4,4,26,"1620453",48,1
"5011",0,1,926,1,6,26,"1620453",49,1
"5115",1,0,873,6,1,26,"1620453",50,1
"5213",1,0,843,5,1,26,"1620453",51,1
"5311",0,0,941,6,6,26,"1620453",52,1
"5411",1,1,1025,4,4,26,"1620453",53,1
"5511",1,1,624,5,5,26,"1620453",54,1
"5611",-1,-1,0,4,1,26,"1620453",55,1
"5711",1,1,434,1,1,26,"1620453",56,1
"5811",0,1,563,4,1,26,"1620453",57,1
"5911",-1,-1,0,1,6,26,"1620453",58,1
"6011",0,0,529,1,1,26,"1620453",59,1
"6115",1,0,919,1,5,26,"1620453",60,1
"6213",1,1,548,5,5,26,"1620453",61,1
"6311",-1,-1,0,6,6,26,"1620453",62,1
"6411",0,0,461,4,4,26,"1620453",63,1
"6511",1,1,770,4,4,26,"1620453",64,1
"6611",0,0,756,1,1,26,"1620453",65,1
"6711",1,0,454,6,1,26,"1620453",66,1
"6811",1,1,1035,5,5,26,"1620453",67,1
"6911",1,0,831,5,1,26,"1620453",68,1
"7011",0,0,485,6,6,26,"1620453",69,1
"7111",1,0,500,4,1,26,"1620453",70,1
"260",1,1,975,4,4,27,"100f9fb",1,1
"360",1,1,682,5,5,27,"100f9fb",2,1
"460",0,0,583,1,1,27,"100f9fb",3,1
"560",0,1,573,1,5,27,"100f9fb",4,1
"660",1,1,676,6,6,27,"100f9fb",5,1
"722",0,1,752,6,1,27,"100f9fb",6,1
"812",0,1,623,1,4,27,"100f9fb",7,1
"912",1,1,559,4,4,27,"100f9fb",8,1
"1012",1,1,605,1,1,27,"100f9fb",9,1
"1112",0,1,604,1,6,27,"100f9fb",10,1
"1212",1,1,563,5,5,27,"100f9fb",11,1
"1312",-1,-1,0,4,1,27,"100f9fb",12,1
"1412",0,1,407,5,1,27,"100f9fb",13,1
"1512",1,1,744,6,6,27,"100f9fb",14,1
"1612",0,1,575,1,4,27,"100f9fb",15,1
"1712",0,1,445,1,6,27,"100f9fb",16,1
"1812",0,0,1085,4,4,27,"100f9fb",17,1
"1912",0,1,606,1,5,27,"100f9fb",18,1
"2012",1,1,365,6,6,27,"100f9fb",19,1
"2116",1,1,388,5,5,27,"100f9fb",20,1
"2214",1,1,425,1,1,27,"100f9fb",21,1
"2312",1,1,372,1,1,27,"100f9fb",22,1
"2412",0,1,364,6,1,27,"100f9fb",23,1
"2512",0,1,473,4,1,27,"100f9fb",24,1
"2612",0,1,491,1,5,27,"100f9fb",25,1
"2712",1,1,438,4,4,27,"100f9fb",26,1
"2812",-1,-1,0,6,6,27,"100f9fb",27,1
"2912",1,1,362,5,5,27,"100f9fb",28,1
"3012",0,1,551,1,4,27,"100f9fb",29,1
"3116",0,1,363,6,1,27,"100f9fb",30,1
"3214",0,1,698,1,5,27,"100f9fb",31,1
"3312",1,1,556,1,1,27,"100f9fb",32,1
"3412",1,1,1188,4,4,27,"100f9fb",33,1
"3512",1,1,605,5,5,27,"100f9fb",34,1
"3612",1,1,419,6,6,27,"100f9fb",35,1
"3712",1,1,413,1,1,27,"100f9fb",36,1
"3812",1,1,447,5,5,27,"100f9fb",37,1
"3912",0,1,543,4,1,27,"100f9fb",38,1
"4012",1,1,540,4,4,27,"100f9fb",39,1
"4116",0,1,431,5,1,27,"100f9fb",40,1
"4214",-1,-1,0,6,6,27,"100f9fb",41,1
"4312",0,1,417,6,1,27,"100f9fb",42,1
"4412",1,1,393,5,5,27,"100f9fb",43,1
"4512",0,1,438,1,5,27,"100f9fb",44,1
"4612",1,1,356,4,4,27,"100f9fb",45,1
"4712",0,1,705,4,1,27,"100f9fb",46,1
"4812",1,1,484,1,1,27,"100f9fb",47,1
"4912",1,1,464,6,6,27,"100f9fb",48,1
"5012",0,1,593,1,6,27,"100f9fb",49,1
"5116",1,1,172,4,4,27,"100f9fb",50,1
"5214",-1,-1,0,5,5,27,"100f9fb",51,1
"5312",1,1,426,6,6,27,"100f9fb",52,1
"5412",0,1,466,1,4,27,"100f9fb",53,1
"5512",0,1,1257,6,1,27,"100f9fb",54,1
"5612",1,1,529,1,1,27,"100f9fb",55,1
"5712",0,1,1118,1,5,27,"100f9fb",56,1
"5812",1,1,599,1,1,27,"100f9fb",57,1
"5912",1,1,753,5,5,27,"100f9fb",58,1
"6012",0,1,369,1,4,27,"100f9fb",59,1
"6116",1,1,513,4,4,27,"100f9fb",60,1
"6214",1,1,186,6,6,27,"100f9fb",61,1
"6312",0,1,609,1,6,27,"100f9fb",62,1
"6412",0,1,605,1,5,27,"100f9fb",63,1
"6512",1,1,840,5,5,27,"100f9fb",64,1
"6612",1,1,450,6,6,27,"100f9fb",65,1
"6712",0,1,778,6,1,27,"100f9fb",66,1
"6812",0,1,531,4,1,27,"100f9fb",67,1
"6912",0,1,594,5,1,27,"100f9fb",68,1
"7012",1,1,940,1,1,27,"100f9fb",69,1
"7112",1,1,480,4,4,27,"100f9fb",70,1
"270",1,1,844,4,4,26,"1ef38c7",1,1
"370",1,0,692,1,4,26,"1ef38c7",2,1
"470",1,1,493,1,1,26,"1ef38c7",3,1
"570",1,0,565,1,5,26,"1ef38c7",4,1
"670",0,1,1056,6,1,26,"1ef38c7",5,1
"723",1,1,640,6,6,26,"1ef38c7",6,1
"813",1,1,671,5,5,26,"1ef38c7",7,1
"913",1,0,655,5,1,26,"1ef38c7",8,1
"1013",1,1,530,4,4,26,"1ef38c7",9,1
"1113",0,0,816,5,5,26,"1ef38c7",10,1
"1213",0,0,506,6,6,26,"1ef38c7",11,1
"1313",1,0,524,6,1,26,"1ef38c7",12,1
"1413",1,1,421,1,1,26,"1ef38c7",13,1
"1513",0,1,469,4,1,26,"1ef38c7",14,1
"1613",1,1,781,6,6,26,"1ef38c7",15,1
"1713",0,0,740,5,5,26,"1ef38c7",16,1
"1813",0,1,468,1,6,26,"1ef38c7",17,1
"1913",0,1,338,5,1,26,"1ef38c7",18,1
"2013",0,1,1765,1,4,26,"1ef38c7",19,1
"2117",1,1,536,4,4,26,"1ef38c7",20,1
"2215",1,1,488,1,1,26,"1ef38c7",21,1
"2313",0,1,435,6,1,26,"1ef38c7",22,1
"2413",0,1,731,1,4,26,"1ef38c7",23,1
"2513",1,1,556,5,5,26,"1ef38c7",24,1
"2613",1,1,604,4,4,26,"1ef38c7",25,1
"2713",0,1,790,5,1,26,"1ef38c7",26,1
"2813",-1,-1,0,6,6,26,"1ef38c7",27,1
"2913",-1,-1,0,1,1,26,"1ef38c7",28,1
"3013",-1,-1,0,6,1,26,"1ef38c7",29,1
"3117",-1,-1,0,4,4,26,"1ef38c7",30,1
"3215",-1,-1,0,1,1,26,"1ef38c7",31,1
"3313",-1,-1,0,5,5,26,"1ef38c7",32,1
"3413",-1,-1,0,1,4,26,"1ef38c7",33,1
"3513",-1,-1,0,1,5,26,"1ef38c7",34,1
"3613",-1,-1,0,6,6,26,"1ef38c7",35,1
"3713",-1,-1,0,1,1,26,"1ef38c7",36,1
"3813",-1,-1,0,1,5,26,"1ef38c7",37,1
"3913",-1,-1,0,6,1,26,"1ef38c7",38,1
"4013",-1,-1,0,4,4,26,"1ef38c7",39,1
"4117",-1,-1,0,5,5,26,"1ef38c7",40,1
"4215",1,1,483,6,6,26,"1ef38c7",41,1
"4313",1,0,419,1,4,26,"1ef38c7",42,1
"4413",1,1,428,5,5,26,"1ef38c7",43,1
"4513",0,1,639,1,5,26,"1ef38c7",44,1
"4613",0,1,584,6,1,26,"1ef38c7",45,1
"4713",0,1,593,4,1,26,"1ef38c7",46,1
"4813",1,1,624,1,1,26,"1ef38c7",47,1
"4913",1,1,464,4,4,26,"1ef38c7",48,1
"5013",1,1,593,6,6,26,"1ef38c7",49,1
"5117",0,1,554,4,1,26,"1ef38c7",50,1
"5215",1,1,437,4,4,26,"1ef38c7",51,1
"5313",1,1,494,6,6,26,"1ef38c7",52,1
"5413",0,1,484,1,6,26,"1ef38c7",53,1
"5513",0,1,702,5,1,26,"1ef38c7",54,1
"5613",1,1,509,1,1,26,"1ef38c7",55,1
"5713",1,1,485,5,5,26,"1ef38c7",56,1
"5813",1,1,1759,6,6,26,"1ef38c7",57,1
"5913",-1,-1,0,1,6,26,"1ef38c7",58,1
"6013",0,1,1063,4,1,26,"1ef38c7",59,1
"6117",0,1,855,5,1,26,"1ef38c7",60,1
"6215",1,1,615,4,4,26,"1ef38c7",61,1
"6313",1,1,514,5,5,26,"1ef38c7",62,1
"6413",1,1,506,1,1,26,"1ef38c7",63,1
"6513",0,1,498,4,1,26,"1ef38c7",64,1
"6613",-1,-1,0,4,4,26,"1ef38c7",65,1
"6713",0,1,394,1,6,26,"1ef38c7",66,1
"6813",1,1,425,5,5,26,"1ef38c7",67,1
"6913",1,1,437,6,6,26,"1ef38c7",68,1
"7013",0,1,670,5,1,26,"1ef38c7",69,1
"7113",1,1,475,1,1,26,"1ef38c7",70,1
"280",0,1,844,4,1,26,"1448753",1,1
"380",1,1,430,1,1,26,"1448753",2,1
"480",0,1,402,1,6,26,"1448753",3,1
"580",1,1,593,4,4,26,"1448753",4,1
"680",0,1,675,1,5,26,"1448753",5,1
"724",1,1,447,6,6,26,"1448753",6,1
"814",1,1,215,5,5,26,"1448753",7,1
"914",1,1,224,5,5,26,"1448753",8,1
"1014",1,1,218,4,4,26,"1448753",9,1
"1114",0,1,387,6,1,26,"1448753",10,1
"1214",1,1,244,6,6,26,"1448753",11,1
"1314",0,1,350,5,1,26,"1448753",12,1
"1414",1,1,543,1,1,26,"1448753",13,1
"1514",0,1,552,1,4,26,"1448753",14,1
"1614",0,1,360,6,1,26,"1448753",15,1
"1714",1,1,543,6,6,26,"1448753",16,1
"1814",1,1,299,4,4,26,"1448753",17,1
"1914",1,1,339,1,1,26,"1448753",18,1
"2014",0,1,262,1,4,26,"1448753",19,1
"2118",0,1,1323,5,1,26,"1448753",20,1
"2216",1,1,422,5,5,26,"1448753",21,1
"2314",1,1,1417,4,4,26,"1448753",22,1
"2414",1,1,639,6,6,26,"1448753",23,1
"2514",0,1,312,6,1,26,"1448753",24,1
"2614",1,1,305,5,5,26,"1448753",25,1
"2714",0,1,281,4,1,26,"1448753",26,1
"2814",1,1,305,1,1,26,"1448753",27,1
"2914",0,1,187,5,1,26,"1448753",28,1
"3014",0,1,11,1,4,26,"1448753",29,1
"3118",1,1,212,1,1,26,"1448753",30,1
"3216",1,1,215,5,5,26,"1448753",31,1
"3314",1,1,92,4,4,26,"1448753",32,1
"3414",0,1,350,5,1,26,"1448753",33,1
"3514",1,1,78,6,6,26,"1448753",34,1
"3614",0,1,438,1,6,26,"1448753",35,1
"3714",1,1,79,6,6,26,"1448753",36,1
"3814",0,1,416,1,6,26,"1448753",37,1
"3914",0,1,244,1,5,26,"1448753",38,1
"4014",0,1,257,1,4,26,"1448753",39,1
"4118",1,1,1474,1,1,26,"1448753",40,1
"4216",1,1,703,5,5,26,"1448753",41,1
"4314",1,1,249,4,4,26,"1448753",42,1
"4414",0,1,610,4,1,26,"1448753",43,1
"4514",1,1,1064,1,1,26,"1448753",44,1
"4614",0,1,210,1,6,26,"1448753",45,1
"4714",1,1,171,5,5,26,"1448753",46,1
"4814",0,1,228,1,5,26,"1448753",47,1
"4914",1,1,916,6,6,26,"1448753",48,1
"5014",1,1,843,4,4,26,"1448753",49,1
"5118",0,1,341,6,1,26,"1448753",50,1
"5216",0,1,249,1,4,26,"1448753",51,1
"5314",0,1,434,5,1,26,"1448753",52,1
"5414",1,1,156,6,6,26,"1448753",53,1
"5514",1,1,258,1,1,26,"1448753",54,1
"5614",1,1,331,5,5,26,"1448753",55,1
"5714",1,1,165,4,4,26,"1448753",56,1
"5814",1,1,303,1,1,26,"1448753",57,1
"5914",1,1,160,4,4,26,"1448753",58,1
"6014",0,1,961,5,1,26,"1448753",59,1
"6118",1,1,393,5,5,26,"1448753",60,1
"6216",0,1,524,1,4,26,"1448753",61,1
"6314",0,1,484,6,1,26,"1448753",62,1
"6414",1,1,570,6,6,26,"1448753",63,1
"6514",1,1,347,6,6,26,"1448753",64,1
"6614",1,1,204,4,4,26,"1448753",65,1
"6714",0,1,437,1,6,26,"1448753",66,1
"6814",1,1,180,5,5,26,"1448753",67,1
"6914",1,1,99,1,1,26,"1448753",68,1
"7014",0,1,339,5,1,26,"1448753",69,1
"7114",0,1,495,4,1,26,"1448753",70,1
"290",0,0,687,4,4,26,"18f720c",1,1
"390",1,0,240,1,5,26,"18f720c",2,1
"490",1,1,235,6,6,26,"18f720c",3,1
"590",0,1,314,1,4,26,"18f720c",4,1
"690",0,0,405,1,1,26,"18f720c",5,1
"725",1,1,494,5,5,26,"18f720c",6,1
"815",0,1,349,6,1,26,"18f720c",7,1
"915",0,1,505,4,1,26,"18f720c",8,1
"1015",0,1,484,5,1,26,"18f720c",9,1
"1115",1,1,297,5,5,26,"18f720c",10,1
"1215",0,1,462,6,1,26,"18f720c",11,1
"1315",1,1,388,1,1,26,"18f720c",12,1
"1415",1,1,322,4,4,26,"18f720c",13,1
"1515",1,1,457,6,6,26,"18f720c",14,1
"1615",0,0,428,1,1,26,"18f720c",15,1
"1715",0,1,326,1,6,26,"18f720c",16,1
"1815",1,1,386,4,4,26,"18f720c",17,1
"1915",0,1,343,5,1,26,"18f720c",18,1
"2015",0,1,367,1,4,26,"18f720c",19,1
"2119",1,1,313,5,5,26,"18f720c",20,1
"2217",1,1,351,6,6,26,"18f720c",21,1
"2315",0,1,267,5,1,26,"18f720c",22,1
"2415",0,0,555,5,5,26,"18f720c",23,1
"2515",1,1,353,4,4,26,"18f720c",24,1
"2615",0,1,563,4,1,26,"18f720c",25,1
"2715",1,1,357,6,6,26,"18f720c",26,1
"2815",1,1,383,1,1,26,"18f720c",27,1
"2915",0,1,305,6,1,26,"18f720c",28,1
"3015",0,1,297,5,1,26,"18f720c",29,1
"3119",0,1,911,1,6,26,"18f720c",30,1
"3217",1,1,287,4,4,26,"18f720c",31,1
"3315",0,1,755,1,4,26,"18f720c",32,1
"3415",1,1,426,6,6,26,"18f720c",33,1
"3515",1,1,291,1,1,26,"18f720c",34,1
"3615",1,1,418,5,5,26,"18f720c",35,1
"3715",1,1,426,6,6,26,"18f720c",36,1
"3815",1,1,509,1,1,26,"18f720c",37,1
"3915",1,1,345,4,4,26,"18f720c",38,1
"4015",0,1,734,1,5,26,"18f720c",39,1
"4119",0,1,471,1,6,26,"18f720c",40,1
"4217",0,1,656,1,4,26,"18f720c",41,1
"4315",1,1,439,5,5,26,"18f720c",42,1
"4415",0,1,419,1,4,26,"18f720c",43,1
"4515",0,1,358,6,1,26,"18f720c",44,1
"4615",1,1,521,5,5,26,"18f720c",45,1
"4715",1,1,341,6,6,26,"18f720c",46,1
"4815",0,1,419,5,1,26,"18f720c",47,1
"4915",1,1,392,4,4,26,"18f720c",48,1
"5015",1,1,331,1,1,26,"18f720c",49,1
"5119",1,1,355,1,1,26,"18f720c",50,1
"5217",1,1,360,6,6,26,"18f720c",51,1
"5315",0,1,464,4,1,26,"18f720c",52,1
"5415",0,1,487,5,1,26,"18f720c",53,1
"5515",1,1,606,4,4,26,"18f720c",54,1
"5615",1,1,300,5,5,26,"18f720c",55,1
"5715",0,1,574,1,6,26,"18f720c",56,1
"5815",0,1,683,6,1,26,"18f720c",57,1
"5915",1,1,311,4,4,26,"18f720c",58,1
"6015",1,1,243,1,1,26,"18f720c",59,1
"6119",1,1,291,5,5,26,"18f720c",60,1
"6217",0,1,577,4,1,26,"18f720c",61,1
"6315",0,1,477,1,5,26,"18f720c",62,1
"6415",1,1,533,6,6,26,"18f720c",63,1
"6515",1,1,346,6,6,26,"18f720c",64,1
"6615",0,1,437,1,4,26,"18f720c",65,1
"6715",1,1,441,4,4,26,"18f720c",66,1
"6815",1,1,365,5,5,26,"18f720c",67,1
"6915",0,1,718,1,6,26,"18f720c",68,1
"7015",0,1,695,1,5,26,"18f720c",69,1
"7115",1,1,479,1,1,26,"18f720c",70,1
"2100",1,1,707,6,6,26,"1732b3e",1,1
"3100",1,1,384,5,5,26,"1732b3e",2,1
"4100",1,0,452,1,5,26,"1732b3e",3,1
"5100",1,1,357,4,4,26,"1732b3e",4,1
"6100",1,0,402,4,1,26,"1732b3e",5,1
"726",1,1,406,1,1,26,"1732b3e",6,1
"816",0,1,312,1,6,26,"1732b3e",7,1
"916",1,1,410,1,1,26,"1732b3e",8,1
"1016",0,1,423,1,6,26,"1732b3e",9,1
"1116",1,1,311,4,4,26,"1732b3e",10,1
"1216",0,1,348,1,5,26,"1732b3e",11,1
"1316",1,1,383,5,5,26,"1732b3e",12,1
"1416",1,1,316,6,6,26,"1732b3e",13,1
"1516",0,1,337,1,4,26,"1732b3e",14,1
"1616",0,1,426,5,1,26,"1732b3e",15,1
"1716",1,1,400,1,1,26,"1732b3e",16,1
"1816",1,1,380,4,4,26,"1732b3e",17,1
"1916",1,1,493,6,6,26,"1732b3e",18,1
"2016",0,1,376,4,1,26,"1732b3e",19,1
"2120",0,1,441,1,6,26,"1732b3e",20,1
"2218",1,1,411,5,5,26,"1732b3e",21,1
"2316",0,1,554,5,1,26,"1732b3e",22,1
"2416",1,1,318,6,6,26,"1732b3e",23,1
"2516",1,1,470,5,5,26,"1732b3e",24,1
"2616",1,1,316,1,1,26,"1732b3e",25,1
"2716",0,1,434,1,4,26,"1732b3e",26,1
"2816",1,1,440,4,4,26,"1732b3e",27,1
"2916",0,1,595,1,6,26,"1732b3e",28,1
"3016",1,0,341,1,4,26,"1732b3e",29,1
"3120",1,1,386,4,4,26,"1732b3e",30,1
"3218",1,1,393,5,5,26,"1732b3e",31,1
"3316",0,1,685,1,6,26,"1732b3e",32,1
"3416",1,1,368,1,1,26,"1732b3e",33,1
"3516",1,1,311,6,6,26,"1732b3e",34,1
"3616",0,1,361,5,1,26,"1732b3e",35,1
"3716",1,1,312,6,6,26,"1732b3e",36,1
"3816",0,1,562,1,6,26,"1732b3e",37,1
"3916",1,1,366,1,1,26,"1732b3e",38,1
"4016",1,1,369,4,4,26,"1732b3e",39,1
"4120",1,1,398,5,5,26,"1732b3e",40,1
"4218",0,1,348,1,5,26,"1732b3e",41,1
"4316",0,1,432,1,4,26,"1732b3e",42,1
"4416",1,1,853,4,4,26,"1732b3e",43,1
"4516",1,1,327,6,6,26,"1732b3e",44,1
"4616",1,1,312,1,1,26,"1732b3e",45,1
"4716",0,1,418,6,1,26,"1732b3e",46,1
"4816",0,1,495,1,4,26,"1732b3e",47,1
"4916",0,1,392,1,5,26,"1732b3e",48,1
"5016",1,1,549,5,5,26,"1732b3e",49,1
"5120",1,1,345,4,4,26,"1732b3e",50,1
"5218",0,1,342,1,5,26,"1732b3e",51,1
"5316",0,1,303,4,1,26,"1732b3e",52,1
"5416",1,1,386,6,6,26,"1732b3e",53,1
"5516",0,1,466,6,1,26,"1732b3e",54,1
"5616",1,1,369,1,1,26,"1732b3e",55,1
"5716",1,1,1102,5,5,26,"1732b3e",56,1
"5816",1,1,390,4,4,26,"1732b3e",57,1
"5916",0,1,344,1,6,26,"1732b3e",58,1
"6016",1,1,374,6,6,26,"1732b3e",59,1
"6120",1,1,386,1,1,26,"1732b3e",60,1
"6218",1,1,587,5,5,26,"1732b3e",61,1
"6316",0,1,599,1,5,26,"1732b3e",62,1
"6416",0,1,379,1,4,26,"1732b3e",63,1
"6516",1,1,446,1,1,26,"1732b3e",64,1
"6616",1,1,303,5,5,26,"1732b3e",65,1
"6716",0,1,355,6,1,26,"1732b3e",66,1
"6816",1,1,347,4,4,26,"1732b3e",67,1
"6916",0,1,480,5,1,26,"1732b3e",68,1
"7016",0,1,283,4,1,26,"1732b3e",69,1
"7116",1,1,337,6,6,26,"1732b3e",70,1
"2101",1,1,863,4,4,26,"1cd118a",1,1
"3101",0,1,638,1,6,26,"1cd118a",2,1
"4101",1,1,351,5,5,26,"1cd118a",3,1
"5101",1,1,659,1,1,26,"1cd118a",4,1
"6101",1,1,537,6,6,26,"1cd118a",5,1
"727",-1,-1,0,1,4,26,"1cd118a",6,1
"817",0,1,512,5,1,26,"1cd118a",7,1
"917",0,1,597,5,1,26,"1cd118a",8,1
"1017",1,1,459,6,6,26,"1cd118a",9,1
"1117",1,1,448,5,5,26,"1cd118a",10,1
"1217",0,1,583,4,1,26,"1cd118a",11,1
"1317",1,1,490,4,4,26,"1cd118a",12,1
"1417",0,1,512,1,6,26,"1cd118a",13,1
"1517",1,1,454,1,1,26,"1cd118a",14,1
"1617",0,1,522,5,1,26,"1cd118a",15,1
"1717",1,1,381,1,1,26,"1cd118a",16,1
"1817",1,1,579,5,5,26,"1cd118a",17,1
"1917",1,1,513,6,6,26,"1cd118a",18,1
"2017",1,1,479,4,4,26,"1cd118a",19,1
"2121",0,1,309,4,1,26,"1cd118a",20,1
"2219",0,1,828,1,6,26,"1cd118a",21,1
"2317",1,1,317,4,4,26,"1cd118a",22,1
"2417",1,1,308,1,1,26,"1cd118a",23,1
"2517",0,1,823,1,4,26,"1cd118a",24,1
"2617",1,1,331,5,5,26,"1cd118a",25,1
"2717",0,1,321,5,1,26,"1cd118a",26,1
"2817",1,1,357,6,6,26,"1cd118a",27,1
"2917",0,1,250,1,6,26,"1cd118a",28,1
"3017",1,1,348,4,4,26,"1cd118a",29,1
"3121",0,1,352,5,1,26,"1cd118a",30,1
"3219",0,1,500,4,1,26,"1cd118a",31,1
"3317",1,1,442,6,6,26,"1cd118a",32,1
"3417",0,1,304,6,1,26,"1cd118a",33,1
"3517",1,1,374,5,5,26,"1cd118a",34,1
"3617",1,1,750,1,1,26,"1cd118a",35,1
"3717",1,1,547,5,5,26,"1cd118a",36,1
"3817",0,1,1145,1,4,26,"1cd118a",37,1
"3917",1,1,300,6,6,26,"1cd118a",38,1
"4017",1,1,772,4,4,26,"1cd118a",39,1
"4121",0,1,377,1,5,26,"1cd118a",40,1
"4219",1,1,464,1,1,26,"1cd118a",41,1
"4317",0,1,409,1,6,26,"1cd118a",42,1
"4417",0,1,519,5,1,26,"1cd118a",43,1
"4517",1,1,459,6,6,26,"1cd118a",44,1
"4617",1,1,273,5,5,26,"1cd118a",45,1
"4717",1,1,404,1,1,26,"1cd118a",46,1
"4817",0,1,522,6,1,26,"1cd118a",47,1
"4917",1,1,448,4,4,26,"1cd118a",48,1
"5017",0,1,338,1,4,26,"1cd118a",49,1
"5121",1,1,406,5,5,26,"1cd118a",50,1
"5219",1,1,335,1,1,26,"1cd118a",51,1
"5317",0,1,353,5,1,26,"1cd118a",52,1
"5417",1,1,407,6,6,26,"1cd118a",53,1
"5517",1,1,301,4,4,26,"1cd118a",54,1
"5617",0,1,483,1,4,26,"1cd118a",55,1
"5717",0,1,472,6,1,26,"1cd118a",56,1
"5817",1,1,541,4,4,26,"1cd118a",57,1
"5917",0,1,690,5,1,26,"1cd118a",58,1
"6017",0,1,519,4,1,26,"1cd118a",59,1
"6121",1,1,282,6,6,26,"1cd118a",60,1
"6219",1,1,512,1,1,26,"1cd118a",61,1
"6317",0,1,390,1,6,26,"1cd118a",62,1
"6417",1,1,363,5,5,26,"1cd118a",63,1
"6517",0,1,720,5,1,26,"1cd118a",64,1
"6617",0,1,436,1,4,26,"1cd118a",65,1
"6717",1,1,490,5,5,26,"1cd118a",66,1
"6817",1,1,416,4,4,26,"1cd118a",67,1
"6917",0,1,372,6,1,26,"1cd118a",68,1
"7017",1,1,392,6,6,26,"1cd118a",69,1
"7117",1,1,588,1,1,26,"1cd118a",70,1
"2102",0,1,610,1,6,27,"1649d75",1,1
"3102",1,1,316,6,6,27,"1649d75",2,1
"4102",1,1,384,1,1,27,"1649d75",3,1
"5102",0,1,365,5,1,27,"1649d75",4,1
"6102",1,1,299,5,5,27,"1649d75",5,1
"728",0,1,381,4,1,27,"1649d75",6,1
"818",1,1,285,4,4,27,"1649d75",7,1
"918",0,1,247,5,1,27,"1649d75",8,1
"1018",1,1,277,1,1,27,"1649d75",9,1
"1118",1,0,394,4,1,27,"1649d75",10,1
"1218",0,1,261,1,6,27,"1649d75",11,1
"1318",1,1,283,6,6,27,"1649d75",12,1
"1418",1,1,486,4,4,27,"1649d75",13,1
"1518",1,1,259,5,5,27,"1649d75",14,1
"1618",0,1,253,5,1,27,"1649d75",15,1
"1718",1,1,300,4,4,27,"1649d75",16,1
"1818",1,1,259,5,5,27,"1649d75",17,1
"1918",0,1,276,1,6,27,"1649d75",18,1
"2018",1,1,394,6,6,27,"1649d75",19,1
"2122",1,1,292,1,1,27,"1649d75",20,1
"2220",0,1,437,1,4,27,"1649d75",21,1
"2318",1,1,266,1,1,27,"1649d75",22,1
"2418",1,1,315,6,6,27,"1649d75",23,1
"2518",0,1,415,5,1,27,"1649d75",24,1
"2618",1,1,342,4,4,27,"1649d75",25,1
"2718",1,1,257,5,5,27,"1649d75",26,1
"2818",0,1,344,1,4,27,"1649d75",27,1
"2918",0,1,434,6,1,27,"1649d75",28,1
"3018",0,1,308,5,1,27,"1649d75",29,1
"3122",1,1,264,4,4,27,"1649d75",30,1
"3220",0,1,408,1,4,27,"1649d75",31,1
"3318",1,1,270,1,1,27,"1649d75",32,1
"3418",1,1,313,5,5,27,"1649d75",33,1
"3518",1,1,349,6,6,27,"1649d75",34,1
"3618",0,1,280,6,1,27,"1649d75",35,1
"3718",0,1,276,1,6,27,"1649d75",36,1
"3818",0,1,310,4,1,27,"1649d75",37,1
"3918",0,1,259,1,5,27,"1649d75",38,1
"4018",1,1,675,4,4,27,"1649d75",39,1
"4122",1,1,379,6,6,27,"1649d75",40,1
"4220",1,1,260,1,1,27,"1649d75",41,1
"4318",1,1,351,5,5,27,"1649d75",42,1
"4418",1,1,268,6,6,27,"1649d75",43,1
"4518",1,1,278,4,4,27,"1649d75",44,1
"4618",1,1,396,1,1,27,"1649d75",45,1
"4718",0,1,289,1,5,27,"1649d75",46,1
"4818",0,1,270,4,1,27,"1649d75",47,1
"4918",0,1,368,6,1,27,"1649d75",48,1
"5018",1,1,243,5,5,27,"1649d75",49,1
"5122",1,1,304,1,1,27,"1649d75",50,1
"5220",1,1,264,4,4,27,"1649d75",51,1
"5318",1,1,318,5,5,27,"1649d75",52,1
"5418",0,1,590,1,6,27,"1649d75",53,1
"5518",0,1,291,1,5,27,"1649d75",54,1
"5618",1,1,238,6,6,27,"1649d75",55,1
"5718",0,1,328,4,1,27,"1649d75",56,1
"5818",1,1,255,5,5,27,"1649d75",57,1
"5918",1,1,377,6,6,27,"1649d75",58,1
"6018",0,1,269,1,4,27,"1649d75",59,1
"6122",1,1,226,1,1,27,"1649d75",60,1
"6220",0,1,240,1,6,27,"1649d75",61,1
"6318",0,1,393,1,5,27,"1649d75",62,1
"6418",1,1,284,4,4,27,"1649d75",63,1
"6518",0,1,309,6,1,27,"1649d75",64,1
"6618",1,1,340,5,5,27,"1649d75",65,1
"6718",0,1,381,1,5,27,"1649d75",66,1
"6818",1,1,319,4,4,27,"1649d75",67,1
"6918",1,1,286,1,1,27,"1649d75",68,1
"7018",0,1,174,1,4,27,"1649d75",69,1
"7118",1,1,247,6,6,27,"1649d75",70,1
"2103",1,0,763,1,5,27,"1d18ceb",1,1
"3103",1,1,676,5,5,27,"1d18ceb",2,1
"4103",0,0,500,6,6,27,"1d18ceb",3,1
"5103",0,1,533,1,6,27,"1d18ceb",4,1
"6103",1,1,477,1,1,27,"1d18ceb",5,1
"729",1,1,498,4,4,27,"1d18ceb",6,1
"819",0,1,1061,1,4,27,"1d18ceb",7,1
"919",1,1,541,6,6,27,"1d18ceb",8,1
"1019",0,1,557,1,6,27,"1d18ceb",9,1
"1119",1,1,470,5,5,27,"1d18ceb",10,1
"1219",0,1,783,5,1,27,"1d18ceb",11,1
"1319",1,1,398,1,1,27,"1d18ceb",12,1
"1419",0,1,870,1,4,27,"1d18ceb",13,1
"1519",1,1,386,4,4,27,"1d18ceb",14,1
"1619",1,1,611,4,4,27,"1d18ceb",15,1
"1719",1,1,370,1,1,27,"1d18ceb",16,1
"1819",1,1,314,5,5,27,"1d18ceb",17,1
"1919",0,1,433,6,1,27,"1d18ceb",18,1
"2019",0,1,482,1,4,27,"1d18ceb",19,1
"2123",0,1,321,5,1,27,"1d18ceb",20,1
"2221",1,1,456,6,6,27,"1d18ceb",21,1
"2319",1,1,422,1,1,27,"1d18ceb",22,1
"2419",0,1,443,1,4,27,"1d18ceb",23,1
"2519",0,1,734,1,5,27,"1d18ceb",24,1
"2619",0,1,511,1,6,27,"1d18ceb",25,1
"2719",1,1,591,6,6,27,"1d18ceb",26,1
"2819",1,1,1358,4,4,27,"1d18ceb",27,1
"2919",1,1,1581,5,5,27,"1d18ceb",28,1
"3019",1,1,466,4,4,27,"1d18ceb",29,1
"3123",1,1,412,6,6,27,"1d18ceb",30,1
"3221",1,1,631,5,5,27,"1d18ceb",31,1
"3319",1,1,475,1,1,27,"1d18ceb",32,1
"3419",0,1,943,6,1,27,"1d18ceb",33,1
"3519",0,1,389,1,5,27,"1d18ceb",34,1
"3619",0,1,445,4,1,27,"1d18ceb",35,1
"3719",1,1,561,6,6,27,"1d18ceb",36,1
"3819",0,1,412,1,6,27,"1d18ceb",37,1
"3919",1,1,394,1,1,27,"1d18ceb",38,1
"4019",1,1,530,5,5,27,"1d18ceb",39,1
"4123",1,1,507,4,4,27,"1d18ceb",40,1
"4221",-1,-1,0,1,5,27,"1d18ceb",41,1
"4319",0,1,465,4,1,27,"1d18ceb",42,1
"4419",0,1,508,5,1,27,"1d18ceb",43,1
"4519",-1,-1,0,4,4,27,"1d18ceb",44,1
"4619",0,1,390,6,1,27,"1d18ceb",45,1
"4719",1,1,399,1,1,27,"1d18ceb",46,1
"4819",0,1,415,4,1,27,"1d18ceb",47,1
"4919",1,1,476,5,5,27,"1d18ceb",48,1
"5019",-1,-1,0,6,6,27,"1d18ceb",49,1
"5123",0,1,707,6,1,27,"1d18ceb",50,1
"5221",1,1,557,4,4,27,"1d18ceb",51,1
"5319",0,1,386,5,1,27,"1d18ceb",52,1
"5419",0,1,375,4,1,27,"1d18ceb",53,1
"5519",1,1,449,6,6,27,"1d18ceb",54,1
"5619",1,1,424,1,1,27,"1d18ceb",55,1
"5719",1,1,398,5,5,27,"1d18ceb",56,1
"5819",-1,-1,0,5,5,27,"1d18ceb",57,1
"5919",1,1,356,1,1,27,"1d18ceb",58,1
"6019",1,1,454,4,4,27,"1d18ceb",59,1
"6123",0,1,396,1,6,27,"1d18ceb",60,1
"6221",1,1,1330,6,6,27,"1d18ceb",61,1
"6319",0,1,357,1,4,27,"1d18ceb",62,1
"6419",0,1,376,5,1,27,"1d18ceb",63,1
"6519",1,1,782,5,5,27,"1d18ceb",64,1
"6619",1,1,463,4,4,27,"1d18ceb",65,1
"6719",1,1,524,1,1,27,"1d18ceb",66,1
"6819",0,1,1020,1,6,27,"1d18ceb",67,1
"6919",0,1,947,1,5,27,"1d18ceb",68,1
"7019",1,1,390,6,6,27,"1d18ceb",69,1
"7119",0,1,438,4,1,27,"1d18ceb",70,1
"2104",-1,-1,0,5,1,26,"1976444",1,1
"3104",1,1,847,5,5,26,"1976444",2,1
"4104",1,0,869,1,4,26,"1976444",3,1
"5104",1,1,523,1,1,26,"1976444",4,1
"6104",0,1,530,1,6,26,"1976444",5,1
"730",0,0,317,4,4,26,"1976444",6,1
"820",0,0,296,6,6,26,"1976444",7,1
"920",0,1,277,4,1,26,"1976444",8,1
"1020",1,1,452,1,1,26,"1976444",9,1
"1120",0,0,277,5,5,26,"1976444",10,1
"1220",1,1,298,6,6,26,"1976444",11,1
"1320",0,1,454,6,1,26,"1976444",12,1
"1420",0,1,465,1,5,26,"1976444",13,1
"1520",1,1,284,4,4,26,"1976444",14,1
"1620",0,1,294,1,4,26,"1976444",15,1
"1720",1,1,358,6,6,26,"1976444",16,1
"1820",1,1,297,5,5,26,"1976444",17,1
"1920",0,1,383,5,1,26,"1976444",18,1
"2020",1,1,324,4,4,26,"1976444",19,1
"2124",1,1,355,1,1,26,"1976444",20,1
"2222",0,1,309,6,1,26,"1976444",21,1
"2320",0,1,303,5,1,26,"1976444",22,1
"2420",0,0,400,6,6,26,"1976444",23,1
"2520",0,1,449,6,1,26,"1976444",24,1
"2620",1,1,364,4,4,26,"1976444",25,1
"2720",0,1,271,4,1,26,"1976444",26,1
"2820",1,1,277,1,1,26,"1976444",27,1
"2920",1,1,334,5,5,26,"1976444",28,1
"3020",0,1,305,5,1,26,"1976444",29,1
"3124",0,0,327,5,5,26,"1976444",30,1
"3222",1,1,288,6,6,26,"1976444",31,1
"3320",0,1,300,4,1,26,"1976444",32,1
"3420",0,1,464,1,6,26,"1976444",33,1
"3520",1,1,117,1,1,26,"1976444",34,1
"3620",1,1,457,4,4,26,"1976444",35,1
"3720",0,1,415,5,1,26,"1976444",36,1
"3820",1,1,490,6,6,26,"1976444",37,1
"3920",1,1,416,5,5,26,"1976444",38,1
"4020",1,1,397,1,1,26,"1976444",39,1
"4124",1,1,273,4,4,26,"1976444",40,1
"4222",0,1,491,6,1,26,"1976444",41,1
"4320",0,1,379,4,1,26,"1976444",42,1
"4420",0,1,400,6,1,26,"1976444",43,1
"4520",1,1,411,5,5,26,"1976444",44,1
"4620",1,1,587,6,6,26,"1976444",45,1
"4720",1,1,345,1,1,26,"1976444",46,1
"4820",1,1,183,4,4,26,"1976444",47,1
"4920",0,1,367,4,1,26,"1976444",48,1
"5020",0,1,592,5,1,26,"1976444",49,1
"5124",1,1,508,6,6,26,"1976444",50,1
"5222",1,1,534,4,4,26,"1976444",51,1
"5320",1,1,254,5,5,26,"1976444",52,1
"5420",0,1,335,6,1,26,"1976444",53,1
"5520",0,1,261,5,1,26,"1976444",54,1
"5620",0,1,282,1,4,26,"1976444",55,1
"5720",1,1,334,1,1,26,"1976444",56,1
"5820",0,1,279,1,6,26,"1976444",57,1
"5920",1,1,173,6,6,26,"1976444",58,1
"6020",0,1,311,4,1,26,"1976444",59,1
"6124",1,1,443,5,5,26,"1976444",60,1
"6222",1,1,417,1,1,26,"1976444",61,1
"6320",0,1,435,1,5,26,"1976444",62,1
"6420",1,1,299,4,4,26,"1976444",63,1
"6520",0,1,231,4,1,26,"1976444",64,1
"6620",0,1,301,1,5,26,"1976444",65,1
"6720",1,1,423,1,1,26,"1976444",66,1
"6820",0,1,427,1,6,26,"1976444",67,1
"6920",1,1,10,5,5,26,"1976444",68,1
"7020",1,1,406,4,4,26,"1976444",69,1
"7120",1,1,128,6,6,26,"1976444",70,1
"2105",1,1,403,5,5,26,"1cd6656",1,1
"3105",1,1,1208,4,4,26,"1cd6656",2,1
"4105",1,1,368,1,1,26,"1cd6656",3,1
"5105",0,1,992,4,1,26,"1cd6656",4,1
"6105",0,1,715,6,1,26,"1cd6656",5,1
"731",1,1,683,6,6,26,"1cd6656",6,1
"821",0,1,753,1,5,26,"1cd6656",7,1
"921",1,1,263,1,1,26,"1cd6656",8,1
"1021",1,1,267,5,5,26,"1cd6656",9,1
"1121",0,1,1198,1,6,26,"1cd6656",10,1
"1221",0,1,780,5,1,26,"1cd6656",11,1
"1321",0,1,886,4,1,26,"1cd6656",12,1
"1421",1,1,344,4,4,26,"1cd6656",13,1
"1521",1,1,1279,6,6,26,"1cd6656",14,1
"1621",1,1,793,5,5,26,"1cd6656",15,1
"1721",1,1,706,4,4,26,"1cd6656",16,1
"1821",0,1,1051,1,6,26,"1cd6656",17,1
"1921",1,1,636,1,1,26,"1cd6656",18,1
"2021",0,1,863,4,1,26,"1cd6656",19,1
"2125",0,1,878,1,5,26,"1cd6656",20,1
"2223",1,1,1013,6,6,26,"1cd6656",21,1
"2321",0,1,958,5,1,26,"1cd6656",22,1
"2421",1,1,306,1,1,26,"1cd6656",23,1
"2521",1,1,697,4,4,26,"1cd6656",24,1
"2621",0,1,321,1,6,26,"1cd6656",25,1
"2721",1,1,273,5,5,26,"1cd6656",26,1
"2821",1,1,327,6,6,26,"1cd6656",27,1
"2921",0,1,721,4,1,26,"1cd6656",28,1
"3021",0,1,718,6,1,26,"1cd6656",29,1
"3125",1,0,1571,4,1,26,"1cd6656",30,1
"3223",1,1,707,4,4,26,"1cd6656",31,1
"3321",1,1,950,6,6,26,"1cd6656",32,1
"3421",1,1,226,5,5,26,"1cd6656",33,1
"3521",1,1,189,1,1,26,"1cd6656",34,1
"3621",0,1,1055,1,5,26,"1cd6656",35,1
"3721",1,1,486,1,1,26,"1cd6656",36,1
"3821",0,1,364,1,6,26,"1cd6656",37,1
"3921",1,1,246,5,5,26,"1cd6656",38,1
"4021",0,1,254,1,4,26,"1cd6656",39,1
"4125",1,1,534,6,6,26,"1cd6656",40,1
"4223",1,1,608,4,4,26,"1cd6656",41,1
"4321",0,1,263,1,5,26,"1cd6656",42,1
"4421",1,1,152,6,6,26,"1cd6656",43,1
"4521",0,1,67,1,6,26,"1cd6656",44,1
"4621",1,1,269,4,4,26,"1cd6656",45,1
"4721",1,1,251,5,5,26,"1cd6656",46,1
"4821",0,1,235,5,1,26,"1cd6656",47,1
"4921",1,1,356,1,1,26,"1cd6656",48,1
"5021",0,1,485,1,4,26,"1cd6656",49,1
"5125",1,1,228,1,1,26,"1cd6656",50,1
"5223",1,1,211,6,6,26,"1cd6656",51,1
"5321",0,1,549,1,4,26,"1cd6656",52,1
"5421",0,1,231,1,6,26,"1cd6656",53,1
"5521",1,1,673,4,4,26,"1cd6656",54,1
"5621",1,1,248,5,5,26,"1cd6656",55,1
"5721",0,1,290,5,1,26,"1cd6656",56,1
"5821",1,1,316,4,4,26,"1cd6656",57,1
"5921",0,1,269,5,1,26,"1cd6656",58,1
"6021",0,1,234,6,1,26,"1cd6656",59,1
"6125",0,1,340,1,4,26,"1cd6656",60,1
"6223",1,1,314,6,6,26,"1cd6656",61,1
"6321",1,1,311,1,1,26,"1cd6656",62,1
"6421",1,1,330,5,5,26,"1cd6656",63,1
"6521",0,1,417,6,1,26,"1cd6656",64,1
"6621",0,1,153,4,1,26,"1cd6656",65,1
"6721",0,1,390,1,5,26,"1cd6656",66,1
"6821",1,1,300,1,1,26,"1cd6656",67,1
"6921",1,1,243,6,6,26,"1cd6656",68,1
"7021",1,1,642,5,5,26,"1cd6656",69,1
"7121",1,1,514,4,4,26,"1cd6656",70,1
"2106",0,1,136,5,1,26,"1997259",1,1
"3106",0,0,791,1,1,26,"1997259",2,1
"4106",0,1,453,1,4,26,"1997259",3,1
"5106",0,1,692,1,6,26,"1997259",4,1
"6106",1,1,375,4,4,26,"1997259",5,1
"732",1,1,519,5,5,26,"1997259",6,1
"822",1,1,493,6,6,26,"1997259",7,1
"922",0,0,382,6,6,26,"1997259",8,1
"1022",1,1,518,4,4,26,"1997259",9,1
"1122",0,0,513,1,1,26,"1997259",10,1
"1222",1,1,398,5,5,26,"1997259",11,1
"1322",0,1,369,1,6,26,"1997259",12,1
"1422",0,1,403,1,5,26,"1997259",13,1
"1522",0,1,544,1,4,26,"1997259",14,1
"1622",1,1,582,4,4,26,"1997259",15,1
"1722",0,1,558,4,1,26,"1997259",16,1
"1822",0,1,414,1,6,26,"1997259",17,1
"1922",0,1,618,5,1,26,"1997259",18,1
"2022",1,1,376,5,5,26,"1997259",19,1
"2126",1,1,395,1,1,26,"1997259",20,1
"2224",1,1,436,6,6,26,"1997259",21,1
"2322",1,1,419,5,5,26,"1997259",22,1
"2422",0,1,403,6,1,26,"1997259",23,1
"2522",1,1,399,1,1,26,"1997259",24,1
"2622",0,1,714,1,5,26,"1997259",25,1
"2722",1,1,576,4,4,26,"1997259",26,1
"2822",1,1,489,6,6,26,"1997259",27,1
"2922",0,1,530,4,1,26,"1997259",28,1
"3022",1,1,365,4,4,26,"1997259",29,1
"3126",0,1,457,1,6,26,"1997259",30,1
"3224",1,1,555,5,5,26,"1997259",31,1
"3322",0,1,407,5,1,26,"1997259",32,1
"3422",0,1,363,4,1,26,"1997259",33,1
"3522",1,1,378,1,1,26,"1997259",34,1
"3622",1,1,131,6,6,26,"1997259",35,1
"3722",1,1,408,4,4,26,"1997259",36,1
"3822",1,1,419,6,6,26,"1997259",37,1
"3922",0,1,407,4,1,26,"1997259",38,1
"4022",1,1,491,5,5,26,"1997259",39,1
"4126",1,1,573,1,1,26,"1997259",40,1
"4224",0,1,433,6,1,26,"1997259",41,1
"4322",0,1,387,5,1,26,"1997259",42,1
"4422",0,1,367,1,5,26,"1997259",43,1
"4522",1,1,448,4,4,26,"1997259",44,1
"4622",0,1,314,1,6,26,"1997259",45,1
"4722",1,1,380,1,1,26,"1997259",46,1
"4822",1,1,378,6,6,26,"1997259",47,1
"4922",0,1,408,1,4,26,"1997259",48,1
"5022",1,1,495,5,5,26,"1997259",49,1
"5126",0,1,458,5,1,26,"1997259",50,1
"5224",1,1,301,6,6,26,"1997259",51,1
"5322",1,1,191,4,4,26,"1997259",52,1
"5422",1,1,714,5,5,26,"1997259",53,1
"5522",0,1,549,1,4,26,"1997259",54,1
"5622",0,1,315,6,1,26,"1997259",55,1
"5722",1,1,319,1,1,26,"1997259",56,1
"5822",0,1,404,4,1,26,"1997259",57,1
"5922",1,1,357,4,4,26,"1997259",58,1
"6022",1,1,192,6,6,26,"1997259",59,1
"6126",1,1,262,5,5,26,"1997259",60,1
"6224",0,1,323,1,6,26,"1997259",61,1
"6322",0,1,607,5,1,26,"1997259",62,1
"6422",1,1,438,1,1,26,"1997259",63,1
"6522",0,1,387,1,5,26,"1997259",64,1
"6622",0,0,543,5,5,26,"1997259",65,1
"6722",1,1,325,1,1,26,"1997259",66,1
"6822",1,1,367,4,4,26,"1997259",67,1
"6922",0,1,358,1,4,26,"1997259",68,1
"7022",1,1,381,6,6,26,"1997259",69,1
"7122",0,1,564,1,6,26,"1997259",70,1
"2107",1,1,923,5,5,27,"1624ff5",1,1
"3107",1,1,524,6,6,27,"1624ff5",2,1
"4107",0,1,413,1,4,27,"1624ff5",3,1
"5107",1,1,506,4,4,27,"1624ff5",4,1
"6107",1,1,373,1,1,27,"1624ff5",5,1
"733",0,1,382,5,1,27,"1624ff5",6,1
"823",0,1,404,1,6,27,"1624ff5",7,1
"923",1,1,481,5,5,27,"1624ff5",8,1
"1023",1,1,521,4,4,27,"1624ff5",9,1
"1123",1,1,708,1,1,27,"1624ff5",10,1
"1223",1,1,486,6,6,27,"1624ff5",11,1
"1323",-1,-1,0,1,5,27,"1624ff5",12,1
"1423",0,1,699,6,1,27,"1624ff5",13,1
"1523",0,1,757,4,1,27,"1624ff5",14,1
"1623",0,1,1002,1,4,27,"1624ff5",15,1
"1723",1,1,759,4,4,27,"1624ff5",16,1
"1823",0,1,842,6,1,27,"1624ff5",17,1
"1923",0,1,758,1,5,27,"1624ff5",18,1
"2023",1,1,911,6,6,27,"1624ff5",19,1
"2127",1,1,459,1,1,27,"1624ff5",20,1
"2225",1,1,602,5,5,27,"1624ff5",21,1
"2323",1,1,399,4,4,27,"1624ff5",22,1
"2423",0,1,417,1,6,27,"1624ff5",23,1
"2523",0,1,451,4,1,27,"1624ff5",24,1
"2623",1,1,512,6,6,27,"1624ff5",25,1
"2723",0,1,403,5,1,27,"1624ff5",26,1
"2823",1,1,404,5,5,27,"1624ff5",27,1
"2923",1,1,732,1,1,27,"1624ff5",28,1
"3023",1,1,475,5,5,27,"1624ff5",29,1
"3127",0,1,404,1,5,27,"1624ff5",30,1
"3225",1,1,1768,1,1,27,"1624ff5",31,1
"3323",1,1,584,4,4,27,"1624ff5",32,1
"3423",0,1,398,1,4,27,"1624ff5",33,1
"3523",1,1,699,6,6,27,"1624ff5",34,1
"3623",0,1,448,6,1,27,"1624ff5",35,1
"3723",1,1,500,6,6,27,"1624ff5",36,1
"3823",1,1,527,5,5,27,"1624ff5",37,1
"3923",0,1,660,1,4,27,"1624ff5",38,1
"4023",1,1,365,1,1,27,"1624ff5",39,1
"4127",0,1,409,6,1,27,"1624ff5",40,1
"4225",1,1,376,4,4,27,"1624ff5",41,1
"4323",0,1,386,5,1,27,"1624ff5",42,1
"4423",0,1,490,4,1,27,"1624ff5",43,1
"4523",0,1,531,5,1,27,"1624ff5",44,1
"4623",1,1,364,6,6,27,"1624ff5",45,1
"4723",1,1,335,1,1,27,"1624ff5",46,1
"4823",0,1,375,1,6,27,"1624ff5",47,1
"4923",1,1,531,5,5,27,"1624ff5",48,1
"5023",1,1,421,4,4,27,"1624ff5",49,1
"5127",1,1,404,4,4,27,"1624ff5",50,1
"5225",1,1,451,5,5,27,"1624ff5",51,1
"5323",1,1,634,6,6,27,"1624ff5",52,1
"5423",0,1,457,1,5,27,"1624ff5",53,1
"5523",1,1,601,1,1,27,"1624ff5",54,1
"5623",0,1,482,4,1,27,"1624ff5",55,1
"5723",0,1,587,1,6,27,"1624ff5",56,1
"5823",0,1,353,1,6,27,"1624ff5",57,1
"5923",1,1,338,1,1,27,"1624ff5",58,1
"6023",1,1,555,6,6,27,"1624ff5",59,1
"6127",0,1,342,1,5,27,"1624ff5",60,1
"6225",1,1,489,5,5,27,"1624ff5",61,1
"6323",0,1,954,1,4,27,"1624ff5",62,1
"6423",1,1,652,4,4,27,"1624ff5",63,1
"6523",0,1,340,1,6,27,"1624ff5",64,1
"6623",1,1,336,5,5,27,"1624ff5",65,1
"6723",1,1,340,4,4,27,"1624ff5",66,1
"6823",1,1,384,1,1,27,"1624ff5",67,1
"6923",1,1,353,6,6,27,"1624ff5",68,1
"7023",0,1,423,1,4,27,"1624ff5",69,1
"7123",0,1,524,1,5,27,"1624ff5",70,1
"2108",1,1,570,1,1,27,"1ceb87b",1,1
"3108",1,0,347,1,5,27,"1ceb87b",2,1
"4108",1,1,268,6,6,27,"1ceb87b",3,1
"5108",0,1,274,4,1,27,"1ceb87b",4,1
"6108",0,1,454,6,1,27,"1ceb87b",5,1
"734",1,1,365,5,5,27,"1ceb87b",6,1
"824",1,1,366,4,4,27,"1ceb87b",7,1
"924",1,1,396,6,6,27,"1ceb87b",8,1
"1024",1,1,288,4,4,27,"1ceb87b",9,1
"1124",1,1,268,1,1,27,"1ceb87b",10,1
"1224",0,1,288,1,6,27,"1ceb87b",11,1
"1324",0,1,337,5,1,27,"1ceb87b",12,1
"1424",0,1,444,4,1,27,"1ceb87b",13,1
"1524",1,1,296,5,5,27,"1ceb87b",14,1
"1624",0,0,503,1,1,27,"1ceb87b",15,1
"1724",0,1,324,1,5,27,"1ceb87b",16,1
"1824",1,1,290,5,5,27,"1ceb87b",17,1
"1924",0,1,382,6,1,27,"1ceb87b",18,1
"2024",0,1,667,1,4,27,"1ceb87b",19,1
"2128",1,1,320,6,6,27,"1ceb87b",20,1
"2226",1,1,1982,4,4,27,"1ceb87b",21,1
"2324",1,1,357,6,6,27,"1ceb87b",22,1
"2424",1,1,1072,5,5,27,"1ceb87b",23,1
"2524",0,1,372,1,6,27,"1ceb87b",24,1
"2624",0,1,752,1,5,27,"1ceb87b",25,1
"2724",1,1,235,4,4,27,"1ceb87b",26,1
"2824",0,1,1042,1,4,27,"1ceb87b",27,1
"2924",1,1,355,1,1,27,"1ceb87b",28,1
"3024",1,1,365,1,1,27,"1ceb87b",29,1
"3128",0,1,802,6,1,27,"1ceb87b",30,1
"3226",1,1,474,5,5,27,"1ceb87b",31,1
"3324",1,1,288,6,6,27,"1ceb87b",32,1
"3424",0,1,895,4,1,27,"1ceb87b",33,1
"3524",1,1,291,4,4,27,"1ceb87b",34,1
"3624",-1,-1,0,1,5,27,"1ceb87b",35,1
"3724",0,1,284,1,4,27,"1ceb87b",36,1
"3824",1,1,231,5,5,27,"1ceb87b",37,1
"3924",1,1,455,1,1,27,"1ceb87b",38,1
"4024",1,1,490,4,4,27,"1ceb87b",39,1
"4128",1,1,278,6,6,27,"1ceb87b",40,1
"4226",0,1,772,1,5,27,"1ceb87b",41,1
"4324",0,1,667,1,6,27,"1ceb87b",42,1
"4424",1,1,283,1,1,27,"1ceb87b",43,1
"4524",1,1,361,6,6,27,"1ceb87b",44,1
"4624",0,1,334,1,6,27,"1ceb87b",45,1
"4724",1,1,244,5,5,27,"1ceb87b",46,1
"4824",1,1,341,4,4,27,"1ceb87b",47,1
"4924",0,1,379,1,5,27,"1ceb87b",48,1
"5024",0,1,153,4,1,27,"1ceb87b",49,1
"5128",0,1,748,4,1,27,"1ceb87b",50,1
"5226",1,1,318,5,5,27,"1ceb87b",51,1
"5324",1,1,327,1,1,27,"1ceb87b",52,1
"5424",1,1,628,4,4,27,"1ceb87b",53,1
"5524",0,1,314,5,1,27,"1ceb87b",54,1
"5624",1,1,388,6,6,27,"1ceb87b",55,1
"5724",0,1,621,1,6,27,"1ceb87b",56,1
"5824",1,1,285,1,1,27,"1ceb87b",57,1
"5924",1,1,433,5,5,27,"1ceb87b",58,1
"6024",0,1,1282,1,5,27,"1ceb87b",59,1
"6128",0,0,606,6,6,27,"1ceb87b",60,1
"6226",1,1,262,4,4,27,"1ceb87b",61,1
"6324",0,1,582,6,1,27,"1ceb87b",62,1
"6424",0,1,408,4,1,27,"1ceb87b",63,1
"6524",0,1,225,1,5,27,"1ceb87b",64,1
"6624",1,1,288,6,6,27,"1ceb87b",65,1
"6724",1,0,310,1,4,27,"1ceb87b",66,1
"6824",1,1,320,1,1,27,"1ceb87b",67,1
"6924",1,1,256,5,5,27,"1ceb87b",68,1
"7024",0,1,574,1,6,27,"1ceb87b",69,1
"7124",1,1,85,4,4,27,"1ceb87b",70,1
"2109",1,1,394,1,1,27,"18409f5",1,1
"3109",1,1,310,6,6,27,"18409f5",2,1
"4109",1,0,474,5,1,27,"18409f5",3,1
"5109",0,1,355,1,4,27,"18409f5",4,1
"6109",1,1,455,4,4,27,"18409f5",5,1
"735",0,1,375,1,6,27,"18409f5",6,1
"825",1,1,550,5,5,27,"18409f5",7,1
"925",0,1,391,1,4,27,"18409f5",8,1
"1025",1,1,703,4,4,27,"18409f5",9,1
"1125",0,1,442,1,5,27,"18409f5",10,1
"1225",0,1,348,6,1,27,"18409f5",11,1
"1325",1,1,357,1,1,27,"18409f5",12,1
"1425",1,1,365,5,5,27,"18409f5",13,1
"1525",1,1,396,6,6,27,"18409f5",14,1
"1625",0,1,410,1,6,27,"18409f5",15,1
"1725",-1,-1,0,1,1,27,"18409f5",16,1
"1825",1,0,374,4,1,27,"18409f5",17,1
"1925",1,1,366,6,6,27,"18409f5",18,1
"2025",1,1,387,5,5,27,"18409f5",19,1
"2129",1,0,398,5,1,27,"18409f5",20,1
"2227",1,1,340,4,4,27,"18409f5",21,1
"2325",0,0,319,4,4,27,"18409f5",22,1
"2425",1,1,314,1,1,27,"18409f5",23,1
"2525",0,1,400,1,5,27,"18409f5",24,1
"2625",0,1,329,4,1,27,"18409f5",25,1
"2725",0,1,273,6,1,27,"18409f5",26,1
"2825",1,1,398,5,5,27,"18409f5",27,1
"2925",1,1,372,6,6,27,"18409f5",28,1
"3025",1,1,328,5,5,27,"18409f5",29,1
"3129",0,1,338,1,6,27,"18409f5",30,1
"3227",1,1,377,6,6,27,"18409f5",31,1
"3325",1,1,405,4,4,27,"18409f5",32,1
"3425",0,1,363,1,5,27,"18409f5",33,1
"3525",0,1,306,4,1,27,"18409f5",34,1
"3625",1,1,516,1,1,27,"18409f5",35,1
"3725",0,1,268,5,1,27,"18409f5",36,1
"3825",1,1,472,5,5,27,"18409f5",37,1
"3925",1,1,456,1,1,27,"18409f5",38,1
"4025",1,1,336,4,4,27,"18409f5",39,1
"4129",0,1,324,1,4,27,"18409f5",40,1
"4227",1,1,374,6,6,27,"18409f5",41,1
"4325",0,1,271,1,6,27,"18409f5",42,1
"4425",0,1,273,1,5,27,"18409f5",43,1
"4525",0,1,206,4,1,27,"18409f5",44,1
"4625",1,1,368,5,5,27,"18409f5",45,1
"4725",1,1,280,6,6,27,"18409f5",46,1
"4825",1,1,344,1,1,27,"18409f5",47,1
"4925",0,1,291,1,6,27,"18409f5",48,1
"5025",1,1,308,4,4,27,"18409f5",49,1
"5129",0,1,276,4,1,27,"18409f5",50,1
"5227",0,1,356,5,1,27,"18409f5",51,1
"5325",1,1,231,5,5,27,"18409f5",52,1
"5425",1,1,305,1,1,27,"18409f5",53,1
"5525",0,1,441,6,1,27,"18409f5",54,1
"5625",1,1,259,6,6,27,"18409f5",55,1
"5725",1,1,271,4,4,27,"18409f5",56,1
"5825",1,1,281,6,6,27,"18409f5",57,1
"5925",0,1,72,6,1,27,"18409f5",58,1
"6025",0,1,241,5,1,27,"18409f5",59,1
"6129",1,0,317,4,1,27,"18409f5",60,1
"6227",1,1,340,4,4,27,"18409f5",61,1
"6325",1,1,353,5,5,27,"18409f5",62,1
"6425",1,1,322,1,1,27,"18409f5",63,1
"6525",1,1,266,4,4,27,"18409f5",64,1
"6625",0,1,207,4,1,27,"18409f5",65,1
"6725",0,1,281,1,5,27,"18409f5",66,1
"6825",1,1,262,6,6,27,"18409f5",67,1
"6925",1,1,387,1,1,27,"18409f5",68,1
"7025",0,1,294,6,1,27,"18409f5",69,1
"7125",1,1,218,5,5,27,"18409f5",70,1
"2130",0,0,1895,6,6,27,"10eebb8",1,1
"3130",1,1,656,4,4,27,"10eebb8",2,1
"4130",1,0,606,4,1,27,"10eebb8",3,1
"5130",0,0,587,1,1,27,"10eebb8",4,1
"6130",1,1,1386,5,5,27,"10eebb8",5,1
"736",0,1,707,1,6,27,"10eebb8",6,1
"826",1,0,761,5,1,27,"10eebb8",7,1
"926",0,1,74,1,6,27,"10eebb8",8,1
"1026",-1,-1,0,5,1,27,"10eebb8",9,1
"1126",-1,-1,0,1,1,27,"10eebb8",10,1
"1226",1,1,562,5,5,27,"10eebb8",11,1
"1326",0,0,983,6,6,27,"10eebb8",12,1
"1426",1,1,524,4,4,27,"10eebb8",13,1
"1526",-1,-1,0,4,1,27,"10eebb8",14,1
"1626",1,1,1338,5,5,27,"10eebb8",15,1
"1726",1,1,1869,1,1,27,"10eebb8",16,1
"1826",1,0,487,1,6,27,"10eebb8",17,1
"1926",0,1,532,5,1,27,"10eebb8",18,1
"2026",1,1,1045,6,6,27,"10eebb8",19,1
"2131",0,0,737,4,4,27,"10eebb8",20,1
"2228",0,1,625,4,1,27,"10eebb8",21,1
"2326",0,0,1805,1,1,27,"10eebb8",22,1
"2426",1,1,965,5,5,27,"10eebb8",23,1
"2526",0,1,456,5,1,27,"10eebb8",24,1
"2626",1,1,400,6,6,27,"10eebb8",25,1
"2726",1,1,1225,4,4,27,"10eebb8",26,1
"2826",0,1,1066,1,6,27,"10eebb8",27,1
"2926",0,1,1830,1,4,27,"10eebb8",28,1
"3026",1,0,618,4,1,27,"10eebb8",29,1
"3131",0,1,1576,1,6,27,"10eebb8",30,1
"3228",-1,-1,0,6,6,27,"10eebb8",31,1
"3326",0,1,502,5,1,27,"10eebb8",32,1
"3426",-1,-1,0,1,1,27,"10eebb8",33,1
"3526",0,0,590,4,4,27,"10eebb8",34,1
"3626",1,1,391,5,5,27,"10eebb8",35,1
"3726",-1,-1,0,4,4,27,"10eebb8",36,1
"3826",-1,-1,0,5,5,27,"10eebb8",37,1
"3926",0,1,682,6,1,27,"10eebb8",38,1
"4026",0,1,875,1,4,27,"10eebb8",39,1
"4131",0,0,772,1,1,27,"10eebb8",40,1
"4228",1,1,301,6,6,27,"10eebb8",41,1
"4326",1,0,296,5,1,27,"10eebb8",42,1
"4426",0,1,110,5,1,27,"10eebb8",43,1
"4526",0,1,649,1,6,27,"10eebb8",44,1
"4626",1,1,622,5,5,27,"10eebb8",45,1
"4726",0,0,647,6,6,27,"10eebb8",46,1
"4826",0,0,325,1,1,27,"10eebb8",47,1
"4926",1,0,599,4,1,27,"10eebb8",48,1
"5026",-1,-1,0,4,4,27,"10eebb8",49,1
"5131",0,0,126,6,6,27,"10eebb8",50,1
"5228",1,0,1422,4,1,27,"10eebb8",51,1
"5326",0,0,1645,4,4,27,"10eebb8",52,1
"5426",0,0,986,1,1,27,"10eebb8",53,1
"5526",1,1,660,5,5,27,"10eebb8",54,1
"5626",0,1,397,1,5,27,"10eebb8",55,1
"5726",1,0,410,1,6,27,"10eebb8",56,1
"5826",0,0,455,1,1,27,"10eebb8",57,1
"5926",0,1,285,1,4,27,"10eebb8",58,1
"6026",1,0,545,6,1,27,"10eebb8",59,1
"6131",0,0,376,5,5,27,"10eebb8",60,1
"6228",1,1,464,4,4,27,"10eebb8",61,1
"6326",0,0,693,6,6,27,"10eebb8",62,1
"6426",1,0,600,5,1,27,"10eebb8",63,1
"6526",0,1,595,6,1,27,"10eebb8",64,1
"6626",1,0,459,1,5,27,"10eebb8",65,1
"6726",0,0,597,1,1,27,"10eebb8",66,1
"6826",0,1,433,4,1,27,"10eebb8",67,1
"6926",0,0,307,5,5,27,"10eebb8",68,1
"7026",1,1,379,4,4,27,"10eebb8",69,1
"7126",0,0,615,6,6,27,"10eebb8",70,1
"2132",1,0,748,4,1,27,"1435c1e",1,1
"3132",0,1,448,6,1,27,"1435c1e",2,1
"4132",1,1,514,6,6,27,"1435c1e",3,1
"5132",0,1,323,1,5,27,"1435c1e",4,1
"6132",1,1,300,5,5,27,"1435c1e",5,1
"737",1,1,298,4,4,27,"1435c1e",6,1
"827",1,1,316,1,1,27,"1435c1e",7,1
"927",0,1,279,4,1,27,"1435c1e",8,1
"1027",1,1,232,4,4,27,"1435c1e",9,1
"1127",1,1,281,1,1,27,"1435c1e",10,1
"1227",1,1,230,6,6,27,"1435c1e",11,1
"1327",0,1,326,1,6,27,"1435c1e",12,1
"1427",1,1,320,5,5,27,"1435c1e",13,1
"1527",0,1,283,5,1,27,"1435c1e",14,1
"1627",1,1,287,1,1,27,"1435c1e",15,1
"1727",0,1,263,1,4,27,"1435c1e",16,1
"1827",1,1,330,4,4,27,"1435c1e",17,1
"1927",0,1,363,1,5,27,"1435c1e",18,1
"2027",1,1,403,5,5,27,"1435c1e",19,1
"2133",1,1,307,6,6,27,"1435c1e",20,1
"2229",0,1,533,6,1,27,"1435c1e",21,1
"2327",1,1,304,1,1,27,"1435c1e",22,1
"2427",0,1,353,1,5,27,"1435c1e",23,1
"2527",1,1,669,5,5,27,"1435c1e",24,1
"2627",0,1,377,4,1,27,"1435c1e",25,1
"2727",1,1,419,6,6,27,"1435c1e",26,1
"2827",1,1,334,4,4,27,"1435c1e",27,1
"2927",0,1,296,6,1,27,"1435c1e",28,1
"3027",1,1,363,5,5,27,"1435c1e",29,1
"3133",1,1,374,1,1,27,"1435c1e",30,1
"3229",0,1,386,1,5,27,"1435c1e",31,1
"3327",1,1,349,6,6,27,"1435c1e",32,1
"3427",1,1,434,4,4,27,"1435c1e",33,1
"3527",0,1,285,6,1,27,"1435c1e",34,1
"3627",0,1,271,4,1,27,"1435c1e",35,1
"3727",1,1,305,1,1,27,"1435c1e",36,1
"3827",0,1,362,1,5,27,"1435c1e",37,1
"3927",0,0,611,5,5,27,"1435c1e",38,1
"4027",1,1,431,4,4,27,"1435c1e",39,1
"4133",0,1,369,6,1,27,"1435c1e",40,1
"4229",0,1,1917,4,1,27,"1435c1e",41,1
"4327",1,1,999,6,6,27,"1435c1e",42,1
"4427",0,1,1034,1,6,27,"1435c1e",43,1
"4527",0,1,581,4,1,27,"1435c1e",44,1
"4627",1,1,346,5,5,27,"1435c1e",45,1
"4727",1,1,397,4,4,27,"1435c1e",46,1
"4827",1,1,413,1,1,27,"1435c1e",47,1
"4927",0,1,957,5,1,27,"1435c1e",48,1
"5027",1,1,359,6,6,27,"1435c1e",49,1
"5133",0,1,331,1,6,27,"1435c1e",50,1
"5229",0,1,471,4,1,27,"1435c1e",51,1
"5327",1,1,569,4,4,27,"1435c1e",52,1
"5427",1,1,1669,5,5,27,"1435c1e",53,1
"5527",0,0,1239,1,1,27,"1435c1e",54,1
"5627",0,1,415,5,1,27,"1435c1e",55,1
"5727",1,1,873,6,6,27,"1435c1e",56,1
"5827",0,1,244,4,1,27,"1435c1e",57,1
"5927",1,1,960,1,1,27,"1435c1e",58,1
"6027",0,1,525,6,1,27,"1435c1e",59,1
"6133",1,1,543,4,4,27,"1435c1e",60,1
"6229",1,1,625,6,6,27,"1435c1e",61,1
"6327",1,0,234,1,5,27,"1435c1e",62,1
"6427",1,1,557,5,5,27,"1435c1e",63,1
"6527",1,1,1600,6,6,27,"1435c1e",64,1
"6627",0,1,338,1,6,27,"1435c1e",65,1
"6727",0,1,432,4,1,27,"1435c1e",66,1
"6827",1,1,943,1,1,27,"1435c1e",67,1
"6927",0,0,108,5,5,27,"1435c1e",68,1
"7027",1,1,911,4,4,27,"1435c1e",69,1
"7127",0,1,336,1,5,27,"1435c1e",70,1
"2134",1,0,1446,6,1,27,"1f0d2b1",1,1
"3134",1,1,794,5,5,27,"1f0d2b1",2,1
"4134",1,0,652,1,5,27,"1f0d2b1",3,1
"5134",0,0,644,4,4,27,"1f0d2b1",4,1
"6134",1,1,654,1,1,27,"1f0d2b1",5,1
"738",0,0,648,6,6,27,"1f0d2b1",6,1
"828",0,1,431,4,1,27,"1f0d2b1",7,1
"928",0,1,396,4,1,27,"1f0d2b1",8,1
"1028",0,1,570,5,1,27,"1f0d2b1",9,1
"1128",1,1,316,5,5,27,"1f0d2b1",10,1
"1228",1,1,551,4,4,27,"1f0d2b1",11,1
"1328",1,1,714,6,6,27,"1f0d2b1",12,1
"1428",1,1,411,1,1,27,"1f0d2b1",13,1
"1528",0,1,381,1,6,27,"1f0d2b1",14,1
"1628",0,1,359,4,1,27,"1f0d2b1",15,1
"1728",1,1,385,6,6,27,"1f0d2b1",16,1
"1828",1,1,350,4,4,27,"1f0d2b1",17,1
"1928",0,1,374,1,5,27,"1f0d2b1",18,1
"2028",1,1,412,5,5,27,"1f0d2b1",19,1
"2135",1,1,364,1,1,27,"1f0d2b1",20,1
"2230",0,1,354,1,6,27,"1f0d2b1",21,1
"2328",1,1,303,5,5,27,"1f0d2b1",22,1
"2428",1,1,343,4,4,27,"1f0d2b1",23,1
"2528",1,1,389,6,6,27,"1f0d2b1",24,1
"2628",1,1,321,1,1,27,"1f0d2b1",25,1
"2728",0,1,302,1,4,27,"1f0d2b1",26,1
"2828",0,1,506,6,1,27,"1f0d2b1",27,1
"2928",0,1,282,5,1,27,"1f0d2b1",28,1
"3028",0,1,519,1,5,27,"1f0d2b1",29,1
"3135",0,1,327,1,6,27,"1f0d2b1",30,1
"3230",0,1,309,4,1,27,"1f0d2b1",31,1
"3328",1,1,439,1,1,27,"1f0d2b1",32,1
"3428",1,1,691,6,6,27,"1f0d2b1",33,1
"3528",1,1,391,4,4,27,"1f0d2b1",34,1
"3628",1,1,332,5,5,27,"1f0d2b1",35,1
"3728",1,1,576,4,4,27,"1f0d2b1",36,1
"3828",0,1,336,1,6,27,"1f0d2b1",37,1
"3928",1,1,371,6,6,27,"1f0d2b1",38,1
"4028",0,1,373,1,4,27,"1f0d2b1",39,1
"4135",0,1,329,1,5,27,"1f0d2b1",40,1
"4230",1,1,284,1,1,27,"1f0d2b1",41,1
"4328",1,1,341,5,5,27,"1f0d2b1",42,1
"4428",0,1,363,1,4,27,"1f0d2b1",43,1
"4528",0,1,342,6,1,27,"1f0d2b1",44,1
"4628",0,1,384,1,5,27,"1f0d2b1",45,1
"4728",1,1,283,1,1,27,"1f0d2b1",46,1
"4828",1,1,312,6,6,27,"1f0d2b1",47,1
"4928",1,1,349,4,4,27,"1f0d2b1",48,1
"5028",1,1,337,5,5,27,"1f0d2b1",49,1
"5135",0,1,343,4,1,27,"1f0d2b1",50,1
"5230",1,1,458,1,1,27,"1f0d2b1",51,1
"5328",1,1,391,6,6,27,"1f0d2b1",52,1
"5428",1,1,390,4,4,27,"1f0d2b1",53,1
"5528",0,1,295,1,5,27,"1f0d2b1",54,1
"5628",1,1,316,5,5,27,"1f0d2b1",55,1
"5728",0,1,335,6,1,27,"1f0d2b1",56,1
"5828",1,1,324,6,6,27,"1f0d2b1",57,1
"5928",0,1,483,6,1,27,"1f0d2b1",58,1
"6028",1,1,339,1,1,27,"1f0d2b1",59,1
"6135",1,1,367,4,4,27,"1f0d2b1",60,1
"6230",0,1,473,4,1,27,"1f0d2b1",61,1
"6328",1,1,281,5,5,27,"1f0d2b1",62,1
"6428",0,1,346,5,1,27,"1f0d2b1",63,1
"6528",1,1,274,6,6,27,"1f0d2b1",64,1
"6628",1,1,330,5,5,27,"1f0d2b1",65,1
"6728",1,1,239,4,4,27,"1f0d2b1",66,1
"6828",0,1,459,6,1,27,"1f0d2b1",67,1
"6928",0,1,556,1,5,27,"1f0d2b1",68,1
"7028",0,1,324,4,1,27,"1f0d2b1",69,1
"7128",1,1,337,1,1,27,"1f0d2b1",70,1
"2136",1,1,248,4,4,26,"128df7d",1,2
"3136",1,1,251,2,2,26,"128df7d",2,2
"4136",1,0,281,1,2,26,"128df7d",3,2
"5136",1,1,271,1,1,26,"128df7d",4,2
"6136",1,1,325,3,3,26,"128df7d",5,2
"739",0,1,303,1,3,26,"128df7d",6,2
"829",0,1,406,1,4,26,"128df7d",7,2
"929",0,1,380,3,1,26,"128df7d",8,2
"1029",1,1,345,4,4,26,"128df7d",9,2
"1129",0,1,349,4,1,26,"128df7d",10,2
"1229",0,1,278,2,1,26,"128df7d",11,2
"1329",1,1,288,3,3,26,"128df7d",12,2
"1429",1,1,339,2,2,26,"128df7d",13,2
"1529",1,1,334,1,1,26,"128df7d",14,2
"1629",0,1,294,4,1,26,"128df7d",15,2
"1729",1,1,263,2,2,26,"128df7d",16,2
"1829",0,1,542,3,1,26,"128df7d",17,2
"1929",1,1,265,4,4,26,"128df7d",18,2
"2029",1,1,31,3,3,26,"128df7d",19,2
"2137",1,1,226,1,1,26,"128df7d",20,2
"2231",0,1,296,1,2,26,"128df7d",21,2
"2329",0,1,344,1,3,26,"128df7d",22,2
"2429",1,1,264,4,4,26,"128df7d",23,2
"2529",1,1,627,2,2,26,"128df7d",24,2
"2629",0,1,195,1,4,26,"128df7d",25,2
"2729",1,1,67,1,1,26,"128df7d",26,2
"2829",0,1,258,2,1,26,"128df7d",27,2
"2929",1,1,190,3,3,26,"128df7d",28,2
"3029",0,1,214,4,1,26,"128df7d",29,2
"3137",1,0,219,1,2,26,"128df7d",30,2
"3231",0,1,154,3,1,26,"128df7d",31,2
"3329",1,1,340,1,1,26,"128df7d",32,2
"3429",1,1,324,3,3,26,"128df7d",33,2
"3529",1,1,714,4,4,26,"128df7d",34,2
"3629",1,1,689,2,2,26,"128df7d",35,2
"3729",1,1,335,3,3,26,"128df7d",36,2
"3829",0,1,358,1,4,26,"128df7d",37,2
"3929",1,1,162,1,1,26,"128df7d",38,2
"4029",0,1,328,1,3,26,"128df7d",39,2
"4137",1,1,252,4,4,26,"128df7d",40,2
"4231",0,1,346,1,2,26,"128df7d",41,2
"4329",1,1,296,2,2,26,"128df7d",42,2
"4429",1,1,250,2,2,26,"128df7d",43,2
"4529",0,1,218,1,3,26,"128df7d",44,2
"4629",1,1,272,1,1,26,"128df7d",45,2
"4729",0,1,253,2,1,26,"128df7d",46,2
"4829",1,1,328,4,4,26,"128df7d",47,2
"4929",1,1,300,3,3,26,"128df7d",48,2
"5029",0,1,249,1,4,26,"128df7d",49,2
"5137",1,1,854,3,3,26,"128df7d",50,2
"5231",0,1,281,1,2,26,"128df7d",51,2
"5329",0,1,334,3,1,26,"128df7d",52,2
"5429",0,1,425,1,4,26,"128df7d",53,2
"5529",1,1,335,1,1,26,"128df7d",54,2
"5629",1,1,301,2,2,26,"128df7d",55,2
"5729",1,1,13,4,4,26,"128df7d",56,2
"5829",0,1,403,4,1,26,"128df7d",57,2
"5929",0,1,235,2,1,26,"128df7d",58,2
"6029",1,1,347,3,3,26,"128df7d",59,2
"6137",1,1,278,1,1,26,"128df7d",60,2
"6231",1,1,441,4,4,26,"128df7d",61,2
"6329",0,1,374,1,3,26,"128df7d",62,2
"6429",1,1,235,2,2,26,"128df7d",63,2
"6529",0,1,322,1,4,26,"128df7d",64,2
"6629",1,1,437,2,2,26,"128df7d",65,2
"6729",0,1,401,1,3,26,"128df7d",66,2
"6829",1,1,457,3,3,26,"128df7d",67,2
"6929",0,1,384,2,1,26,"128df7d",68,2
"7029",1,1,457,4,4,26,"128df7d",69,2
"7129",1,1,270,1,1,26,"128df7d",70,2
"7210",0,1,324,3,1,26,"128df7d",71,2
"7310",1,1,327,4,4,26,"128df7d",72,2
"741",1,1,313,2,2,26,"128df7d",73,2
"751",0,1,223,1,4,26,"128df7d",74,2
"761",0,1,359,2,1,26,"128df7d",75,2
"771",1,1,238,3,3,26,"128df7d",76,2
"781",1,1,160,1,1,26,"128df7d",77,2
"791",1,1,299,3,3,26,"128df7d",78,2
"80",0,1,524,4,1,26,"128df7d",79,2
"8110",0,1,293,1,2,26,"128df7d",80,2
"8210",1,1,351,4,4,26,"128df7d",81,2
"831",0,1,274,1,3,26,"128df7d",82,2
"841",1,1,273,2,2,26,"128df7d",83,2
"851",1,1,283,1,1,26,"128df7d",84,2
"861",1,1,374,3,3,26,"128df7d",85,2
"871",0,1,399,1,2,26,"128df7d",86,2
"881",1,1,342,1,1,26,"128df7d",87,2
"891",1,1,469,4,4,26,"128df7d",88,2
"90",0,1,362,4,1,26,"128df7d",89,2
"9110",0,1,123,3,1,26,"128df7d",90,2
"9210",1,1,136,2,2,26,"128df7d",91,2
"931",1,1,225,4,4,26,"128df7d",92,2
"941",0,1,391,1,3,26,"128df7d",93,2
"951",0,1,296,1,4,26,"128df7d",94,2
"961",1,1,167,1,1,26,"128df7d",95,2
"971",1,1,219,3,3,26,"128df7d",96,2
"981",1,1,41,2,2,26,"128df7d",97,2
"991",0,1,337,1,2,26,"128df7d",98,2
"100",0,1,127,3,1,26,"128df7d",99,2
"10110",1,1,256,1,1,26,"128df7d",100,2
"10210",1,1,148,2,2,26,"128df7d",101,2
"1031",0,1,351,2,1,26,"128df7d",102,2
"1041",1,1,226,3,3,26,"128df7d",103,2
"1051",1,1,230,4,4,26,"128df7d",104,2
"1061",0,1,134,4,1,26,"128df7d",105,2
"2138",0,1,276,4,1,27,"65cd4f1",1,2
"3138",0,1,311,3,1,27,"65cd4f1",2,2
"4138",1,1,315,2,2,27,"65cd4f1",3,2
"5138",1,1,331,3,3,27,"65cd4f1",4,2
"6138",1,1,286,1,1,27,"65cd4f1",5,2
"740",0,1,540,1,2,27,"65cd4f1",6,2
"830",1,1,301,4,4,27,"65cd4f1",7,2
"930",0,1,284,3,1,27,"65cd4f1",8,2
"1030",1,1,279,1,1,27,"65cd4f1",9,2
"1130",0,1,243,1,4,27,"65cd4f1",10,2
"1230",1,1,311,3,3,27,"65cd4f1",11,2
"1330",1,1,295,2,2,27,"65cd4f1",12,2
"1430",1,1,273,4,4,27,"65cd4f1",13,2
"1530",1,0,303,1,2,27,"65cd4f1",14,2
"1630",0,1,339,2,1,27,"65cd4f1",15,2
"1730",1,1,299,1,1,27,"65cd4f1",16,2
"1830",0,1,255,4,1,27,"65cd4f1",17,2
"1930",1,1,241,2,2,27,"65cd4f1",18,2
"2030",1,1,275,3,3,27,"65cd4f1",19,2
"2139",1,1,277,4,4,27,"65cd4f1",20,2
"2232",0,1,302,1,3,27,"65cd4f1",21,2
"2330",1,1,273,2,2,27,"65cd4f1",22,2
"2430",1,1,252,3,3,27,"65cd4f1",23,2
"2530",0,1,458,1,4,27,"65cd4f1",24,2
"2630",1,1,289,4,4,27,"65cd4f1",25,2
"2730",0,1,303,3,1,27,"65cd4f1",26,2
"2830",0,1,302,2,1,27,"65cd4f1",27,2
"2930",1,1,306,1,1,27,"65cd4f1",28,2
"3030",1,1,337,2,2,27,"65cd4f1",29,2
"3139",1,1,344,1,1,27,"65cd4f1",30,2
"3232",0,1,251,1,4,27,"65cd4f1",31,2
"3330",1,1,367,3,3,27,"65cd4f1",32,2
"3430",0,1,411,2,1,27,"65cd4f1",33,2
"3530",1,1,331,4,4,27,"65cd4f1",34,2
"3630",0,1,1291,3,1,27,"65cd4f1",35,2
"3730",0,1,322,1,3,27,"65cd4f1",36,2
"3830",0,1,275,1,4,27,"65cd4f1",37,2
"3930",1,0,380,1,2,27,"65cd4f1",38,2
"4030",1,1,291,4,4,27,"65cd4f1",39,2
"4139",1,1,320,1,1,27,"65cd4f1",40,2
"4232",1,1,321,2,2,27,"65cd4f1",41,2
"4330",1,1,220,3,3,27,"65cd4f1",42,2
"4430",1,1,344,4,4,27,"65cd4f1",43,2
"4530",0,1,266,1,4,27,"65cd4f1",44,2
"4630",1,1,350,2,2,27,"65cd4f1",45,2
"4730",1,1,334,1,1,27,"65cd4f1",46,2
"4830",1,1,307,3,3,27,"65cd4f1",47,2
"4930",1,0,286,1,2,27,"65cd4f1",48,2
"5030",0,1,292,3,1,27,"65cd4f1",49,2
"5139",0,0,333,4,4,27,"65cd4f1",50,2
"5232",0,1,317,1,2,27,"65cd4f1",51,2
"5330",0,1,281,1,4,27,"65cd4f1",52,2
"5430",1,1,275,3,3,27,"65cd4f1",53,2
"5530",1,0,304,1,3,27,"65cd4f1",54,2
"5630",1,1,289,2,2,27,"65cd4f1",55,2
"5730",1,1,478,1,1,27,"65cd4f1",56,2
"5830",1,1,1289,1,1,27,"65cd4f1",57,2
"5930",0,1,281,1,4,27,"65cd4f1",58,2
"6030",1,1,243,3,3,27,"65cd4f1",59,2
"6139",0,0,323,4,4,27,"65cd4f1",60,2
"6232",0,1,255,3,1,27,"65cd4f1",61,2
"6330",0,1,211,2,1,27,"65cd4f1",62,2
"6430",1,1,285,2,2,27,"65cd4f1",63,2
"6530",0,1,294,4,1,27,"65cd4f1",64,2
"6630",1,1,274,2,2,27,"65cd4f1",65,2
"6730",0,1,238,3,1,27,"65cd4f1",66,2
"6830",1,1,260,3,3,27,"65cd4f1",67,2
"6930",0,1,289,2,1,27,"65cd4f1",68,2
"7030",1,1,148,1,1,27,"65cd4f1",69,2
"7130",1,1,203,4,4,27,"65cd4f1",70,2
"7211",1,1,237,3,3,27,"65cd4f1",71,2
"7311",0,0,300,2,2,27,"65cd4f1",72,2
"742",1,1,271,4,4,27,"65cd4f1",73,2
"752",0,1,268,1,3,27,"65cd4f1",74,2
"762",0,1,197,1,4,27,"65cd4f1",75,2
"772",0,1,270,1,2,27,"65cd4f1",76,2
"782",1,1,258,1,1,27,"65cd4f1",77,2
"792",0,1,15,4,1,27,"65cd4f1",78,2
"801",1,1,267,2,2,27,"65cd4f1",79,2
"8111",0,1,256,1,3,27,"65cd4f1",80,2
"8211",0,1,199,2,1,27,"65cd4f1",81,2
"832",1,1,299,3,3,27,"65cd4f1",82,2
"842",1,1,317,4,4,27,"65cd4f1",83,2
"852",1,1,244,1,1,27,"65cd4f1",84,2
"862",0,1,298,3,1,27,"65cd4f1",85,2
"872",0,0,358,3,3,27,"65cd4f1",86,2
"882",1,1,167,4,4,27,"65cd4f1",87,2
"892",0,1,211,2,1,27,"65cd4f1",88,2
"901",1,1,256,1,1,27,"65cd4f1",89,2
"9111",1,1,275,2,2,27,"65cd4f1",90,2
"9211",0,1,54,1,4,27,"65cd4f1",91,2
"932",1,1,126,4,4,27,"65cd4f1",92,2
"942",1,1,220,3,3,27,"65cd4f1",93,2
"952",1,1,257,1,1,27,"65cd4f1",94,2
"962",0,1,287,2,1,27,"65cd4f1",95,2
"972",0,1,291,1,3,27,"65cd4f1",96,2
"982",0,1,266,1,4,27,"65cd4f1",97,2
"992",1,1,270,2,2,27,"65cd4f1",98,2
"1001",1,1,238,3,3,27,"65cd4f1",99,2
"10111",0,1,304,2,1,27,"65cd4f1",100,2
"10211",1,1,228,1,1,27,"65cd4f1",101,2
"1032",0,1,264,1,4,27,"65cd4f1",102,2
"1042",1,1,763,2,2,27,"65cd4f1",103,2
"1052",1,0,632,3,1,27,"65cd4f1",104,2
"1062",1,1,210,4,4,27,"65cd4f1",105,2
"2140",1,1,342,3,3,26,"1108ddc",1,2
"3140",1,1,247,2,2,26,"1108ddc",2,2
"4140",1,1,758,4,4,26,"1108ddc",3,2
"5140",1,0,224,1,2,26,"1108ddc",4,2
"6140",0,1,711,1,3,26,"1108ddc",5,2
"743",0,1,454,1,4,26,"1108ddc",6,2
"833",1,1,304,1,1,26,"1108ddc",7,2
"933",1,1,66,4,4,26,"1108ddc",8,2
"1033",-1,0,764,1,1,26,"1108ddc",9,2
"1131",0,1,238,4,1,26,"1108ddc",10,2
"1231",1,1,748,3,3,26,"1108ddc",11,2
"1331",1,1,1279,2,2,26,"1108ddc",12,2
"1431",0,1,682,1,2,26,"1108ddc",13,2
"1531",0,1,438,3,1,26,"1108ddc",14,2
"1631",0,1,424,2,1,26,"1108ddc",15,2
"1731",1,1,1534,1,1,26,"1108ddc",16,2
"1831",1,0,270,4,1,26,"1108ddc",17,2
"1931",1,1,320,4,4,26,"1108ddc",18,2
"2031",0,1,1443,1,3,26,"1108ddc",19,2
"2141",1,1,520,3,3,26,"1108ddc",20,2
"2233",1,1,510,2,2,26,"1108ddc",21,2
"2331",1,1,829,3,3,26,"1108ddc",22,2
"2431",0,1,443,3,1,26,"1108ddc",23,2
"2531",0,1,349,2,1,26,"1108ddc",24,2
"2631",1,1,210,1,1,26,"1108ddc",25,2
"2731",0,1,208,1,4,26,"1108ddc",26,2
"2831",1,1,165,4,4,26,"1108ddc",27,2
"2931",1,1,415,2,2,26,"1108ddc",28,2
"3031",0,1,522,1,4,26,"1108ddc",29,2
"3141",1,1,1197,4,4,26,"1108ddc",30,2
"3233",1,1,624,2,2,26,"1108ddc",31,2
"3331",0,1,509,1,2,26,"1108ddc",32,2
"3431",1,1,535,3,3,26,"1108ddc",33,2
"3531",0,1,757,3,1,26,"1108ddc",34,2
"3631",1,1,328,1,1,26,"1108ddc",35,2
"3731",1,0,777,4,1,26,"1108ddc",36,2
"3831",1,1,557,4,4,26,"1108ddc",37,2
"3931",1,1,326,2,2,26,"1108ddc",38,2
"4031",0,1,305,1,3,26,"1108ddc",39,2
"4141",1,0,547,1,2,26,"1108ddc",40,2
"4233",1,1,473,3,3,26,"1108ddc",41,2
"4331",1,1,350,1,1,26,"1108ddc",42,2
"4431",1,1,299,4,4,26,"1108ddc",43,2
"4531",1,1,416,3,3,26,"1108ddc",44,2
"4631",1,1,355,1,1,26,"1108ddc",45,2
"4731",0,1,590,4,1,26,"1108ddc",46,2
"4831",1,1,1288,2,2,26,"1108ddc",47,2
"4931",0,1,554,1,2,26,"1108ddc",48,2
"5031",0,1,330,3,1,26,"1108ddc",49,2
"5141",0,1,520,3,1,26,"1108ddc",50,2
"5233",1,1,681,2,2,26,"1108ddc",51,2
"5331",0,1,298,4,1,26,"1108ddc",52,2
"5431",1,1,226,4,4,26,"1108ddc",53,2
"5531",1,1,1078,3,3,26,"1108ddc",54,2
"5631",0,1,1530,1,2,26,"1108ddc",55,2
"5731",1,1,975,1,1,26,"1108ddc",56,2
"5831",0,1,1683,1,3,26,"1108ddc",57,2
"5931",0,1,335,2,1,26,"1108ddc",58,2
"6031",1,1,378,1,1,26,"1108ddc",59,2
"6141",1,1,364,4,4,26,"1108ddc",60,2
"6233",1,1,464,2,2,26,"1108ddc",61,2
"6331",0,1,423,1,4,26,"1108ddc",62,2
"6431",1,1,401,3,3,26,"1108ddc",63,2
"6531",0,1,283,1,2,26,"1108ddc",64,2
"6631",0,1,290,3,1,26,"1108ddc",65,2
"6731",0,1,1340,4,1,26,"1108ddc",66,2
"6831",1,1,237,2,2,26,"1108ddc",67,2
"6931",1,1,360,4,4,26,"1108ddc",68,2
"7031",1,1,257,3,3,26,"1108ddc",69,2
"7131",1,1,189,1,1,26,"1108ddc",70,2
"7212",1,1,306,1,1,26,"1108ddc",71,2
"7312",1,1,372,2,2,26,"1108ddc",72,2
"744",0,1,430,2,1,26,"1108ddc",73,2
"753",0,1,389,1,4,26,"1108ddc",74,2
"763",1,1,228,3,3,26,"1108ddc",75,2
"773",1,1,405,4,4,26,"1108ddc",76,2
"783",0,1,323,3,1,26,"1108ddc",77,2
"793",1,1,485,4,4,26,"1108ddc",78,2
"802",0,1,48,4,1,26,"1108ddc",79,2
"8112",0,1,513,1,3,26,"1108ddc",80,2
"8212",1,1,856,3,3,26,"1108ddc",81,2
"834",1,1,520,2,2,26,"1108ddc",82,2
"843",1,1,438,1,1,26,"1108ddc",83,2
"853",0,1,472,1,2,26,"1108ddc",84,2
"863",0,1,559,2,1,26,"1108ddc",85,2
"873",0,1,484,4,1,26,"1108ddc",86,2
"883",1,1,232,3,3,26,"1108ddc",87,2
"893",0,1,341,1,3,26,"1108ddc",88,2
"902",1,1,832,2,2,26,"1108ddc",89,2
"9112",1,1,168,1,1,26,"1108ddc",90,2
"9212",1,1,386,4,4,26,"1108ddc",91,2
"934",1,1,118,3,3,26,"1108ddc",92,2
"943",1,1,450,4,4,26,"1108ddc",93,2
"953",0,1,407,4,1,26,"1108ddc",94,2
"963",1,0,621,2,1,26,"1108ddc",95,2
"973",1,1,201,1,1,26,"1108ddc",96,2
"983",1,1,85,2,2,26,"1108ddc",97,2
"993",0,1,272,1,3,26,"1108ddc",98,2
"1002",0,1,294,1,4,26,"1108ddc",99,2
"10112",0,1,310,1,2,26,"1108ddc",100,2
"10212",1,1,305,2,2,26,"1108ddc",101,2
"1034",1,1,431,3,3,26,"1108ddc",102,2
"1043",1,1,301,1,1,26,"1108ddc",103,2
"1053",0,1,365,3,1,26,"1108ddc",104,2
"1063",1,1,550,4,4,26,"1108ddc",105,2
"2142",1,0,568,1,4,26,"1dd4cfa",1,2
"3142",-1,-1,0,4,4,26,"1dd4cfa",2,2
"4142",1,1,543,3,3,26,"1dd4cfa",3,2
"5142",-1,-1,0,1,1,26,"1dd4cfa",4,2
"6142",1,0,280,2,1,26,"1dd4cfa",5,2
"745",-1,-1,0,3,1,26,"1dd4cfa",6,2
"835",0,0,264,2,2,26,"1dd4cfa",7,2
"935",-1,-1,0,2,2,26,"1dd4cfa",8,2
"1035",0,1,149,3,1,26,"1dd4cfa",9,2
"1132",1,0,13,1,4,26,"1dd4cfa",10,2
"1232",1,1,797,4,4,26,"1dd4cfa",11,2
"1332",-1,-1,0,1,1,26,"1dd4cfa",12,2
"1432",1,1,771,3,3,26,"1dd4cfa",13,2
"1532",-1,-1,0,1,2,26,"1dd4cfa",14,2
"1632",0,0,1008,2,2,26,"1dd4cfa",15,2
"1732",-1,-1,0,2,1,26,"1dd4cfa",16,2
"1832",1,1,1133,4,4,26,"1dd4cfa",17,2
"1932",-1,-1,0,1,4,26,"1dd4cfa",18,2
"2032",1,1,421,3,3,26,"1dd4cfa",19,2
"2143",-1,-1,0,1,3,26,"1dd4cfa",20,2
"2234",1,1,382,1,1,26,"1dd4cfa",21,2
"2332",-1,-1,0,3,3,26,"1dd4cfa",22,2
"2432",0,1,424,1,4,26,"1dd4cfa",23,2
"2532",-1,-1,0,4,4,26,"1dd4cfa",24,2
"2632",0,1,1154,3,1,26,"1dd4cfa",25,2
"2732",-1,-1,0,1,1,26,"1dd4cfa",26,2
"2832",1,0,214,1,2,26,"1dd4cfa",27,2
"2932",-1,-1,0,2,2,26,"1dd4cfa",28,2
"3032",1,1,111,3,3,26,"1dd4cfa",29,2
"3143",-1,-1,0,4,4,26,"1dd4cfa",30,2
"3234",0,1,291,3,1,26,"1dd4cfa",31,2
"3332",-1,-1,0,2,2,26,"1dd4cfa",32,2
"3432",0,1,248,4,1,26,"1dd4cfa",33,2
"3532",-1,-1,0,2,1,26,"1dd4cfa",34,2
"3632",1,1,346,1,1,26,"1dd4cfa",35,2
"3732",-1,-1,0,2,2,26,"1dd4cfa",36,2
"3832",0,1,348,4,1,26,"1dd4cfa",37,2
"3932",-1,-1,0,1,1,26,"1dd4cfa",38,2
"4032",1,1,57,4,4,26,"1dd4cfa",39,2
"4143",-1,-1,0,3,3,26,"1dd4cfa",40,2
"4234",0,1,119,3,1,26,"1dd4cfa",41,2
"4332",-1,-1,0,2,1,26,"1dd4cfa",42,2
"4432",1,1,201,2,2,26,"1dd4cfa",43,2
"4532",-1,-1,0,2,1,26,"1dd4cfa",44,2
"4632",1,1,1079,4,4,26,"1dd4cfa",45,2
"4732",-1,-1,0,1,1,26,"1dd4cfa",46,2
"4832",0,1,112,1,4,26,"1dd4cfa",47,2
"4932",-1,-1,0,3,1,26,"1dd4cfa",48,2
"5032",1,1,958,3,3,26,"1dd4cfa",49,2
"5143",-1,-1,0,3,3,26,"1dd4cfa",50,2
"5234",1,1,235,2,2,26,"1dd4cfa",51,2
"5332",-1,-1,0,1,1,26,"1dd4cfa",52,2
"5432",0,1,93,2,1,26,"1dd4cfa",53,2
"5532",-1,-1,0,1,3,26,"1dd4cfa",54,2
"5632",0,1,314,4,1,26,"1dd4cfa",55,2
"5732",-1,-1,0,4,4,26,"1dd4cfa",56,2
"5832",0,1,802,4,1,26,"1dd4cfa",57,2
"5932",-1,-1,0,3,3,26,"1dd4cfa",58,2
"6032",1,0,938,1,2,26,"1dd4cfa",59,2
"6143",-1,-1,0,4,4,26,"1dd4cfa",60,2
"6234",1,1,672,2,2,26,"1dd4cfa",61,2
"6332",-1,-1,0,3,1,26,"1dd4cfa",62,2
"6432",1,1,703,1,1,26,"1dd4cfa",63,2
"6532",-1,-1,0,1,4,26,"1dd4cfa",64,2
"6632",0,1,643,3,1,26,"1dd4cfa",65,2
"6732",-1,-1,0,4,4,26,"1dd4cfa",66,2
"6832",1,1,135,2,2,26,"1dd4cfa",67,2
"6932",-1,-1,0,1,2,26,"1dd4cfa",68,2
"7032",1,1,182,3,3,26,"1dd4cfa",69,2
"7132",-1,-1,0,1,1,26,"1dd4cfa",70,2
"7213",0,1,401,3,1,26,"1dd4cfa",71,2
"7313",-1,-1,0,1,1,26,"1dd4cfa",72,2
"746",1,1,277,2,2,26,"1dd4cfa",73,2
"754",-1,-1,0,3,3,26,"1dd4cfa",74,2
"764",1,1,653,4,4,26,"1dd4cfa",75,2
"774",-1,-1,0,1,4,26,"1dd4cfa",76,2
"784",0,1,780,2,1,26,"1dd4cfa",77,2
"794",-1,-1,0,4,4,26,"1dd4cfa",78,2
"803",0,1,133,4,1,26,"1dd4cfa",79,2
"8113",1,0,23,1,3,26,"1dd4cfa",80,2
"8213",1,1,817,3,3,26,"1dd4cfa",81,2
"836",-1,-1,0,1,2,26,"1dd4cfa",82,2
"844",1,1,842,1,1,26,"1dd4cfa",83,2
"854",-1,-1,0,2,2,26,"1dd4cfa",84,2
"864",0,0,1043,2,2,26,"1dd4cfa",85,2
"874",-1,-1,0,3,3,26,"1dd4cfa",86,2
"884",1,0,87,1,3,26,"1dd4cfa",87,2
"894",-1,-1,0,1,1,26,"1dd4cfa",88,2
"903",1,0,1104,4,1,26,"1dd4cfa",89,2
"9113",-1,-1,0,4,4,26,"1dd4cfa",90,2
"9213",-1,-1,0,2,1,26,"1dd4cfa",91,2
"936",-1,-1,0,2,1,26,"1dd4cfa",92,2
"944",1,1,328,3,3,26,"1dd4cfa",93,2
"954",-1,-1,0,4,4,26,"1dd4cfa",94,2
"964",1,1,1096,2,2,26,"1dd4cfa",95,2
"974",-1,-1,0,1,1,26,"1dd4cfa",96,2
"984",0,1,961,4,1,26,"1dd4cfa",97,2
"994",-1,-1,0,3,1,26,"1dd4cfa",98,2
"1003",0,1,753,1,3,26,"1dd4cfa",99,2
"10113",-1,-1,0,1,2,26,"1dd4cfa",100,2
"10213",0,1,996,4,1,26,"1dd4cfa",101,2
"1036",-1,-1,0,2,2,26,"1dd4cfa",102,2
"1044",1,1,694,1,1,26,"1dd4cfa",103,2
"1054",-1,-1,0,3,3,26,"1dd4cfa",104,2
"1064",1,1,1057,4,4,26,"1dd4cfa",105,2
"2144",1,1,319,4,4,27,"1135ce2",1,2
"3144",1,1,257,3,3,27,"1135ce2",2,2
"4144",0,1,310,3,1,27,"1135ce2",3,2
"5144",1,0,299,2,1,27,"1135ce2",4,2
"6144",0,1,321,4,1,27,"1135ce2",5,2
"747",1,1,286,2,2,27,"1135ce2",6,2
"837",1,1,259,1,1,27,"1135ce2",7,2
"937",1,1,360,2,2,27,"1135ce2",8,2
"1037",0,1,278,3,1,27,"1135ce2",9,2
"1133",0,1,235,1,2,27,"1135ce2",10,2
"1233",1,1,160,1,1,27,"1135ce2",11,2
"1333",1,1,214,3,3,27,"1135ce2",12,2
"1433",0,1,340,4,1,27,"1135ce2",13,2
"1533",1,1,392,4,4,27,"1135ce2",14,2
"1633",1,1,317,2,2,27,"1135ce2",15,2
"1733",1,1,323,3,3,27,"1135ce2",16,2
"1833",1,1,288,4,4,27,"1135ce2",17,2
"1933",1,1,1030,1,1,27,"1135ce2",18,2
"2033",0,1,275,1,4,27,"1135ce2",19,2
"2145",0,1,272,3,1,27,"1135ce2",20,2
"2235",0,1,302,2,1,27,"1135ce2",21,2
"2333",1,1,251,4,4,27,"1135ce2",22,2
"2433",1,1,289,1,1,27,"1135ce2",23,2
"2533",0,1,278,1,2,27,"1135ce2",24,2
"2633",0,1,395,1,4,27,"1135ce2",25,2
"2733",1,1,295,3,3,27,"1135ce2",26,2
"2833",1,1,237,2,2,27,"1135ce2",27,2
"2933",0,1,131,1,3,27,"1135ce2",28,2
"3033",1,1,152,3,3,27,"1135ce2",29,2
"3145",1,1,246,4,4,27,"1135ce2",30,2
"3235",0,1,235,1,4,27,"1135ce2",31,2
"3333",0,1,65,2,1,27,"1135ce2",32,2
"3433",1,1,397,2,2,27,"1135ce2",33,2
"3533",1,1,371,1,1,27,"1135ce2",34,2
"3633",0,1,272,3,1,27,"1135ce2",35,2
"3733",0,1,293,2,1,27,"1135ce2",36,2
"3833",1,1,235,2,2,27,"1135ce2",37,2
"3933",0,1,344,1,4,27,"1135ce2",38,2
"4033",1,1,294,1,1,27,"1135ce2",39,2
"4145",0,1,243,1,3,27,"1135ce2",40,2
"4235",1,1,297,3,3,27,"1135ce2",41,2
"4333",1,1,303,4,4,27,"1135ce2",42,2
"4433",0,1,284,1,4,27,"1135ce2",43,2
"4533",1,1,858,1,1,27,"1135ce2",44,2
"4633",1,1,416,3,3,27,"1135ce2",45,2
"4733",1,1,277,4,4,27,"1135ce2",46,2
"4833",1,1,115,2,2,27,"1135ce2",47,2
"4933",0,1,392,3,1,27,"1135ce2",48,2
"5033",0,1,405,1,2,27,"1135ce2",49,2
"5145",1,1,195,4,4,27,"1135ce2",50,2
"5235",1,1,320,1,1,27,"1135ce2",51,2
"5333",0,1,446,3,1,27,"1135ce2",52,2
"5433",1,1,243,2,2,27,"1135ce2",53,2
"5533",0,1,320,1,2,27,"1135ce2",54,2
"5633",0,1,462,1,4,27,"1135ce2",55,2
"5733",1,1,291,3,3,27,"1135ce2",56,2
"5833",0,1,65,2,1,27,"1135ce2",57,2
"5933",1,1,254,3,3,27,"1135ce2",58,2
"6033",1,1,180,4,4,27,"1135ce2",59,2
"6145",0,1,258,1,4,27,"1135ce2",60,2
"6235",1,1,287,2,2,27,"1135ce2",61,2
"6333",0,1,77,1,3,27,"1135ce2",62,2
"6433",1,1,274,1,1,27,"1135ce2",63,2
"6533",1,1,216,1,1,27,"1135ce2",64,2
"6633",0,1,181,1,3,27,"1135ce2",65,2
"6733",0,1,658,1,2,27,"1135ce2",66,2
"6833",0,1,288,4,1,27,"1135ce2",67,2
"6933",1,1,189,2,2,27,"1135ce2",68,2
"7033",1,1,395,4,4,27,"1135ce2",69,2
"7133",1,1,768,3,3,27,"1135ce2",70,2
"7214",0,1,198,4,1,27,"1135ce2",71,2
"7314",1,1,570,1,1,27,"1135ce2",72,2
"748",1,1,440,3,3,27,"1135ce2",73,2
"755",1,1,413,2,2,27,"1135ce2",74,2
"765",0,1,267,2,1,27,"1135ce2",75,2
"775",0,1,96,1,3,27,"1135ce2",76,2
"785",1,1,222,4,4,27,"1135ce2",77,2
"795",0,1,459,1,3,27,"1135ce2",78,2
"804",0,1,217,4,1,27,"1135ce2",79,2
"8114",1,1,494,3,3,27,"1135ce2",80,2
"8214",0,1,12,2,1,27,"1135ce2",81,2
"838",1,1,249,1,1,27,"1135ce2",82,2
"845",1,1,247,4,4,27,"1135ce2",83,2
"855",1,1,356,2,2,27,"1135ce2",84,2
"865",1,1,282,2,2,27,"1135ce2",85,2
"875",1,1,279,3,3,27,"1135ce2",86,2
"885",0,1,293,4,1,27,"1135ce2",87,2
"895",0,1,298,3,1,27,"1135ce2",88,2
"904",1,1,248,1,1,27,"1135ce2",89,2
"9114",0,1,261,1,2,27,"1135ce2",90,2
"9214",1,1,339,4,4,27,"1135ce2",91,2
"938",0,1,1032,1,2,27,"1135ce2",92,2
"945",1,1,317,3,3,27,"1135ce2",93,2
"955",0,1,267,3,1,27,"1135ce2",94,2
"965",1,1,352,1,1,27,"1135ce2",95,2
"975",0,1,245,1,4,27,"1135ce2",96,2
"985",1,1,267,2,2,27,"1135ce2",97,2
"995",1,1,264,4,4,27,"1135ce2",98,2
"1004",0,1,382,1,4,27,"1135ce2",99,2
"10114",1,1,203,4,4,27,"1135ce2",100,2
"10214",0,1,281,2,1,27,"1135ce2",101,2
"1038",0,1,454,1,3,27,"1135ce2",102,2
"1045",1,1,436,2,2,27,"1135ce2",103,2
"1055",1,1,265,3,3,27,"1135ce2",104,2
"1065",1,1,319,1,1,27,"1135ce2",105,2
"2146",1,0,301,1,3,26,"189ce44",1,2
"3146",1,1,381,4,4,26,"189ce44",2,2
"4146",0,1,822,2,1,26,"189ce44",3,2
"5146",0,1,450,4,1,26,"189ce44",4,2
"6146",1,1,420,2,2,26,"189ce44",5,2
"749",1,1,438,3,3,26,"189ce44",6,2
"839",1,1,394,1,1,26,"189ce44",7,2
"939",0,1,591,1,4,26,"189ce44",8,2
"1039",1,1,400,4,4,26,"189ce44",9,2
"1134",1,0,649,1,2,26,"189ce44",10,2
"1234",0,1,293,3,1,26,"189ce44",11,2
"1334",1,1,513,2,2,26,"189ce44",12,2
"1434",1,1,244,3,3,26,"189ce44",13,2
"1534",1,1,684,1,1,26,"189ce44",14,2
"1634",1,0,306,1,3,26,"189ce44",15,2
"1734",1,1,325,1,1,26,"189ce44",16,2
"1834",1,0,478,1,4,26,"189ce44",17,2
"1934",0,1,680,2,1,26,"189ce44",18,2
"2034",1,1,747,3,3,26,"189ce44",19,2
"2147",1,1,1120,4,4,26,"189ce44",20,2
"2236",1,1,561,2,2,26,"189ce44",21,2
"2334",1,1,239,4,4,26,"189ce44",22,2
"2434",1,0,596,1,3,26,"189ce44",23,2
"2534",1,1,824,2,2,26,"189ce44",24,2
"2634",1,0,553,1,4,26,"189ce44",25,2
"2734",1,0,693,1,2,26,"189ce44",26,2
"2834",1,1,359,1,1,26,"189ce44",27,2
"2934",1,1,1710,3,3,26,"189ce44",28,2
"3034",1,0,508,3,1,26,"189ce44",29,2
"3147",1,1,759,3,3,26,"189ce44",30,2
"3236",0,0,1106,1,1,26,"189ce44",31,2
"3334",0,0,351,4,4,26,"189ce44",32,2
"3434",0,1,272,4,1,26,"189ce44",33,2
"3534",1,0,222,1,2,26,"189ce44",34,2
"3634",1,1,536,2,2,26,"189ce44",35,2
"3734",1,1,999,3,3,26,"189ce44",36,2
"3834",1,1,477,1,1,26,"189ce44",37,2
"3934",0,1,1350,1,4,26,"189ce44",38,2
"4034",1,1,357,4,4,26,"189ce44",39,2
"4147",1,0,372,1,2,26,"189ce44",40,2
"4236",1,0,474,3,1,26,"189ce44",41,2
"4334",0,0,408,2,2,26,"189ce44",42,2
"4434",1,1,1142,2,2,26,"189ce44",43,2
"4534",0,1,873,1,2,26,"189ce44",44,2
"4634",0,1,508,4,1,26,"189ce44",45,2
"4734",0,1,668,1,3,26,"189ce44",46,2
"4834",0,0,687,1,1,26,"189ce44",47,2
"4934",1,1,368,3,3,26,"189ce44",48,2
"5034",1,1,560,4,4,26,"189ce44",49,2
"5147",1,1,324,1,1,26,"189ce44",50,2
"5236",1,1,376,2,2,26,"189ce44",51,2
"5334",1,1,843,4,4,26,"189ce44",52,2
"5434",1,1,321,3,3,26,"189ce44",53,2
"5534",0,1,290,4,1,26,"189ce44",54,2
"5634",0,1,290,3,1,26,"189ce44",55,2
"5734",1,0,232,2,1,26,"189ce44",56,2
"5834",1,0,354,1,2,26,"189ce44",57,2
"5934",1,1,551,3,3,26,"189ce44",58,2
"6034",1,1,443,2,2,26,"189ce44",59,2
"6147",0,1,277,1,4,26,"189ce44",60,2
"6236",1,1,370,1,1,26,"189ce44",61,2
"6334",0,1,1743,1,3,26,"189ce44",62,2
"6434",1,1,1430,4,4,26,"189ce44",63,2
"6534",0,0,347,4,4,26,"189ce44",64,2
"6634",0,1,299,1,4,26,"189ce44",65,2
"6734",0,0,719,3,3,26,"189ce44",66,2
"6834",1,0,466,1,3,26,"189ce44",67,2
"6934",0,1,1210,1,2,26,"189ce44",68,2
"7034",1,1,297,2,2,26,"189ce44",69,2
"7134",1,1,416,1,1,26,"189ce44",70,2
"7215",0,1,929,1,2,26,"189ce44",71,2
"7315",1,1,360,3,3,26,"189ce44",72,2
"7410",1,1,280,2,2,26,"189ce44",73,2
"756",0,0,289,1,1,26,"189ce44",74,2
"766",0,1,480,4,1,26,"189ce44",75,2
"776",1,1,918,4,4,26,"189ce44",76,2
"786",0,1,284,1,3,26,"189ce44",77,2
"796",1,1,786,1,1,26,"189ce44",78,2
"805",1,1,324,2,2,26,"189ce44",79,2
"8115",0,1,233,1,4,26,"189ce44",80,2
"8215",0,1,481,3,1,26,"189ce44",81,2
"8310",0,1,392,2,1,26,"189ce44",82,2
"846",1,1,314,3,3,26,"189ce44",83,2
"856",1,1,379,4,4,26,"189ce44",84,2
"866",1,1,664,2,2,26,"189ce44",85,2
"876",1,1,284,1,1,26,"189ce44",86,2
"886",0,1,213,4,1,26,"189ce44",87,2
"896",1,1,251,4,4,26,"189ce44",88,2
"905",0,1,332,2,1,26,"189ce44",89,2
"9115",0,1,334,1,3,26,"189ce44",90,2
"9215",1,1,316,3,3,26,"189ce44",91,2
"9310",0,1,500,1,3,26,"189ce44",92,2
"946",0,1,416,2,1,26,"189ce44",93,2
"956",1,1,233,2,2,26,"189ce44",94,2
"966",1,1,532,4,4,26,"189ce44",95,2
"976",0,1,398,1,4,26,"189ce44",96,2
"986",1,1,338,1,1,26,"189ce44",97,2
"996",1,1,396,3,3,26,"189ce44",98,2
"1005",0,1,293,3,1,26,"189ce44",99,2
"10115",1,1,249,1,1,26,"189ce44",100,2
"10215",1,1,447,3,3,26,"189ce44",101,2
"10310",1,1,505,4,4,26,"189ce44",102,2
"1046",1,1,276,2,2,26,"189ce44",103,2
"1056",0,1,244,4,1,26,"189ce44",104,2
"1066",0,1,305,1,2,26,"189ce44",105,2
"2148",1,1,481,2,2,27,"asdiffe",1,2
"3148",1,1,332,3,3,27,"asdiffe",2,2
"4148",1,1,429,1,1,27,"asdiffe",3,2
"5148",1,0,468,2,1,27,"asdiffe",4,2
"6148",0,1,435,4,1,27,"asdiffe",5,2
"750",1,0,450,3,1,27,"asdiffe",6,2
"840",0,0,761,4,4,27,"asdiffe",7,2
"940",1,1,349,2,2,27,"asdiffe",8,2
"1040",1,0,410,3,1,27,"asdiffe",9,2
"1135",1,1,380,4,4,27,"asdiffe",10,2
"1235",1,0,661,2,1,27,"asdiffe",11,2
"1335",0,1,289,4,1,27,"asdiffe",12,2
"1435",1,1,373,3,3,27,"asdiffe",13,2
"1535",1,1,332,1,1,27,"asdiffe",14,2
"1635",1,1,295,3,3,27,"asdiffe",15,2
"1735",1,1,278,4,4,27,"asdiffe",16,2
"1835",1,1,337,2,2,27,"asdiffe",17,2
"1935",1,1,375,1,1,27,"asdiffe",18,2
"2035",0,1,309,4,1,27,"asdiffe",19,2
"2149",0,1,263,1,3,27,"asdiffe",20,2
"2237",0,1,310,1,2,27,"asdiffe",21,2
"2335",1,1,464,2,2,27,"asdiffe",22,2
"2435",0,1,293,4,1,27,"asdiffe",23,2
"2535",0,1,349,2,1,27,"asdiffe",24,2
"2635",0,1,337,1,3,27,"asdiffe",25,2
"2735",1,1,335,1,1,27,"asdiffe",26,2
"2835",1,1,357,3,3,27,"asdiffe",27,2
"2935",1,1,238,4,4,27,"asdiffe",28,2
"3035",1,1,268,1,1,27,"asdiffe",29,2
"3149",1,1,596,4,4,27,"asdiffe",30,2
"3237",0,1,419,4,1,27,"asdiffe",31,2
"3335",0,1,267,1,2,27,"asdiffe",32,2
"3435",1,1,325,2,2,27,"asdiffe",33,2
"3535",0,1,401,1,3,27,"asdiffe",34,2
"3635",1,1,337,3,3,27,"asdiffe",35,2
"3735",0,1,310,2,1,27,"asdiffe",36,2
"3835",1,1,1117,4,4,27,"asdiffe",37,2
"3935",1,1,1888,1,1,27,"asdiffe",38,2
"4035",0,1,322,1,4,27,"asdiffe",39,2
"4149",1,1,366,2,2,27,"asdiffe",40,2
"4237",1,0,203,3,1,27,"asdiffe",41,2
"4335",1,1,393,3,3,27,"asdiffe",42,2
"4435",0,1,405,3,1,27,"asdiffe",43,2
"4535",0,1,1896,1,2,27,"asdiffe",44,2
"4635",1,1,347,2,2,27,"asdiffe",45,2
"4735",0,1,276,1,4,27,"asdiffe",46,2
"4835",1,1,254,4,4,27,"asdiffe",47,2
"4935",1,1,277,1,1,27,"asdiffe",48,2
"5035",1,1,287,3,3,27,"asdiffe",49,2
"5149",1,1,1122,1,1,27,"asdiffe",50,2
"5237",0,1,307,1,2,27,"asdiffe",51,2
"5335",1,1,665,2,2,27,"asdiffe",52,2
"5435",0,1,308,3,1,27,"asdiffe",53,2
"5535",1,1,397,4,4,27,"asdiffe",54,2
"5635",1,1,269,3,3,27,"asdiffe",55,2
"5735",0,1,386,1,4,27,"asdiffe",56,2
"5835",1,1,353,2,2,27,"asdiffe",57,2
"5935",1,1,339,1,1,27,"asdiffe",58,2
"6035",1,1,228,4,4,27,"asdiffe",59,2
"6149",0,1,444,1,2,27,"asdiffe",60,2
"6237",0,1,528,3,1,27,"asdiffe",61,2
"6335",1,1,269,3,3,27,"asdiffe",62,2
"6435",0,1,521,4,1,27,"asdiffe",63,2
"6535",1,1,249,2,2,27,"asdiffe",64,2
"6635",1,1,282,4,4,27,"asdiffe",65,2
"6735",1,1,272,1,1,27,"asdiffe",66,2
"6835",1,1,399,3,3,27,"asdiffe",67,2
"6935",0,1,563,1,4,27,"asdiffe",68,2
"7035",0,1,306,2,1,27,"asdiffe",69,2
"7135",0,1,424,1,3,27,"asdiffe",70,2
"7216",0,1,425,1,3,27,"asdiffe",71,2
"7316",1,1,334,4,4,27,"asdiffe",72,2
