"","keys","accuracy","rt","Fimg","Simg","feature_index","subID","trialNum","run"
"2",1,1,756,5,5,2,"1fff5f7",1,1
"3",1,1,321,3,3,2,"1fff5f7",2,1
"4",1,1,299,6,6,2,"1fff5f7",3,1
"5",1,1,515,4,4,2,"1fff5f7",4,1
"6",1,0,330,1,5,2,"1fff5f7",5,1
"7",1,1,298,2,2,2,"1fff5f7",6,1
"8",1,1,282,1,1,2,"1fff5f7",7,1
"9",1,0,294,1,4,2,"1fff5f7",8,1
"10",1,0,309,1,6,2,"1fff5f7",9,1
"11",0,1,284,3,1,2,"1fff5f7",10,1
"12",1,0,276,1,2,2,"1fff5f7",11,1
"13",1,1,283,5,5,2,"1fff5f7",12,1
"14",1,0,260,1,5,2,"1fff5f7",13,1
"15",0,0,284,6,6,2,"1fff5f7",14,1
"16",0,1,237,1,3,2,"1fff5f7",15,1
"17",1,1,257,1,1,2,"1fff5f7",16,1
"18",1,1,258,2,2,2,"1fff5f7",17,1
"19",0,1,259,1,2,2,"1fff5f7",18,1
"20",1,0,268,6,1,2,"1fff5f7",19,1
"21",0,1,289,1,4,2,"1fff5f7",20,1
"22",0,0,283,4,4,2,"1fff5f7",21,1
"23",0,0,281,3,3,2,"1fff5f7",22,1
"24",1,1,293,6,6,2,"1fff5f7",23,1
"25",0,0,307,5,5,2,"1fff5f7",24,1
"26",0,1,244,1,4,2,"1fff5f7",25,1
"27",1,1,239,1,1,2,"1fff5f7",26,1
"28",0,1,264,5,1,2,"1fff5f7",27,1
"29",0,1,267,1,2,2,"1fff5f7",28,1
"30",0,0,302,3,3,2,"1fff5f7",29,1
"31",1,1,284,4,4,2,"1fff5f7",30,1
"32",0,1,289,1,6,2,"1fff5f7",31,1
"33",1,1,261,2,2,2,"1fff5f7",32,1
"34",1,0,256,1,3,2,"1fff5f7",33,1
"35",1,1,290,4,4,2,"1fff5f7",34,1
"36",0,0,279,2,2,2,"1fff5f7",35,1
"37",1,1,259,1,1,2,"1fff5f7",36,1
"38",1,0,264,2,1,2,"1fff5f7",37,1
"39",0,1,196,4,1,2,"1fff5f7",38,1
"40",0,1,263,1,5,2,"1fff5f7",39,1
"41",1,0,673,3,1,2,"1fff5f7",40,1
"42",0,0,222,3,3,2,"1fff5f7",41,1
"43",1,1,237,6,6,2,"1fff5f7",42,1
"44",1,1,176,5,5,2,"1fff5f7",43,1
"45",0,1,252,6,1,2,"1fff5f7",44,1
"46",0,0,275,5,5,2,"1fff5f7",45,1
"47",1,0,259,2,1,2,"1fff5f7",46,1
"48",1,1,266,1,1,2,"1fff5f7",47,1
"49",1,1,254,6,6,2,"1fff5f7",48,1
"50",1,1,257,3,3,2,"1fff5f7",49,1
"51",0,0,376,2,2,2,"1fff5f7",50,1
"52",1,0,262,5,1,2,"1fff5f7",51,1
"53",0,1,263,1,6,2,"1fff5f7",52,1
"54",0,1,394,1,4,2,"1fff5f7",53,1
"55",0,1,273,1,3,2,"1fff5f7",54,1
"56",0,0,324,4,4,2,"1fff5f7",55,1
"57",1,1,259,5,5,2,"1fff5f7",56,1
"58",1,0,391,1,2,2,"1fff5f7",57,1
"59",0,0,280,2,2,2,"1fff5f7",58,1
"60",1,0,270,1,6,2,"1fff5f7",59,1
"61",1,1,254,4,4,2,"1fff5f7",60,1
"62",0,1,274,4,1,2,"1fff5f7",61,1
"63",0,1,244,1,3,2,"1fff5f7",62,1
"64",0,0,258,1,1,2,"1fff5f7",63,1
"65",1,1,284,6,6,2,"1fff5f7",64,1
"66",0,1,289,5,1,2,"1fff5f7",65,1
"67",0,0,254,3,3,2,"1fff5f7",66,1
"68",1,0,200,1,5,2,"1fff5f7",67,1
"69",0,1,314,1,2,2,"1fff5f7",68,1
"70",0,0,269,1,1,2,"1fff5f7",69,1
"71",1,0,181,4,1,2,"1fff5f7",70,1
"72",0,0,297,5,5,2,"1fff5f7",71,1
"73",0,1,246,1,6,2,"1fff5f7",72,1
"74",1,1,278,3,3,2,"1fff5f7",73,1
"75",0,0,212,4,4,2,"1fff5f7",74,1
"76",1,1,264,2,2,2,"1fff5f7",75,1
"77",1,0,718,1,3,2,"1fff5f7",76,1
"78",0,0,283,6,6,2,"1fff5f7",77,1
"210",1,0,439,1,4,1,"157c196",1,1
"310",1,0,319,6,1,1,"157c196",2,1
"410",1,1,390,3,3,1,"157c196",3,1
"510",0,0,270,1,1,1,"157c196",4,1
"610",1,1,362,4,4,1,"157c196",5,1
"79",1,1,992,5,5,1,"157c196",6,1
"81",1,1,338,6,6,1,"157c196",7,1
"91",1,0,559,5,1,1,"157c196",8,1
"101",0,0,283,2,2,1,"157c196",9,1
"111",0,1,398,1,2,1,"157c196",10,1
"121",0,1,739,1,3,1,"157c196",11,1
"131",0,1,256,1,6,1,"157c196",12,1
"141",1,1,455,3,3,1,"157c196",13,1
"151",1,1,307,1,1,1,"157c196",14,1
"161",0,1,1922,1,4,1,"157c196",15,1
"171",1,1,889,6,6,1,"157c196",16,1
"181",1,1,294,4,4,1,"157c196",17,1
"191",0,1,956,1,3,1,"157c196",18,1
"201",1,1,860,5,5,1,"157c196",19,1
"211",1,1,328,2,2,1,"157c196",20,1
"221",0,1,860,1,2,1,"157c196",21,1
"231",0,1,1015,5,1,1,"157c196",22,1
"241",0,0,322,4,4,1,"157c196",23,1
"251",1,0,480,6,1,1,"157c196",24,1
"261",0,0,841,1,1,1,"157c196",25,1
"271",1,0,762,4,1,1,"157c196",26,1
"281",1,1,288,3,3,1,"157c196",27,1
"291",0,1,1532,1,3,1,"157c196",28,1
"301",0,0,257,5,5,1,"157c196",29,1
"311",1,1,298,2,2,1,"157c196",30,1
"321",1,0,490,2,1,1,"157c196",31,1
"331",1,1,256,6,6,1,"157c196",32,1
"341",0,1,1232,1,5,1,"157c196",33,1
"351",0,1,400,2,1,1,"157c196",34,1
"361",0,1,1189,1,3,1,"157c196",35,1
"371",-1,-1,0,5,5,1,"157c196",36,1
"381",-1,-1,0,2,2,1,"157c196",37,1
"391",-1,-1,0,3,3,1,"157c196",38,1
"401",-1,-1,0,4,1,1,"157c196",39,1
"411",-1,-1,0,1,5,1,"157c196",40,1
"421",1,0,480,6,1,1,"157c196",41,1
"431",0,0,334,6,6,1,"157c196",42,1
"441",1,1,302,4,4,1,"157c196",43,1
"451",1,1,496,1,1,1,"157c196",44,1
"461",0,1,328,1,2,1,"157c196",45,1
"471",1,1,296,6,6,1,"157c196",46,1
"481",1,1,280,1,1,1,"157c196",47,1
"491",1,0,338,3,1,1,"157c196",48,1
"501",1,1,392,2,2,1,"157c196",49,1
"511",0,0,271,4,4,1,"157c196",50,1
"521",1,0,1004,1,6,1,"157c196",51,1
"531",0,1,258,1,5,1,"157c196",52,1
"541",1,1,294,3,3,1,"157c196",53,1
"551",0,0,299,5,5,1,"157c196",54,1
"561",0,1,279,1,4,1,"157c196",55,1
"571",0,1,303,2,1,1,"157c196",56,1
"581",1,1,285,4,4,1,"157c196",57,1
"591",0,1,285,3,1,1,"157c196",58,1
"601",1,0,274,4,1,1,"157c196",59,1
"611",1,1,375,3,3,1,"157c196",60,1
"621",1,1,407,2,2,1,"157c196",61,1
"631",1,1,257,1,1,1,"157c196",62,1
"641",1,1,280,5,5,1,"157c196",63,1
"651",1,1,240,6,6,1,"157c196",64,1
"661",0,1,261,1,5,1,"157c196",65,1
"671",0,1,337,1,6,1,"157c196",66,1
"681",1,0,1281,1,5,1,"157c196",67,1
"691",1,1,402,5,5,1,"157c196",68,1
"701",1,0,342,2,1,1,"157c196",69,1
"711",0,1,482,1,4,1,"157c196",70,1
"721",1,0,286,1,3,1,"157c196",71,1
"731",1,0,323,1,6,1,"157c196",72,1
"741",0,0,289,2,2,1,"157c196",73,1
"751",1,1,606,1,1,1,"157c196",74,1
"761",1,1,301,4,4,1,"157c196",75,1
"771",1,1,474,6,6,1,"157c196",76,1
"781",1,1,589,3,3,1,"157c196",77,1
"212",1,1,1342,6,6,3,"c8b40ae",1,1
"312",1,0,602,5,1,3,"c8b40ae",2,1
"412",0,0,425,2,2,3,"c8b40ae",3,1
"512",0,0,568,5,5,3,"c8b40ae",4,1
"612",1,1,448,3,3,3,"c8b40ae",5,1
"710",1,1,339,1,1,3,"c8b40ae",6,1
"82",0,0,398,4,4,3,"c8b40ae",7,1
"92",1,0,398,1,2,3,"c8b40ae",8,1
"102",1,0,361,1,4,3,"c8b40ae",9,1
"112",1,0,940,1,6,3,"c8b40ae",10,1
"122",0,1,447,3,1,3,"c8b40ae",11,1
"132",0,0,452,6,6,3,"c8b40ae",12,1
"142",-1,-1,0,3,1,3,"c8b40ae",13,1
"152",0,1,393,6,1,3,"c8b40ae",14,1
"162",0,0,380,5,5,3,"c8b40ae",15,1
"172",0,1,461,1,2,3,"c8b40ae",16,1
"182",1,1,517,3,3,3,"c8b40ae",17,1
"192",1,0,438,5,1,3,"c8b40ae",18,1
"202",0,0,532,2,2,3,"c8b40ae",19,1
"213",0,0,365,4,4,3,"c8b40ae",20,1
"222",1,1,465,1,1,3,"c8b40ae",21,1
"232",1,0,406,4,1,3,"c8b40ae",22,1
"242",0,0,344,5,5,3,"c8b40ae",23,1
"252",1,1,393,3,3,3,"c8b40ae",24,1
"262",0,1,722,5,1,3,"c8b40ae",25,1
"272",0,1,315,2,1,3,"c8b40ae",26,1
"282",1,1,386,2,2,3,"c8b40ae",27,1
"292",1,1,306,1,1,3,"c8b40ae",28,1
"302",0,0,341,4,4,3,"c8b40ae",29,1
"313",1,0,379,1,4,3,"c8b40ae",30,1
"322",1,0,404,1,3,3,"c8b40ae",31,1
"332",0,0,402,6,6,3,"c8b40ae",32,1
"342",0,1,388,6,1,3,"c8b40ae",33,1
"352",1,1,368,3,3,3,"c8b40ae",34,1
"362",1,1,381,6,6,3,"c8b40ae",35,1
"372",0,1,393,1,2,3,"c8b40ae",36,1
"382",1,1,363,1,1,3,"c8b40ae",37,1
"392",0,1,318,4,1,3,"c8b40ae",38,1
"402",1,0,258,3,1,3,"c8b40ae",39,1
"413",0,0,280,5,5,3,"c8b40ae",40,1
"422",0,1,347,5,1,3,"c8b40ae",41,1
"432",1,1,249,4,4,3,"c8b40ae",42,1
"442",0,1,461,1,6,3,"c8b40ae",43,1
"452",1,1,491,2,2,3,"c8b40ae",44,1
"462",1,0,655,3,1,3,"c8b40ae",45,1
"472",1,1,273,3,3,3,"c8b40ae",46,1
"482",1,1,338,5,5,3,"c8b40ae",47,1
"492",1,1,392,4,4,3,"c8b40ae",48,1
"502",1,1,436,1,1,3,"c8b40ae",49,1
"513",0,1,846,1,5,3,"c8b40ae",50,1
"522",0,1,405,1,4,3,"c8b40ae",51,1
"532",1,1,711,6,6,3,"c8b40ae",52,1
"542",1,0,210,2,1,3,"c8b40ae",53,1
"552",1,1,342,2,2,3,"c8b40ae",54,1
"562",0,1,453,6,1,3,"c8b40ae",55,1
"572",1,0,404,1,2,3,"c8b40ae",56,1
"582",0,0,326,2,2,3,"c8b40ae",57,1
"592",0,1,393,1,4,3,"c8b40ae",58,1
"602",1,1,406,4,4,3,"c8b40ae",59,1
"613",0,1,421,1,5,3,"c8b40ae",60,1
"622",1,1,367,6,6,3,"c8b40ae",61,1
"632",0,1,307,1,6,3,"c8b40ae",62,1
"642",1,1,398,1,1,3,"c8b40ae",63,1
"652",1,1,390,3,3,3,"c8b40ae",64,1
"662",0,0,429,5,5,3,"c8b40ae",65,1
"672",1,0,373,3,1,3,"c8b40ae",66,1
"682",0,1,351,6,1,3,"c8b40ae",67,1
"692",1,1,371,3,3,3,"c8b40ae",68,1
"702",1,1,883,4,4,3,"c8b40ae",69,1
"712",1,1,338,1,1,3,"c8b40ae",70,1
"722",0,1,361,5,1,3,"c8b40ae",71,1
"732",1,1,389,5,5,3,"c8b40ae",72,1
"742",1,0,391,1,2,3,"c8b40ae",73,1
"752",0,1,433,1,4,3,"c8b40ae",74,1
"762",1,1,339,6,6,3,"c8b40ae",75,1
"772",1,1,346,2,2,3,"c8b40ae",76,1
"782",0,1,288,3,1,3,"c8b40ae",77,1
"214",1,0,335,5,1,2,"1534efb",1,1
"314",1,0,414,4,1,2,"1534efb",2,1
"414",1,1,343,1,1,2,"1534efb",3,1
"514",1,1,408,3,3,2,"1534efb",4,1
"614",1,1,796,5,5,2,"1534efb",5,1
"713",1,0,536,3,1,2,"1534efb",6,1
"83",1,1,837,2,2,2,"1534efb",7,1
"93",1,1,1759,4,4,2,"1534efb",8,1
"103",1,0,1500,6,1,2,"1534efb",9,1
"113",-1,-1,0,1,2,2,"1534efb",10,1
"123",-1,-1,0,6,6,2,"1534efb",11,1
"133",-1,-1,0,5,1,2,"1534efb",12,1
"143",-1,-1,0,6,6,2,"1534efb",13,1
"153",1,0,776,1,4,2,"1534efb",14,1
"163",1,0,296,6,1,2,"1534efb",15,1
"173",1,1,592,4,4,2,"1534efb",16,1
"183",1,1,260,2,2,2,"1534efb",17,1
"193",1,1,260,3,3,2,"1534efb",18,1
"203",1,1,276,5,5,2,"1534efb",19,1
"215",1,1,507,1,1,2,"1534efb",20,1
"223",1,0,228,1,3,2,"1534efb",21,1
"233",1,0,343,1,2,2,"1534efb",22,1
"243",1,1,342,5,5,2,"1534efb",23,1
"253",1,0,278,6,1,2,"1534efb",24,1
"263",-1,-1,0,1,1,2,"1534efb",25,1
"273",-1,-1,0,1,3,2,"1534efb",26,1
"283",-1,-1,0,1,2,2,"1534efb",27,1
"293",-1,-1,0,6,6,2,"1534efb",28,1
"303",-1,-1,0,3,3,2,"1534efb",29,1
"315",-1,-1,0,1,4,2,"1534efb",30,1
"323",1,0,1070,5,1,2,"1534efb",31,1
"333",1,1,548,4,4,2,"1534efb",32,1
"343",1,1,1190,2,2,2,"1534efb",33,1
"353",-1,-1,0,3,3,2,"1534efb",34,1
"363",-1,-1,0,3,1,2,"1534efb",35,1
"373",-1,-1,0,6,6,2,"1534efb",36,1
"383",1,0,1288,1,5,2,"1534efb",37,1
"393",1,0,311,1,6,2,"1534efb",38,1
"403",-1,-1,0,1,4,2,"1534efb",39,1
"415",1,1,540,2,2,2,"1534efb",40,1
"423",-1,-1,0,5,5,2,"1534efb",41,1
"433",1,0,416,2,1,2,"1534efb",42,1
"443",1,1,1272,4,4,2,"1534efb",43,1
"453",1,1,385,1,1,2,"1534efb",44,1
"463",0,0,329,2,2,2,"1534efb",45,1
"473",1,1,233,4,4,2,"1534efb",46,1
"483",1,0,1188,3,1,2,"1534efb",47,1
"493",1,1,336,6,6,2,"1534efb",48,1
"503",1,0,296,4,1,2,"1534efb",49,1
"515",1,0,1047,2,1,2,"1534efb",50,1
"523",-1,-1,0,5,5,2,"1534efb",51,1
"533",1,1,1514,1,1,2,"1534efb",52,1
"543",-1,-1,0,6,1,2,"1534efb",53,1
"553",1,0,487,5,1,2,"1534efb",54,1
"563",1,1,258,3,3,2,"1534efb",55,1
"573",1,1,321,6,6,2,"1534efb",56,1
"583",1,0,324,1,4,2,"1534efb",57,1
"593",1,0,345,2,1,2,"1534efb",58,1
"603",1,1,294,2,2,2,"1534efb",59,1
"615",1,1,382,3,3,2,"1534efb",60,1
"623",1,0,340,3,1,2,"1534efb",61,1
"633",1,0,354,5,1,2,"1534efb",62,1
"643",1,1,1833,1,1,2,"1534efb",63,1
"653",1,1,344,5,5,2,"1534efb",64,1
"663",1,1,421,4,4,2,"1534efb",65,1
"673",1,0,678,6,1,2,"1534efb",66,1
"683",-1,-1,0,1,5,2,"1534efb",67,1
"693",1,1,923,5,5,2,"1534efb",68,1
"703",1,1,233,4,4,2,"1534efb",69,1
"714",1,0,706,1,4,2,"1534efb",70,1
"723",1,1,644,1,1,2,"1534efb",71,1
"733",1,1,704,2,2,2,"1534efb",72,1
"743",1,0,679,3,1,2,"1534efb",73,1
"753",-1,-1,0,6,6,2,"1534efb",74,1
"763",1,1,1726,3,3,2,"1534efb",75,1
"773",1,0,758,1,2,2,"1534efb",76,1
"783",-1,-1,0,6,1,2,"1534efb",77,1
"216",-1,-1,0,1,6,1,"156f638",1,1
"316",1,1,43,5,5,1,"156f638",2,1
"416",1,1,1371,4,4,1,"156f638",3,1
"516",1,1,5,1,1,1,"156f638",4,1
"616",0,1,1926,3,1,1,"156f638",5,1
"715",-1,-1,0,1,2,1,"156f638",6,1
"84",0,1,125,4,1,1,"156f638",7,1
"94",0,1,951,5,1,1,"156f638",8,1
"104",0,0,1786,3,3,1,"156f638",9,1
"114",1,1,187,6,6,1,"156f638",10,1
"124",1,1,166,2,2,1,"156f638",11,1
"134",0,1,1368,5,1,1,"156f638",12,1
"144",1,1,437,4,4,1,"156f638",13,1
"154",1,1,99,3,3,1,"156f638",14,1
"164",1,1,349,2,2,1,"156f638",15,1
"174",1,1,194,5,5,1,"156f638",16,1
"184",1,1,153,1,1,1,"156f638",17,1
"194",0,1,250,1,4,1,"156f638",18,1
"204",0,1,256,1,6,1,"156f638",19,1
"217",1,1,330,6,6,1,"156f638",20,1
"224",0,1,253,1,2,1,"156f638",21,1
"234",0,1,872,1,3,1,"156f638",22,1
"244",0,1,359,1,5,1,"156f638",23,1
"254",1,1,1036,1,1,1,"156f638",24,1
"264",1,1,315,5,5,1,"156f638",25,1
"274",0,1,125,1,3,1,"156f638",26,1
"284",1,1,160,4,4,1,"156f638",27,1
"294",0,1,240,2,1,1,"156f638",28,1
"304",0,1,235,1,6,1,"156f638",29,1
"317",1,1,134,6,6,1,"156f638",30,1
"324",1,1,53,2,2,1,"156f638",31,1
"334",1,1,277,3,3,1,"156f638",32,1
"344",0,1,666,4,1,1,"156f638",33,1
"354",1,1,93,1,1,1,"156f638",34,1
"364",0,1,69,5,1,1,"156f638",35,1
"374",1,1,39,4,4,1,"156f638",36,1
"384",0,1,254,3,1,1,"156f638",37,1
"394",1,1,213,2,2,1,"156f638",38,1
"404",1,1,230,3,3,1,"156f638",39,1
"417",0,1,26,4,1,1,"156f638",40,1
"424",0,1,849,2,1,1,"156f638",41,1
"434",1,1,88,6,6,1,"156f638",42,1
"444",0,1,749,1,6,1,"156f638",43,1
"454",1,1,68,5,5,1,"156f638",44,1
"464",0,1,374,1,3,1,"156f638",45,1
"474",1,1,246,4,4,1,"156f638",46,1
"484",0,1,476,2,1,1,"156f638",47,1
"494",0,1,293,1,5,1,"156f638",48,1
"504",1,1,438,1,1,1,"156f638",49,1
"517",1,1,132,6,6,1,"156f638",50,1
"524",1,1,211,2,2,1,"156f638",51,1
"534",0,1,229,1,4,1,"156f638",52,1
"544",1,1,347,3,3,1,"156f638",53,1
"554",1,1,171,5,5,1,"156f638",54,1
"564",0,1,538,1,6,1,"156f638",55,1
"574",1,1,248,5,5,1,"156f638",56,1
"584",1,1,383,6,6,1,"156f638",57,1
"594",0,1,288,1,5,1,"156f638",58,1
"604",1,1,801,2,2,1,"156f638",59,1
"617",0,1,901,1,3,1,"156f638",60,1
"624",0,0,1558,4,4,1,"156f638",61,1
"634",0,1,1602,2,1,1,"156f638",62,1
"644",1,1,89,1,1,1,"156f638",63,1
"654",0,1,290,4,1,1,"156f638",64,1
"664",1,1,19,3,3,1,"156f638",65,1
"674",0,1,143,1,6,1,"156f638",66,1
"684",0,1,13,3,1,1,"156f638",67,1
"694",0,1,233,1,2,1,"156f638",68,1
"704",1,1,31,4,4,1,"156f638",69,1
"716",0,1,88,6,1,1,"156f638",70,1
"724",1,1,1527,2,2,1,"156f638",71,1
"734",0,1,271,4,1,1,"156f638",72,1
"744",0,1,205,5,1,1,"156f638",73,1
"754",0,0,1518,3,3,1,"156f638",74,1
"764",1,1,557,1,1,1,"156f638",75,1
"774",1,1,788,6,6,1,"156f638",76,1
"784",1,1,831,5,5,1,"156f638",77,1
"218",1,1,281,2,2,2,"1744d37",1,1
"318",1,1,261,6,6,2,"1744d37",2,1
"418",0,1,203,3,1,2,"1744d37",3,1
"518",0,0,233,3,3,2,"1744d37",4,1
"618",0,1,173,1,2,2,"1744d37",5,1
"717",1,1,181,5,5,2,"1744d37",6,1
"85",1,1,281,4,4,2,"1744d37",7,1
"95",0,1,230,1,6,2,"1744d37",8,1
"105",0,1,244,4,1,2,"1744d37",9,1
"115",1,1,213,1,1,2,"1744d37",10,1
"125",0,1,141,5,1,2,"1744d37",11,1
"135",1,1,211,2,2,2,"1744d37",12,1
"145",1,1,241,5,5,2,"1744d37",13,1
"155",0,1,234,6,1,2,"1744d37",14,1
"165",1,1,68,1,1,2,"1744d37",15,1
"175",1,1,212,3,3,2,"1744d37",16,1
"185",1,1,122,4,4,2,"1744d37",17,1
"195",0,1,147,1,2,2,"1744d37",18,1
"205",0,1,243,4,1,2,"1744d37",19,1
"219",0,1,217,1,5,2,"1744d37",20,1
"225",1,1,374,6,6,2,"1744d37",21,1
"235",0,1,195,3,1,2,"1744d37",22,1
"245",0,1,463,1,5,2,"1744d37",23,1
"255",0,1,28,1,6,2,"1744d37",24,1
"265",1,1,80,2,2,2,"1744d37",25,1
"275",1,1,379,4,4,2,"1744d37",26,1
"285",1,1,74,6,6,2,"1744d37",27,1
"295",1,1,73,3,3,2,"1744d37",28,1
"305",0,1,226,4,1,2,"1744d37",29,1
"319",1,1,201,1,1,2,"1744d37",30,1
"325",1,1,142,5,5,2,"1744d37",31,1
"335",0,1,223,3,1,2,"1744d37",32,1
"345",0,1,170,2,1,2,"1744d37",33,1
"355",1,1,300,4,4,2,"1744d37",34,1
"365",0,1,64,4,1,2,"1744d37",35,1
"375",0,1,34,1,3,2,"1744d37",36,1
"385",1,1,75,3,3,2,"1744d37",37,1
"395",0,1,565,1,2,2,"1744d37",38,1
"405",0,1,442,1,5,2,"1744d37",39,1
"419",1,1,150,2,2,2,"1744d37",40,1
"425",1,1,133,1,1,2,"1744d37",41,1
"435",1,1,94,5,5,2,"1744d37",42,1
"445",1,1,128,6,6,2,"1744d37",43,1
"455",0,1,444,1,6,2,"1744d37",44,1
"465",0,1,82,1,6,2,"1744d37",45,1
"475",1,1,177,1,1,2,"1744d37",46,1
"485",1,1,154,5,5,2,"1744d37",47,1
"495",1,1,46,3,3,2,"1744d37",48,1
"505",1,1,299,2,2,2,"1744d37",49,1
"519",1,1,187,4,4,2,"1744d37",50,1
"525",1,1,160,6,6,2,"1744d37",51,1
"535",0,1,296,4,1,2,"1744d37",52,1
"545",0,1,217,3,1,2,"1744d37",53,1
"555",0,1,565,1,5,2,"1744d37",54,1
"565",1,0,40,2,1,2,"1744d37",55,1
"575",1,1,520,4,4,2,"1744d37",56,1
"585",0,1,102,1,5,2,"1744d37",57,1
"595",0,1,108,4,1,2,"1744d37",58,1
"605",1,1,266,6,6,2,"1744d37",59,1
"619",1,1,541,3,3,2,"1744d37",60,1
"625",1,1,229,1,1,2,"1744d37",61,1
"635",0,1,306,1,2,2,"1744d37",62,1
"645",0,1,371,3,1,2,"1744d37",63,1
"655",1,1,179,5,5,2,"1744d37",64,1
"665",0,1,291,6,1,2,"1744d37",65,1
"675",1,1,326,2,2,2,"1744d37",66,1
"685",1,1,418,4,4,2,"1744d37",67,1
"695",0,1,426,5,1,2,"1744d37",68,1
"705",1,1,113,3,3,2,"1744d37",69,1
"718",0,1,1075,1,6,2,"1744d37",70,1
"725",0,1,196,4,1,2,"1744d37",71,1
"735",0,1,1005,1,2,2,"1744d37",72,1
"745",1,1,236,2,2,2,"1744d37",73,1
"755",1,1,244,1,1,2,"1744d37",74,1
"765",1,1,216,5,5,2,"1744d37",75,1
"775",0,1,442,3,1,2,"1744d37",76,1
"785",1,1,375,6,6,2,"1744d37",77,1
"220",1,0,879,2,1,3,"fdaa615",1,1
"320",1,1,349,2,2,3,"fdaa615",2,1
"420",0,1,489,1,6,3,"fdaa615",3,1
"520",1,1,444,3,3,3,"fdaa615",4,1
"620",1,1,519,6,6,3,"fdaa615",5,1
"719",1,1,605,4,4,3,"fdaa615",6,1
"86",0,1,938,1,4,3,"fdaa615",7,1
"96",0,1,488,3,1,3,"fdaa615",8,1
"106",0,1,522,5,1,3,"fdaa615",9,1
"116",1,1,405,5,5,3,"fdaa615",10,1
"126",1,1,639,1,1,3,"fdaa615",11,1
"136",1,1,399,4,4,3,"fdaa615",12,1
"146",1,1,474,6,6,3,"fdaa615",13,1
"156",0,1,1157,1,5,3,"fdaa615",14,1
"166",1,1,688,5,5,3,"fdaa615",15,1
"176",1,1,707,2,2,3,"fdaa615",16,1
"186",1,1,792,1,1,3,"fdaa615",17,1
"196",0,1,604,1,3,3,"fdaa615",18,1
"206",1,1,1519,3,3,3,"fdaa615",19,1
"2110",0,1,887,1,4,3,"fdaa615",20,1
"226",0,1,333,1,6,3,"fdaa615",21,1
"236",1,0,551,1,2,3,"fdaa615",22,1
"246",0,1,763,3,1,3,"fdaa615",23,1
"256",1,1,395,1,1,3,"fdaa615",24,1
"266",1,1,272,2,2,3,"fdaa615",25,1
"276",1,1,225,6,6,3,"fdaa615",26,1
"286",0,1,671,1,2,3,"fdaa615",27,1
"296",0,1,449,1,4,3,"fdaa615",28,1
"306",0,1,372,1,5,3,"fdaa615",29,1
"3110",1,1,448,3,3,3,"fdaa615",30,1
"326",1,1,499,4,4,3,"fdaa615",31,1
"336",1,1,325,5,5,3,"fdaa615",32,1
"346",0,1,353,1,6,3,"fdaa615",33,1
"356",0,1,434,3,1,3,"fdaa615",34,1
"366",1,1,734,3,3,3,"fdaa615",35,1
"376",1,0,369,2,1,3,"fdaa615",36,1
"386",1,1,326,2,2,3,"fdaa615",37,1
"396",0,1,343,6,1,3,"fdaa615",38,1
"406",0,1,364,4,1,3,"fdaa615",39,1
"4110",1,1,366,5,5,3,"fdaa615",40,1
"426",1,1,267,6,6,3,"fdaa615",41,1
"436",0,1,701,1,5,3,"fdaa615",42,1
"446",1,1,473,4,4,3,"fdaa615",43,1
"456",1,1,538,1,1,3,"fdaa615",44,1
"466",1,1,342,1,1,3,"fdaa615",45,1
"476",0,1,260,1,3,3,"fdaa615",46,1
"486",0,1,403,5,1,3,"fdaa615",47,1
"496",0,1,492,1,4,3,"fdaa615",48,1
"506",1,0,630,2,1,3,"fdaa615",49,1
"5110",1,1,286,4,4,3,"fdaa615",50,1
"526",1,1,356,3,3,3,"fdaa615",51,1
"536",0,0,960,2,2,3,"fdaa615",52,1
"546",1,1,521,5,5,3,"fdaa615",53,1
"556",1,1,567,6,6,3,"fdaa615",54,1
"566",0,1,225,6,1,3,"fdaa615",55,1
"576",1,1,339,4,4,3,"fdaa615",56,1
"586",1,1,422,1,1,3,"fdaa615",57,1
"596",0,1,334,5,1,3,"fdaa615",58,1
"606",1,1,288,5,5,3,"fdaa615",59,1
"6110",1,1,277,3,3,3,"fdaa615",60,1
"626",0,1,461,1,3,3,"fdaa615",61,1
"636",0,1,359,2,1,3,"fdaa615",62,1
"646",0,1,386,4,1,3,"fdaa615",63,1
"656",0,0,373,2,2,3,"fdaa615",64,1
"666",1,1,321,6,6,3,"fdaa615",65,1
"676",0,1,285,6,1,3,"fdaa615",66,1
"686",1,1,320,3,3,3,"fdaa615",67,1
"696",0,1,476,1,2,3,"fdaa615",68,1
"706",0,1,421,1,6,3,"fdaa615",69,1
"7110",1,1,377,5,5,3,"fdaa615",70,1
"726",0,1,844,1,5,3,"fdaa615",71,1
"736",1,1,355,4,4,3,"fdaa615",72,1
"746",1,1,350,2,2,3,"fdaa615",73,1
"756",0,1,252,4,1,3,"fdaa615",74,1
"766",1,1,748,1,1,3,"fdaa615",75,1
"776",0,1,272,1,3,3,"fdaa615",76,1
"786",1,1,289,6,6,3,"fdaa615",77,1
"227",1,0,454,1,4,1,"519c6d7",1,1
"327",1,1,415,1,1,1,"519c6d7",2,1
"427",0,1,474,1,3,1,"519c6d7",3,1
"527",1,0,372,1,5,1,"519c6d7",4,1
"627",1,1,230,4,4,1,"519c6d7",5,1
"720",0,0,274,5,5,1,"519c6d7",6,1
"87",0,1,437,1,6,1,"519c6d7",7,1
"97",1,1,198,3,3,1,"519c6d7",8,1
"107",1,1,313,6,6,1,"519c6d7",9,1
"117",1,0,491,2,1,1,"519c6d7",10,1
"127",1,1,526,2,2,1,"519c6d7",11,1
"137",1,1,233,3,3,1,"519c6d7",12,1
"147",0,1,306,1,2,1,"519c6d7",13,1
"157",0,1,299,1,5,1,"519c6d7",14,1
"167",0,1,405,1,6,1,"519c6d7",15,1
"177",1,1,488,2,2,1,"519c6d7",16,1
"187",1,1,339,1,1,1,"519c6d7",17,1
"197",0,1,1942,4,1,1,"519c6d7",18,1
"207",0,1,319,1,3,1,"519c6d7",19,1
"2111",1,1,459,4,4,1,"519c6d7",20,1
"228",1,1,149,6,6,1,"519c6d7",21,1
"237",1,1,663,5,5,1,"519c6d7",22,1
"247",1,1,423,6,6,1,"519c6d7",23,1
"257",0,1,773,4,1,1,"519c6d7",24,1
"267",0,1,1832,1,6,1,"519c6d7",25,1
"277",1,1,339,3,3,1,"519c6d7",26,1
"287",0,1,380,1,2,1,"519c6d7",27,1
"297",0,1,1397,1,3,1,"519c6d7",28,1
"307",0,1,722,5,1,1,"519c6d7",29,1
"3111",1,1,260,2,2,1,"519c6d7",30,1
"328",1,1,382,5,5,1,"519c6d7",31,1
"337",1,1,258,1,1,1,"519c6d7",32,1
"347",1,1,216,4,4,1,"519c6d7",33,1
"357",0,1,238,2,1,1,"519c6d7",34,1
"367",1,1,649,3,3,1,"519c6d7",35,1
"377",1,1,186,4,4,1,"519c6d7",36,1
"387",0,0,236,1,1,1,"519c6d7",37,1
"397",1,1,287,5,5,1,"519c6d7",38,1
"407",0,1,321,1,4,1,"519c6d7",39,1
"4111",1,1,523,2,2,1,"519c6d7",40,1
"428",0,1,356,6,1,1,"519c6d7",41,1
"437",1,1,306,6,6,1,"519c6d7",42,1
"447",0,1,362,1,3,1,"519c6d7",43,1
"457",0,1,324,1,5,1,"519c6d7",44,1
"467",0,1,212,3,1,1,"519c6d7",45,1
"477",0,1,406,4,1,1,"519c6d7",46,1
"487",1,1,263,5,5,1,"519c6d7",47,1
"497",1,1,258,3,3,1,"519c6d7",48,1
"507",0,1,321,5,1,1,"519c6d7",49,1
"5111",1,1,249,2,2,1,"519c6d7",50,1
"528",1,1,453,6,6,1,"519c6d7",51,1
"537",1,0,319,1,2,1,"519c6d7",52,1
"547",1,1,291,1,1,1,"519c6d7",53,1
"557",1,1,372,4,4,1,"519c6d7",54,1
"567",0,1,414,6,1,1,"519c6d7",55,1
"577",1,1,489,5,5,1,"519c6d7",56,1
"587",1,1,344,1,1,1,"519c6d7",57,1
"597",0,1,338,6,1,1,"519c6d7",58,1
"607",1,1,530,4,4,1,"519c6d7",59,1
"6111",1,1,737,3,3,1,"519c6d7",60,1
"628",0,1,708,1,3,1,"519c6d7",61,1
"637",1,1,420,2,2,1,"519c6d7",62,1
"647",1,1,1268,6,6,1,"519c6d7",63,1
"657",0,1,590,1,4,1,"519c6d7",64,1
"667",0,1,282,1,2,1,"519c6d7",65,1
"677",0,1,525,5,1,1,"519c6d7",66,1
"687",1,1,374,6,6,1,"519c6d7",67,1
"697",0,1,335,1,4,1,"519c6d7",68,1
"707",1,1,1112,4,4,1,"519c6d7",69,1
"7111",1,1,288,3,3,1,"519c6d7",70,1
"727",0,1,335,3,1,1,"519c6d7",71,1
"737",1,1,395,1,1,1,"519c6d7",72,1
"747",1,1,228,5,5,1,"519c6d7",73,1
"757",0,1,462,5,1,1,"519c6d7",74,1
"767",0,1,599,2,1,1,"519c6d7",75,1
"777",1,1,516,2,2,1,"519c6d7",76,1
"787",0,1,276,1,6,1,"519c6d7",77,1
"229",1,1,734,2,2,3,"121161c",1,1
"329",1,1,494,1,1,3,"121161c",2,1
"429",0,1,1329,1,6,3,"121161c",3,1
"529",0,1,1094,5,1,3,"121161c",4,1
"629",1,1,417,4,4,3,"121161c",5,1
"728",0,1,1597,2,1,3,"121161c",6,1
"88",0,1,1103,1,4,3,"121161c",7,1
"98",1,1,330,5,5,3,"121161c",8,1
"108",1,1,968,6,6,3,"121161c",9,1
"118",0,1,700,1,3,3,"121161c",10,1
"128",1,1,356,3,3,3,"121161c",11,1
"138",1,1,406,2,2,3,"121161c",12,1
"148",0,1,386,1,4,3,"121161c",13,1
"158",1,1,385,3,3,3,"121161c",14,1
"168",0,1,349,2,1,3,"121161c",15,1
"178",0,1,421,1,5,3,"121161c",16,1
"188",1,1,869,6,6,3,"121161c",17,1
"198",1,1,798,5,5,3,"121161c",18,1
"208",1,1,913,4,4,3,"121161c",19,1
"2112",0,1,715,6,1,3,"121161c",20,1
"2210",1,1,260,1,1,3,"121161c",21,1
"238",0,1,838,1,3,3,"121161c",22,1
"248",0,1,1022,1,6,3,"121161c",23,1
"258",1,1,388,2,2,3,"121161c",24,1
"268",1,1,477,6,6,3,"121161c",25,1
"278",0,1,1589,5,1,3,"121161c",26,1
"288",0,1,856,1,3,3,"121161c",27,1
"298",0,1,897,1,2,3,"121161c",28,1
"308",1,1,794,5,5,3,"121161c",29,1
"3112",1,1,468,1,1,3,"121161c",30,1
"3210",1,1,243,4,4,3,"121161c",31,1
"338",1,1,1083,3,3,3,"121161c",32,1
"348",0,1,798,4,1,3,"121161c",33,1
"358",0,1,1000,6,1,3,"121161c",34,1
"368",1,1,52,2,2,3,"121161c",35,1
"378",1,1,737,4,4,3,"121161c",36,1
"388",1,1,380,3,3,3,"121161c",37,1
"398",0,1,482,4,1,3,"121161c",38,1
"408",1,1,862,5,5,3,"121161c",39,1
"4112",1,1,359,6,6,3,"121161c",40,1
"4210",0,1,848,5,1,3,"121161c",41,1
"438",0,1,575,2,1,3,"121161c",42,1
"448",1,1,330,1,1,3,"121161c",43,1
"458",0,1,365,3,1,3,"121161c",44,1
"468",1,1,604,1,1,3,"121161c",45,1
"478",1,1,213,6,6,3,"121161c",46,1
"488",0,1,758,1,2,3,"121161c",47,1
"498",0,1,1047,1,6,3,"121161c",48,1
"508",0,1,183,4,1,3,"121161c",49,1
"5112",0,1,778,5,1,3,"121161c",50,1
"5210",1,1,539,5,5,3,"121161c",51,1
"538",1,1,365,2,2,3,"121161c",52,1
"548",1,1,95,3,3,3,"121161c",53,1
"558",0,1,840,1,3,3,"121161c",54,1
"568",1,1,513,4,4,3,"121161c",55,1
"578",0,1,1236,1,2,3,"121161c",56,1
"588",0,1,1108,1,3,3,"121161c",57,1
"598",1,1,198,2,2,3,"121161c",58,1
"608",0,1,1072,1,5,3,"121161c",59,1
"6112",1,1,227,1,1,3,"121161c",60,1
"6210",0,1,884,1,4,3,"121161c",61,1
"638",1,1,327,6,6,3,"121161c",62,1
"648",1,1,894,4,4,3,"121161c",63,1
"658",1,1,914,5,5,3,"121161c",64,1
"668",0,1,717,1,6,3,"121161c",65,1
"678",1,1,218,3,3,3,"121161c",66,1
"688",1,1,376,3,3,3,"121161c",67,1
"698",0,1,909,2,1,3,"121161c",68,1
"708",1,1,327,4,4,3,"121161c",69,1
"7112",1,1,761,2,2,3,"121161c",70,1
"729",1,1,1023,5,5,3,"121161c",71,1
"738",0,1,969,1,3,3,"121161c",72,1
"748",1,0,463,1,6,3,"121161c",73,1
"758",0,1,1147,1,4,3,"121161c",74,1
"768",1,1,392,6,6,3,"121161c",75,1
"778",1,1,277,1,1,3,"121161c",76,1
"788",0,1,725,5,1,3,"121161c",77,1
"230",0,0,444,6,6,1,"1edad2e",1,1
"330",0,1,396,1,4,1,"1edad2e",2,1
"430",0,1,283,2,1,1,"1edad2e",3,1
"530",1,1,419,3,3,1,"1edad2e",4,1
"630",1,1,858,1,1,1,"1edad2e",5,1
"730",0,0,284,5,5,1,"1edad2e",6,1
"89",0,1,314,1,3,1,"1edad2e",7,1
"99",0,1,547,1,6,1,"1edad2e",8,1
"109",1,1,386,4,4,1,"1edad2e",9,1
"119",0,1,275,5,1,1,"1edad2e",10,1
"129",1,1,386,2,2,1,"1edad2e",11,1
"139",0,1,874,1,4,1,"1edad2e",12,1
"149",1,1,242,4,4,1,"1edad2e",13,1
"159",0,1,530,1,5,1,"1edad2e",14,1
"169",0,1,425,1,2,1,"1edad2e",15,1
"179",1,1,306,1,1,1,"1edad2e",16,1
"189",0,0,393,3,3,1,"1edad2e",17,1
"199",0,0,377,2,2,1,"1edad2e",18,1
"209",1,1,264,6,6,1,"1edad2e",19,1
"2113",0,1,232,1,3,1,"1edad2e",20,1
"2211",1,1,240,5,5,1,"1edad2e",21,1
"239",0,1,288,6,1,1,"1edad2e",22,1
"249",0,1,391,1,6,1,"1edad2e",23,1
"259",0,0,216,4,4,1,"1edad2e",24,1
"269",1,0,279,1,3,1,"1edad2e",25,1
"279",1,1,320,1,1,1,"1edad2e",26,1
"289",0,0,240,5,5,1,"1edad2e",27,1
"299",1,1,391,3,3,1,"1edad2e",28,1
"309",1,1,254,6,6,1,"1edad2e",29,1
"3113",1,1,262,2,2,1,"1edad2e",30,1
"3211",0,1,477,1,5,1,"1edad2e",31,1
"339",0,1,398,1,4,1,"1edad2e",32,1
"349",1,0,917,2,1,1,"1edad2e",33,1
"359",1,1,246,2,2,1,"1edad2e",34,1
"369",1,1,261,6,6,1,"1edad2e",35,1
"379",0,0,252,1,1,1,"1edad2e",36,1
"389",0,1,339,1,3,1,"1edad2e",37,1
"399",0,1,357,4,1,1,"1edad2e",38,1
"409",0,1,260,5,1,1,"1edad2e",39,1
"4113",1,1,501,5,5,1,"1edad2e",40,1
"4211",0,1,284,2,1,1,"1edad2e",41,1
"439",1,1,452,4,4,1,"1edad2e",42,1
"449",0,1,267,1,6,1,"1edad2e",43,1
"459",1,1,253,3,3,1,"1edad2e",44,1
"469",0,1,548,1,6,1,"1edad2e",45,1
"479",1,0,932,1,5,1,"1edad2e",46,1
"489",1,0,291,2,1,1,"1edad2e",47,1
"499",1,1,276,2,2,1,"1edad2e",48,1
"509",0,0,307,4,4,1,"1edad2e",49,1
"5113",0,0,355,3,3,1,"1edad2e",50,1
"5211",1,1,290,1,1,1,"1edad2e",51,1
"539",1,0,236,3,1,1,"1edad2e",52,1
"549",1,1,434,5,5,1,"1edad2e",53,1
"559",1,1,418,6,6,1,"1edad2e",54,1
"569",0,1,233,4,1,1,"1edad2e",55,1
"579",1,1,266,2,2,1,"1edad2e",56,1
"589",0,0,306,6,6,1,"1edad2e",57,1
"599",1,0,233,3,1,1,"1edad2e",58,1
"609",0,1,225,2,1,1,"1edad2e",59,1
"6113",0,0,1145,1,1,1,"1edad2e",60,1
"6211",1,1,240,3,3,1,"1edad2e",61,1
"639",1,0,890,4,1,1,"1edad2e",62,1
"649",1,1,297,4,4,1,"1edad2e",63,1
"659",1,1,209,5,5,1,"1edad2e",64,1
"669",0,1,304,6,1,1,"1edad2e",65,1
"679",0,1,192,1,5,1,"1edad2e",66,1
"689",1,1,257,6,6,1,"1edad2e",67,1
"699",0,1,265,4,1,1,"1edad2e",68,1
"709",0,1,303,2,1,1,"1edad2e",69,1
"7113",1,1,408,4,4,1,"1edad2e",70,1
"7210",1,1,208,1,1,1,"1edad2e",71,1
"739",0,0,225,2,2,1,"1edad2e",72,1
"749",0,1,278,6,1,1,"1edad2e",73,1
"759",1,1,264,5,5,1,"1edad2e",74,1
"769",0,1,270,1,3,1,"1edad2e",75,1
"779",0,1,294,5,1,1,"1edad2e",76,1
"789",1,1,294,3,3,1,"1edad2e",77,1
"240",1,0,1068,5,1,1,"1ff6694",1,1
"340",1,0,780,1,6,1,"1ff6694",2,1
"440",0,0,379,3,3,1,"1ff6694",3,1
"540",0,0,405,2,2,1,"1ff6694",4,1
"640",1,1,555,1,1,1,"1ff6694",5,1
"740",0,0,369,6,6,1,"1ff6694",6,1
"810",0,1,403,1,3,1,"1ff6694",7,1
"910",1,1,391,5,5,1,"1ff6694",8,1
"1010",1,1,399,4,4,1,"1ff6694",9,1
"1110",0,1,389,4,1,1,"1ff6694",10,1
"1210",0,1,892,1,2,1,"1ff6694",11,1
"1310",0,1,1286,6,1,1,"1ff6694",12,1
"1410",0,0,129,2,2,1,"1ff6694",13,1
"1510",0,0,424,1,1,1,"1ff6694",14,1
"1610",0,0,430,6,6,1,"1ff6694",15,1
"1710",1,0,273,2,1,1,"1ff6694",16,1
"1810",0,0,270,4,4,1,"1ff6694",17,1
"1910",1,1,380,5,5,1,"1ff6694",18,1
"2010",1,1,370,3,3,1,"1ff6694",19,1
"2114",0,1,356,3,1,1,"1ff6694",20,1
"2212",0,1,354,1,5,1,"1ff6694",21,1
"2310",0,1,280,4,1,1,"1ff6694",22,1
"2410",1,0,335,1,2,1,"1ff6694",23,1
"2510",0,0,287,5,5,1,"1ff6694",24,1
"2610",1,1,592,1,1,1,"1ff6694",25,1
"2710",1,0,362,1,6,1,"1ff6694",26,1
"2810",0,1,385,1,4,1,"1ff6694",27,1
"2910",1,1,358,2,2,1,"1ff6694",28,1
"3010",1,1,380,3,3,1,"1ff6694",29,1
"3114",1,1,420,4,4,1,"1ff6694",30,1
"3212",1,1,326,6,6,1,"1ff6694",31,1
"3310",0,1,595,3,1,1,"1ff6694",32,1
"3410",0,1,853,1,5,1,"1ff6694",33,1
"3510",0,0,443,4,4,1,"1ff6694",34,1
"3610",1,1,513,3,3,1,"1ff6694",35,1
"3710",1,1,494,1,1,1,"1ff6694",36,1
"3810",0,1,356,1,6,1,"1ff6694",37,1
"3910",1,0,364,1,2,1,"1ff6694",38,1
"4010",0,1,408,4,1,1,"1ff6694",39,1
"4114",1,1,672,2,2,1,"1ff6694",40,1
"4212",0,0,414,6,6,1,"1ff6694",41,1
"4310",1,0,398,1,5,1,"1ff6694",42,1
"4410",1,1,538,5,5,1,"1ff6694",43,1
"4510",1,0,983,1,3,1,"1ff6694",44,1
"4610",0,0,725,1,1,1,"1ff6694",45,1
"4710",0,1,431,1,6,1,"1ff6694",46,1
"4810",1,1,591,2,2,1,"1ff6694",47,1
"4910",1,1,429,6,6,1,"1ff6694",48,1
"5010",0,1,953,3,1,1,"1ff6694",49,1
"5114",1,1,291,5,5,1,"1ff6694",50,1
"5212",1,1,847,3,3,1,"1ff6694",51,1
"5310",-1,-1,0,1,2,1,"1ff6694",52,1
"5410",1,0,782,5,1,1,"1ff6694",53,1
"5510",1,0,1352,1,4,1,"1ff6694",54,1
"5610",0,0,822,4,4,1,"1ff6694",55,1
"5710",0,0,496,6,6,1,"1ff6694",56,1
"5810",0,1,1097,5,1,1,"1ff6694",57,1
"5910",0,1,434,2,1,1,"1ff6694",58,1
"6010",1,1,453,3,3,1,"1ff6694",59,1
"6114",1,1,652,5,5,1,"1ff6694",60,1
"6212",1,0,1123,1,4,1,"1ff6694",61,1
"6310",1,0,971,1,6,1,"1ff6694",62,1
"6410",0,0,460,2,2,1,"1ff6694",63,1
"6510",1,0,1312,3,1,1,"1ff6694",64,1
"6610",-1,-1,0,1,1,1,"1ff6694",65,1
"6710",1,1,498,4,4,1,"1ff6694",66,1
"6810",0,0,677,6,6,1,"1ff6694",67,1
"6910",0,0,909,3,3,1,"1ff6694",68,1
"7010",1,0,1433,2,1,1,"1ff6694",69,1
"7114",1,0,452,1,3,1,"1ff6694",70,1
"7211",0,0,699,2,2,1,"1ff6694",71,1
"7310",1,1,380,1,1,1,"1ff6694",72,1
"7410",1,1,319,4,4,1,"1ff6694",73,1
"7510",1,0,415,6,1,1,"1ff6694",74,1
"7610",1,0,1122,1,5,1,"1ff6694",75,1
"7710",1,0,483,4,1,1,"1ff6694",76,1
"7810",1,1,819,5,5,1,"1ff6694",77,1
"250",1,0,462,5,1,2,"127583e",1,1
"350",1,1,550,6,6,2,"127583e",2,1
"450",1,1,384,1,1,2,"127583e",3,1
"550",0,1,360,1,3,2,"127583e",4,1
"650",0,0,327,4,4,2,"127583e",5,1
"750",1,1,722,3,3,2,"127583e",6,1
"811",1,0,761,2,1,2,"127583e",7,1
"911",0,0,351,5,5,2,"127583e",8,1
"1011",1,1,559,2,2,2,"127583e",9,1
"1111",1,0,377,6,1,2,"127583e",10,1
"1211",1,0,624,1,4,2,"127583e",11,1
"1311",1,0,533,1,6,2,"127583e",12,1
"1411",1,1,491,2,2,2,"127583e",13,1
"1511",1,1,297,1,1,2,"127583e",14,1
"1611",1,0,706,4,1,2,"127583e",15,1
"1711",0,1,629,1,3,2,"127583e",16,1
"1811",1,1,719,5,5,2,"127583e",17,1
"1911",1,1,348,6,6,2,"127583e",18,1
"2011",0,0,389,4,4,2,"127583e",19,1
"2115",1,1,527,3,3,2,"127583e",20,1
"2213",0,1,346,5,1,2,"127583e",21,1
"2311",0,1,339,2,1,2,"127583e",22,1
"2411",1,1,437,6,6,2,"127583e",23,1
"2511",1,1,359,1,1,2,"127583e",24,1
"2611",0,1,578,1,2,2,"127583e",25,1
"2711",1,0,661,1,5,2,"127583e",26,1
"2811",1,0,633,1,3,2,"127583e",27,1
"2911",1,0,571,1,6,2,"127583e",28,1
"3011",1,1,368,4,4,2,"127583e",29,1
"3115",1,1,375,3,3,2,"127583e",30,1
"3213",1,1,426,2,2,2,"127583e",31,1
"3311",1,1,720,5,5,2,"127583e",32,1
"3411",1,0,517,1,4,2,"127583e",33,1
"3511",1,1,547,3,3,2,"127583e",34,1
"3611",1,1,657,4,4,2,"127583e",35,1
"3711",1,0,444,1,3,2,"127583e",36,1
"3811",0,0,401,5,5,2,"127583e",37,1
"3911",1,0,654,5,1,2,"127583e",38,1
"4011",0,0,475,1,1,2,"127583e",39,1
"4115",1,0,736,1,2,2,"127583e",40,1
"4213",1,0,442,1,6,2,"127583e",41,1
"4311",1,1,462,6,6,2,"127583e",42,1
"4411",1,0,497,4,1,2,"127583e",43,1
"4511",0,0,394,2,2,2,"127583e",44,1
"4611",1,1,817,3,3,2,"127583e",45,1
"4711",0,1,1372,6,1,2,"127583e",46,1
"4811",1,1,744,4,4,2,"127583e",47,1
"4911",1,1,446,5,5,2,"127583e",48,1
"5011",1,0,432,2,1,2,"127583e",49,1
"5115",1,0,441,1,3,2,"127583e",50,1
"5213",1,0,397,5,1,2,"127583e",51,1
"5311",0,0,713,1,1,2,"127583e",52,1
"5411",1,1,620,2,2,2,"127583e",53,1
"5511",1,0,592,4,1,2,"127583e",54,1
"5611",1,1,806,6,6,2,"127583e",55,1
"5711",0,1,640,1,4,2,"127583e",56,1
"5811",0,0,733,5,5,2,"127583e",57,1
"5911",1,1,771,6,6,2,"127583e",58,1
"6011",0,1,381,5,1,2,"127583e",59,1
"6115",1,1,645,3,3,2,"127583e",60,1
"6213",1,1,562,2,2,2,"127583e",61,1
"6311",1,0,573,1,3,2,"127583e",62,1
"6411",1,0,554,2,1,2,"127583e",63,1
"6511",0,0,567,1,1,2,"127583e",64,1
"6611",1,1,472,4,4,2,"127583e",65,1
"6711",1,0,810,6,1,2,"127583e",66,1
"6811",1,0,586,1,5,2,"127583e",67,1
"6911",0,0,638,4,4,2,"127583e",68,1
"7011",1,1,565,3,3,2,"127583e",69,1
"7115",1,0,733,1,3,2,"127583e",70,1
"7212",0,0,497,6,6,2,"127583e",71,1
"7311",0,0,580,5,5,2,"127583e",72,1
"7411",1,1,462,1,1,2,"127583e",73,1
"7511",0,1,380,1,2,2,"127583e",74,1
"7611",1,1,555,2,2,2,"127583e",75,1
"7711",1,0,490,4,1,2,"127583e",76,1
"7811",0,1,336,6,1,2,"127583e",77,1
"260",1,0,928,4,1,2,"1401c6b",1,1
"360",0,0,682,1,1,2,"1401c6b",2,1
"460",1,1,462,4,4,2,"1401c6b",3,1
"560",1,0,443,2,1,2,"1401c6b",4,1
"660",0,0,429,6,6,2,"1401c6b",5,1
"760",0,1,556,5,1,2,"1401c6b",6,1
"812",0,1,1842,1,6,2,"1401c6b",7,1
"912",0,1,1960,1,3,2,"1401c6b",8,1
"1012",1,1,540,2,2,2,"1401c6b",9,1
"1112",1,1,566,5,5,2,"1401c6b",10,1
"1212",0,0,553,3,3,2,"1401c6b",11,1
"1312",0,1,659,1,2,2,"1401c6b",12,1
"1412",1,1,439,6,6,2,"1401c6b",13,1
"1512",0,1,456,6,1,2,"1401c6b",14,1
"1612",1,1,502,4,4,2,"1401c6b",15,1
"1712",1,1,386,2,2,2,"1401c6b",16,1
"1812",0,1,811,1,5,2,"1401c6b",17,1
"1912",0,1,1366,1,3,2,"1401c6b",18,1
"2012",1,1,368,3,3,2,"1401c6b",19,1
"2116",1,1,954,5,5,2,"1401c6b",20,1
"2214",1,1,730,1,1,2,"1401c6b",21,1
"2312",0,1,327,1,4,2,"1401c6b",22,1
"2412",0,1,392,6,1,2,"1401c6b",23,1
"2512",1,1,359,5,5,2,"1401c6b",24,1
"2612",1,1,338,1,1,2,"1401c6b",25,1
"2712",1,1,1704,2,2,2,"1401c6b",26,1
"2812",0,1,723,2,1,2,"1401c6b",27,1
"2912",0,1,359,3,1,2,"1401c6b",28,1
"3012",0,0,507,3,3,2,"1401c6b",29,1
"3116",0,1,1091,1,5,2,"1401c6b",30,1
"3214",-1,-1,0,4,1,2,"1401c6b",31,1
"3312",1,1,314,4,4,2,"1401c6b",32,1
"3412",1,1,282,6,6,2,"1401c6b",33,1
"3512",1,1,305,5,5,2,"1401c6b",34,1
"3612",1,1,158,6,6,2,"1401c6b",35,1
"3712",0,1,250,1,3,2,"1401c6b",36,1
"3812",1,1,368,2,2,2,"1401c6b",37,1
"3912",0,1,333,1,5,2,"1401c6b",38,1
"4012",1,1,417,3,3,2,"1401c6b",39,1
"4116",0,1,294,2,1,2,"1401c6b",40,1
"4214",1,1,526,1,1,2,"1401c6b",41,1
"4312",0,1,540,1,4,2,"1401c6b",42,1
"4412",1,1,294,4,4,2,"1401c6b",43,1
"4512",0,1,154,1,6,2,"1401c6b",44,1
"4612",1,1,382,6,6,2,"1401c6b",45,1
"4712",1,1,1370,2,2,2,"1401c6b",46,1
"4812",0,1,881,1,6,2,"1401c6b",47,1
"4912",0,1,354,1,3,2,"1401c6b",48,1
"5012",0,0,589,4,4,2,"1401c6b",49,1
"5116",1,1,1434,3,3,2,"1401c6b",50,1
"5214",1,1,309,5,5,2,"1401c6b",51,1
"5312",1,1,163,1,1,2,"1401c6b",52,1
"5412",1,0,617,2,1,2,"1401c6b",53,1
"5512",0,1,466,5,1,2,"1401c6b",54,1
"5612",0,1,316,4,1,2,"1401c6b",55,1
"5712",1,1,1145,3,3,2,"1401c6b",56,1
"5812",1,1,1438,4,4,2,"1401c6b",57,1
"5912",0,0,677,5,5,2,"1401c6b",58,1
"6012",1,1,439,6,6,2,"1401c6b",59,1
"6116",0,1,449,5,1,2,"1401c6b",60,1
"6214",1,1,309,2,2,2,"1401c6b",61,1
"6312",0,1,42,6,1,2,"1401c6b",62,1
"6412",0,1,726,1,2,2,"1401c6b",63,1
"6512",0,1,837,1,4,2,"1401c6b",64,1
"6612",0,1,834,1,3,2,"1401c6b",65,1
"6712",0,0,24,1,1,2,"1401c6b",66,1
"6812",1,1,563,2,2,2,"1401c6b",67,1
"6912",1,0,372,1,5,2,"1401c6b",68,1
"7012",0,1,318,3,1,2,"1401c6b",69,1
"7116",1,1,294,5,5,2,"1401c6b",70,1
"7213",0,1,644,1,2,2,"1401c6b",71,1
"7312",1,1,112,6,6,2,"1401c6b",72,1
"7412",1,1,15,1,1,2,"1401c6b",73,1
"7512",0,1,668,1,6,2,"1401c6b",74,1
"7612",1,1,367,3,3,2,"1401c6b",75,1
"7712",1,0,1591,1,4,2,"1401c6b",76,1
"7812",1,1,465,4,4,2,"1401c6b",77,1
"270",0,1,476,1,5,2,"126edb8",1,1
"370",1,0,468,4,1,2,"126edb8",2,1
"470",0,0,461,2,2,2,"126edb8",3,1
"570",1,1,350,4,4,2,"126edb8",4,1
"670",0,1,578,1,6,2,"126edb8",5,1
"770",1,1,214,3,3,2,"126edb8",6,1
"813",1,1,504,1,1,2,"126edb8",7,1
"913",1,0,367,1,2,2,"126edb8",8,1
"1013",1,1,499,6,6,2,"126edb8",9,1
"1113",1,1,569,5,5,2,"126edb8",10,1
"1213",0,1,482,1,3,2,"126edb8",11,1
"1313",1,1,251,3,3,2,"126edb8",12,1
"1413",0,1,331,4,1,2,"126edb8",13,1
"1513",0,1,450,1,6,2,"126edb8",14,1
"1613",1,0,282,2,1,2,"126edb8",15,1
"1713",1,1,315,6,6,2,"126edb8",16,1
"1813",1,1,803,5,5,2,"126edb8",17,1
"1913",1,1,451,2,2,2,"126edb8",18,1
"2013",1,1,461,1,1,2,"126edb8",19,1
"2117",0,1,421,1,5,2,"126edb8",20,1
"2215",0,1,412,1,3,2,"126edb8",21,1
"2313",1,1,285,4,4,2,"126edb8",22,1
"2413",0,1,425,4,1,2,"126edb8",23,1
"2513",0,0,244,3,3,2,"126edb8",24,1
"2613",1,1,638,2,2,2,"126edb8",25,1
"2713",0,1,524,1,6,2,"126edb8",26,1
"2813",0,1,495,1,5,2,"126edb8",27,1
"2913",1,1,492,6,6,2,"126edb8",28,1
"3013",0,1,607,3,1,2,"126edb8",29,1
"3117",1,1,354,4,4,2,"126edb8",30,1
"3215",0,1,379,1,2,2,"126edb8",31,1
"3313",1,1,490,5,5,2,"126edb8",32,1
"3413",1,1,595,1,1,2,"126edb8",33,1
"3513",1,1,565,2,2,2,"126edb8",34,1
"3613",1,1,490,3,3,2,"126edb8",35,1
"3713",0,1,350,6,1,2,"126edb8",36,1
"3813",1,1,376,5,5,2,"126edb8",37,1
"3913",1,1,582,6,6,2,"126edb8",38,1
"4013",1,1,276,1,1,2,"126edb8",39,1
"4117",1,1,391,4,4,2,"126edb8",40,1
"4215",0,1,409,1,2,2,"126edb8",41,1
"4313",0,1,884,1,4,2,"126edb8",42,1
"4413",0,1,685,5,1,2,"126edb8",43,1
"4513",0,1,495,3,1,2,"126edb8",44,1
"4613",0,1,290,3,1,2,"126edb8",45,1
"4713",1,1,394,1,1,2,"126edb8",46,1
"4813",1,1,101,6,6,2,"126edb8",47,1
"4913",0,1,231,1,2,2,"126edb8",48,1
"5013",1,1,549,5,5,2,"126edb8",49,1
"5117",0,1,464,1,6,2,"126edb8",50,1
"5215",0,1,334,1,4,2,"126edb8",51,1
"5313",1,1,1032,3,3,2,"126edb8",52,1
"5413",1,1,445,2,2,2,"126edb8",53,1
"5513",0,1,464,1,5,2,"126edb8",54,1
"5613",1,1,367,4,4,2,"126edb8",55,1
"5713",0,1,415,2,1,2,"126edb8",56,1
"5813",1,1,357,3,3,2,"126edb8",57,1
"5913",1,1,358,1,1,2,"126edb8",58,1
"6013",1,1,572,6,6,2,"126edb8",59,1
"6117",1,1,535,4,4,2,"126edb8",60,1
"6215",0,1,496,5,1,2,"126edb8",61,1
"6313",1,1,420,2,2,2,"126edb8",62,1
"6413",0,1,789,4,1,2,"126edb8",63,1
"6513",0,1,732,1,6,2,"126edb8",64,1
"6613",1,1,519,5,5,2,"126edb8",65,1
"6713",0,1,465,1,3,2,"126edb8",66,1
"6813",1,1,303,5,5,2,"126edb8",67,1
"6913",0,1,317,1,3,2,"126edb8",68,1
"7013",0,1,298,5,1,2,"126edb8",69,1
"7117",1,1,454,1,1,2,"126edb8",70,1
"7214",1,1,439,2,2,2,"126edb8",71,1
"7313",1,1,638,4,4,2,"126edb8",72,1
"7413",1,1,294,3,3,2,"126edb8",73,1
"7513",0,1,340,1,2,2,"126edb8",74,1
"7613",1,1,487,6,6,2,"126edb8",75,1
"7713",0,1,438,1,6,2,"126edb8",76,1
"7813",0,1,344,4,1,2,"126edb8",77,1
"280",1,0,1188,1,2,1,"1838a2f",1,1
"380",0,1,78,1,6,1,"1838a2f",2,1
"480",0,0,518,2,2,1,"1838a2f",3,1
"580",-1,-1,0,5,5,1,"1838a2f",4,1
"680",0,1,1056,1,4,1,"1838a2f",5,1
"780",0,1,1333,1,5,1,"1838a2f",6,1
"814",1,1,390,3,3,1,"1838a2f",7,1
"914",1,1,245,4,4,1,"1838a2f",8,1
"1014",1,1,501,1,1,1,"1838a2f",9,1
"1114",1,1,442,6,6,1,"1838a2f",10,1
"1214",0,1,352,1,3,1,"1838a2f",11,1
"1314",1,1,310,5,5,1,"1838a2f",12,1
"1414",0,1,348,1,3,1,"1838a2f",13,1
"1514",1,1,529,4,4,1,"1838a2f",14,1
"1614",1,1,203,3,3,1,"1838a2f",15,1
"1714",0,1,315,1,4,1,"1838a2f",16,1
"1814",1,1,788,2,2,1,"1838a2f",17,1
"1914",0,1,896,2,1,1,"1838a2f",18,1
"2014",0,1,89,5,1,1,"1838a2f",19,1
"2118",0,1,175,1,6,1,"1838a2f",20,1
"2216",1,1,653,6,6,1,"1838a2f",21,1
"2314",1,1,1385,1,1,1,"1838a2f",22,1
"2414",1,1,272,5,5,1,"1838a2f",23,1
"2514",0,1,177,1,3,1,"1838a2f",24,1
"2614",0,1,233,2,1,1,"1838a2f",25,1
"2714",1,1,357,4,4,1,"1838a2f",26,1
"2814",1,1,291,3,3,1,"1838a2f",27,1
"2914",0,1,134,6,1,1,"1838a2f",28,1
"3014",1,1,164,1,1,1,"1838a2f",29,1
"3118",1,1,622,2,2,1,"1838a2f",30,1
"3216",0,1,122,1,4,1,"1838a2f",31,1
"3314",1,1,93,6,6,1,"1838a2f",32,1
"3414",0,1,27,1,5,1,"1838a2f",33,1
"3514",0,1,193,5,1,1,"1838a2f",34,1
"3614",0,1,79,3,1,1,"1838a2f",35,1
"3714",1,1,788,6,6,1,"1838a2f",36,1
"3814",1,1,392,1,1,1,"1838a2f",37,1
"3914",-1,-1,0,5,5,1,"1838a2f",38,1
"4014",0,1,538,1,6,1,"1838a2f",39,1
"4118",1,1,278,4,4,1,"1838a2f",40,1
"4216",0,1,52,2,1,1,"1838a2f",41,1
"4314",0,1,436,4,1,1,"1838a2f",42,1
"4414",1,1,237,2,2,1,"1838a2f",43,1
"4514",1,1,47,3,3,1,"1838a2f",44,1
"4614",1,1,200,3,3,1,"1838a2f",45,1
"4714",0,1,408,1,4,1,"1838a2f",46,1
"4814",0,1,1429,2,1,1,"1838a2f",47,1
"4914",1,1,392,4,4,1,"1838a2f",48,1
"5014",1,1,402,2,2,1,"1838a2f",49,1
"5118",0,1,262,1,6,1,"1838a2f",50,1
"5216",0,1,254,1,3,1,"1838a2f",51,1
"5314",0,1,446,5,1,1,"1838a2f",52,1
"5414",1,1,206,1,1,1,"1838a2f",53,1
"5514",1,1,280,6,6,1,"1838a2f",54,1
"5614",1,1,101,5,5,1,"1838a2f",55,1
"5714",1,1,834,6,6,1,"1838a2f",56,1
"5814",-1,-1,0,1,6,1,"1838a2f",57,1
"5914",-1,-1,0,3,1,1,"1838a2f",58,1
"6014",1,1,460,1,1,1,"1838a2f",59,1
"6118",0,1,260,1,4,1,"1838a2f",60,1
"6216",0,1,286,1,5,1,"1838a2f",61,1
"6314",1,1,248,4,4,1,"1838a2f",62,1
"6414",0,1,776,1,2,1,"1838a2f",63,1
"6514",1,1,324,3,3,1,"1838a2f",64,1
"6614",1,1,455,5,5,1,"1838a2f",65,1
"6714",1,1,509,2,2,1,"1838a2f",66,1
"6814",1,1,461,6,6,1,"1838a2f",67,1
"6914",1,1,442,1,1,1,"1838a2f",68,1
"7014",1,1,387,2,2,1,"1838a2f",69,1
"7118",1,1,400,4,4,1,"1838a2f",70,1
"7215",0,1,336,4,1,1,"1838a2f",71,1
"7314",1,1,487,3,3,1,"1838a2f",72,1
"7414",0,1,601,1,5,1,"1838a2f",73,1
"7514",0,1,535,3,1,1,"1838a2f",74,1
"7614",1,1,151,5,5,1,"1838a2f",75,1
"7714",0,1,153,1,6,1,"1838a2f",76,1
"7814",0,1,1264,1,2,1,"1838a2f",77,1
"290",0,1,408,1,4,3,"ca3c2f7",1,1
"390",1,1,311,5,5,3,"ca3c2f7",2,1
"490",1,0,406,6,1,3,"ca3c2f7",3,1
"590",0,1,420,1,5,3,"ca3c2f7",4,1
"690",1,1,402,2,2,3,"ca3c2f7",5,1
"790",0,0,333,3,3,3,"ca3c2f7",6,1
"815",1,0,831,3,1,3,"ca3c2f7",7,1
"915",0,1,301,1,2,3,"ca3c2f7",8,1
"1015",1,1,560,1,1,3,"ca3c2f7",9,1
"1115",0,0,1187,4,4,3,"ca3c2f7",10,1
"1215",1,1,671,6,6,3,"ca3c2f7",11,1
"1315",0,1,365,6,1,3,"ca3c2f7",12,1
"1415",1,1,289,4,4,3,"ca3c2f7",13,1
"1515",0,0,319,2,2,3,"ca3c2f7",14,1
"1615",1,0,266,1,2,3,"ca3c2f7",15,1
"1715",0,0,296,6,6,3,"ca3c2f7",16,1
"1815",1,0,296,1,4,3,"ca3c2f7",17,1
"1915",0,0,297,1,1,3,"ca3c2f7",18,1
"2015",1,1,309,5,5,3,"ca3c2f7",19,1
"2119",1,1,263,3,3,3,"ca3c2f7",20,1
"2217",1,0,531,3,1,3,"ca3c2f7",21,1
"2315",0,1,432,1,5,3,"ca3c2f7",22,1
"2415",0,1,323,1,4,3,"ca3c2f7",23,1
"2515",1,1,263,3,3,3,"ca3c2f7",24,1
"2615",1,1,286,4,4,3,"ca3c2f7",25,1
"2715",0,1,270,1,6,3,"ca3c2f7",26,1
"2815",1,1,355,2,2,3,"ca3c2f7",27,1
"2915",1,1,322,5,5,3,"ca3c2f7",28,1
"3015",1,0,283,2,1,3,"ca3c2f7",29,1
"3119",0,1,277,5,1,3,"ca3c2f7",30,1
"3217",0,1,290,1,3,3,"ca3c2f7",31,1
"3315",1,1,260,1,1,3,"ca3c2f7",32,1
"3415",1,1,266,6,6,3,"ca3c2f7",33,1
"3515",0,1,543,5,1,3,"ca3c2f7",34,1
"3615",1,1,248,1,1,3,"ca3c2f7",35,1
"3715",0,1,286,3,1,3,"ca3c2f7",36,1
"3815",1,1,249,2,2,3,"ca3c2f7",37,1
"3915",0,1,222,6,1,3,"ca3c2f7",38,1
"4015",0,1,261,1,4,3,"ca3c2f7",39,1
"4119",0,0,192,3,3,3,"ca3c2f7",40,1
"4217",1,1,234,6,6,3,"ca3c2f7",41,1
"4315",0,1,275,2,1,3,"ca3c2f7",42,1
"4415",1,1,152,5,5,3,"ca3c2f7",43,1
"4515",1,1,103,4,4,3,"ca3c2f7",44,1
"4615",1,1,274,1,1,3,"ca3c2f7",45,1
"4715",1,1,738,2,2,3,"ca3c2f7",46,1
"4815",1,1,251,5,5,3,"ca3c2f7",47,1
"4915",1,1,363,3,3,3,"ca3c2f7",48,1
"5015",0,1,312,3,1,3,"ca3c2f7",49,1
"5119",0,1,260,6,1,3,"ca3c2f7",50,1
"5217",0,1,344,2,1,3,"ca3c2f7",51,1
"5315",0,1,340,5,1,3,"ca3c2f7",52,1
"5415",1,1,453,4,4,3,"ca3c2f7",53,1
"5515",0,1,290,1,4,3,"ca3c2f7",54,1
"5615",1,1,396,6,6,3,"ca3c2f7",55,1
"5715",1,1,329,3,3,3,"ca3c2f7",56,1
"5815",1,1,779,5,5,3,"ca3c2f7",57,1
"5915",0,1,993,4,1,3,"ca3c2f7",58,1
"6015",1,1,386,2,2,3,"ca3c2f7",59,1
"6119",0,1,268,1,3,3,"ca3c2f7",60,1
"6217",0,1,273,5,1,3,"ca3c2f7",61,1
"6315",0,1,281,1,2,3,"ca3c2f7",62,1
"6415",0,1,241,6,1,3,"ca3c2f7",63,1
"6515",1,1,246,1,1,3,"ca3c2f7",64,1
"6615",1,1,312,4,4,3,"ca3c2f7",65,1
"6715",1,1,299,6,6,3,"ca3c2f7",66,1
"6815",0,1,270,4,1,3,"ca3c2f7",67,1
"6915",1,1,486,4,4,3,"ca3c2f7",68,1
"7015",0,1,430,5,1,3,"ca3c2f7",69,1
"7119",0,1,496,3,1,3,"ca3c2f7",70,1
"7216",1,0,294,1,2,3,"ca3c2f7",71,1
"7315",1,1,287,6,6,3,"ca3c2f7",72,1
"7415",1,1,254,5,5,3,"ca3c2f7",73,1
"7515",1,1,291,2,2,3,"ca3c2f7",74,1
"7615",1,1,261,1,1,3,"ca3c2f7",75,1
"7715",0,1,391,6,1,3,"ca3c2f7",76,1
"7815",1,1,266,3,3,3,"ca3c2f7",77,1
"2100",1,1,797,5,5,3,"183caf5",1,1
"3100",1,1,366,4,4,3,"183caf5",2,1
"4100",1,0,230,3,1,3,"183caf5",3,1
"5100",0,1,294,6,1,3,"183caf5",4,1
"6100",1,0,255,2,1,3,"183caf5",5,1
"791",0,1,751,5,1,3,"183caf5",6,1
"816",0,1,309,1,4,3,"183caf5",7,1
"916",1,1,1561,1,1,3,"183caf5",8,1
"1016",1,1,990,2,2,3,"183caf5",9,1
"1116",0,0,590,6,6,3,"183caf5",10,1
"1216",1,1,255,3,3,3,"183caf5",11,1
"1316",1,1,346,6,6,3,"183caf5",12,1
"1416",1,1,260,1,1,3,"183caf5",13,1
"1516",1,1,275,2,2,3,"183caf5",14,1
"1616",1,1,402,3,3,3,"183caf5",15,1
"1716",0,0,289,5,5,3,"183caf5",16,1
"1816",0,1,364,1,4,3,"183caf5",17,1
"1916",0,1,368,1,3,3,"183caf5",18,1
"2016",1,0,664,1,5,3,"183caf5",19,1
"2120",-1,-1,0,4,4,3,"183caf5",20,1
"2218",0,1,502,1,6,3,"183caf5",21,1
"2316",0,1,359,2,1,3,"183caf5",22,1
"2416",1,1,462,4,4,3,"183caf5",23,1
"2516",1,1,500,2,2,3,"183caf5",24,1
"2616",1,1,436,5,5,3,"183caf5",25,1
"2716",1,1,220,3,3,3,"183caf5",26,1
"2816",0,1,432,6,1,3,"183caf5",27,1
"2916",1,1,388,1,1,3,"183caf5",28,1
"3016",1,1,290,6,6,3,"183caf5",29,1
"3120",0,1,470,3,1,3,"183caf5",30,1
"3218",0,1,270,4,1,3,"183caf5",31,1
"3316",0,1,300,1,2,3,"183caf5",32,1
"3416",0,1,432,5,1,3,"183caf5",33,1
"3516",1,1,325,2,2,3,"183caf5",34,1
"3616",0,1,1029,1,5,3,"183caf5",35,1
"3716",0,1,256,1,3,3,"183caf5",36,1
"3816",1,1,245,1,1,3,"183caf5",37,1
"3916",1,1,305,6,6,3,"183caf5",38,1
"4016",1,1,267,3,3,3,"183caf5",39,1
"4120",0,1,1497,2,1,3,"183caf5",40,1
"4218",1,1,296,4,4,3,"183caf5",41,1
"4316",0,1,392,1,4,3,"183caf5",42,1
"4416",1,1,439,5,5,3,"183caf5",43,1
"4516",0,1,975,6,1,3,"183caf5",44,1
"4616",0,1,264,3,1,3,"183caf5",45,1
"4716",1,1,334,4,4,3,"183caf5",46,1
"4816",1,1,339,5,5,3,"183caf5",47,1
"4916",0,1,672,6,1,3,"183caf5",48,1
"5016",0,1,370,1,5,3,"183caf5",49,1
"5120",1,1,423,1,1,3,"183caf5",50,1
"5218",0,1,363,4,1,3,"183caf5",51,1
"5316",1,1,522,6,6,3,"183caf5",52,1
"5416",1,1,262,2,2,3,"183caf5",53,1
"5516",0,1,347,1,2,3,"183caf5",54,1
"5616",1,1,552,3,3,3,"183caf5",55,1
"5716",0,1,242,4,1,3,"183caf5",56,1
"5816",1,1,396,4,4,3,"183caf5",57,1
"5916",1,1,320,6,6,3,"183caf5",58,1
"6016",0,1,408,1,2,3,"183caf5",59,1
"6120",1,1,1037,1,1,3,"183caf5",60,1
"6218",1,1,525,3,3,3,"183caf5",61,1
"6316",0,1,523,6,1,3,"183caf5",62,1
"6416",0,1,794,3,1,3,"183caf5",63,1
"6516",1,1,774,5,5,3,"183caf5",64,1
"6616",0,1,540,1,5,3,"183caf5",65,1
"6716",1,1,560,2,2,3,"183caf5",66,1
"6816",0,1,292,1,3,3,"183caf5",67,1
"6916",0,1,461,4,1,3,"183caf5",68,1
"7016",1,1,392,1,1,3,"183caf5",69,1
"7120",1,1,1265,5,5,3,"183caf5",70,1
"7217",0,1,595,1,6,3,"183caf5",71,1
"7316",0,1,383,2,1,3,"183caf5",72,1
"7416",1,1,912,4,4,3,"183caf5",73,1
"7516",0,0,662,3,3,3,"183caf5",74,1
"7616",0,1,475,5,1,3,"183caf5",75,1
"7716",1,1,440,6,6,3,"183caf5",76,1
"7816",1,1,288,2,2,3,"183caf5",77,1
"2101",0,1,331,1,5,2,"122c84a",1,1
"3101",0,1,280,1,4,2,"122c84a",2,1
"4101",1,1,217,2,2,2,"122c84a",3,1
"5101",1,1,199,5,5,2,"122c84a",4,1
"6101",0,1,253,2,1,2,"122c84a",5,1
"792",1,1,300,6,6,2,"122c84a",6,1
"817",1,1,318,4,4,2,"122c84a",7,1
"917",1,1,285,1,1,2,"122c84a",8,1
"1017",0,1,363,1,6,2,"122c84a",9,1
"1117",0,0,392,3,3,2,"122c84a",10,1
"1217",0,1,227,1,3,2,"122c84a",11,1
"1317",1,1,231,2,2,2,"122c84a",12,1
"1417",1,1,296,1,1,2,"122c84a",13,1
"1517",0,1,365,6,1,2,"122c84a",14,1
"1617",1,1,295,4,4,2,"122c84a",15,1
"1717",1,1,195,6,6,2,"122c84a",16,1
"1817",1,1,214,5,5,2,"122c84a",17,1
"1917",0,1,354,5,1,2,"122c84a",18,1
"2017",0,1,460,1,3,2,"122c84a",19,1
"2121",1,1,500,3,3,2,"122c84a",20,1
"2219",0,1,114,1,2,2,"122c84a",21,1
"2317",0,1,230,1,4,2,"122c84a",22,1
"2417",0,0,181,6,6,2,"122c84a",23,1
"2517",0,1,144,1,2,2,"122c84a",24,1
"2617",1,1,317,5,5,2,"122c84a",25,1
"2717",1,1,230,3,3,2,"122c84a",26,1
"2817",0,1,256,1,6,2,"122c84a",27,1
"2917",1,1,610,4,4,2,"122c84a",28,1
"3017",0,1,341,3,1,2,"122c84a",29,1
"3121",1,1,256,2,2,2,"122c84a",30,1
"3219",0,0,257,1,1,2,"122c84a",31,1
"3317",0,1,232,1,4,2,"122c84a",32,1
"3417",0,1,173,1,5,2,"122c84a",33,1
"3517",0,1,247,1,2,2,"122c84a",34,1
"3617",0,1,103,1,4,2,"122c84a",35,1
"3717",1,1,293,1,1,2,"122c84a",36,1
"3817",1,1,1002,6,6,2,"122c84a",37,1
"3917",1,1,317,3,3,2,"122c84a",38,1
"4017",1,1,324,4,4,2,"122c84a",39,1
"4121",0,1,294,3,1,2,"122c84a",40,1
"4219",0,1,647,1,6,2,"122c84a",41,1
"4317",1,1,382,2,2,2,"122c84a",42,1
"4417",0,1,292,5,1,2,"122c84a",43,1
"4517",1,1,318,5,5,2,"122c84a",44,1
"4617",0,1,305,1,6,2,"122c84a",45,1
"4717",1,1,253,3,3,2,"122c84a",46,1
"4817",0,1,415,3,1,2,"122c84a",47,1
"4917",0,1,388,5,1,2,"122c84a",48,1
"5017",1,1,281,5,5,2,"122c84a",49,1
"5121",1,1,264,4,4,2,"122c84a",50,1
"5219",1,0,175,2,1,2,"122c84a",51,1
"5317",1,1,133,1,1,2,"122c84a",52,1
"5417",1,1,199,6,6,2,"122c84a",53,1
"5517",1,1,257,2,2,2,"122c84a",54,1
"5617",0,1,447,4,1,2,"122c84a",55,1
"5717",1,1,269,5,5,2,"122c84a",56,1
"5817",1,1,276,4,4,2,"122c84a",57,1
"5917",0,1,754,1,3,2,"122c84a",58,1
"6017",0,1,309,1,5,2,"122c84a",59,1
"6121",1,1,239,1,1,2,"122c84a",60,1
"6219",1,1,421,6,6,2,"122c84a",61,1
"6317",0,1,279,1,2,2,"122c84a",62,1
"6417",0,1,326,1,6,2,"122c84a",63,1
"6517",1,1,332,2,2,2,"122c84a",64,1
"6617",1,1,269,3,3,2,"122c84a",65,1
"6717",1,0,1404,4,1,2,"122c84a",66,1
"6817",0,1,315,1,2,2,"122c84a",67,1
"6917",1,1,267,4,4,2,"122c84a",68,1
"7017",1,1,255,5,5,2,"122c84a",69,1
"7121",1,1,216,2,2,2,"122c84a",70,1
"7218",0,1,435,3,1,2,"122c84a",71,1
"7317",1,1,302,3,3,2,"122c84a",72,1
"7417",1,1,258,6,6,2,"122c84a",73,1
"7517",0,1,455,1,4,2,"122c84a",74,1
"7617",1,1,210,1,1,2,"122c84a",75,1
"7717",0,1,336,1,6,2,"122c84a",76,1
"7817",0,1,256,5,1,2,"122c84a",77,1
"2102",1,1,525,3,3,1,"1464043",1,1
"3102",1,1,354,5,5,1,"1464043",2,1
"4102",1,1,372,1,1,1,"1464043",3,1
"5102",0,1,1964,1,3,1,"1464043",4,1
"6102",1,1,1071,6,6,1,"1464043",5,1
"793",1,1,410,2,2,1,"1464043",6,1
"818",0,1,316,4,1,1,"1464043",7,1
"918",1,1,1193,4,4,1,"1464043",8,1
"1018",0,1,346,1,6,1,"1464043",9,1
"1118",0,1,424,2,1,1,"1464043",10,1
"1218",0,1,500,1,5,1,"1464043",11,1
"1318",1,1,530,2,2,1,"1464043",12,1
"1418",1,1,469,5,5,1,"1464043",13,1
"1518",1,1,492,4,4,1,"1464043",14,1
"1618",0,1,442,6,1,1,"1464043",15,1
"1718",0,1,234,5,1,1,"1464043",16,1
"1818",0,1,291,1,2,1,"1464043",17,1
"1918",-1,NA,NA,NA,NA,NA,"1464043",18,1
"2103",0,1,118,1,3,2,"16e67ef",1,1
"3103",0,1,621,1,6,2,"16e67ef",2,1
"4103",0,1,372,1,2,2,"16e67ef",3,1
"5103",0,0,252,3,3,2,"16e67ef",4,1
"6103",1,1,601,4,4,2,"16e67ef",5,1
"794",1,1,278,1,1,2,"16e67ef",6,1
"819",1,1,441,6,6,2,"16e67ef",7,1
"919",1,1,285,2,2,2,"16e67ef",8,1
"1019",1,1,286,5,5,2,"16e67ef",9,1
"1119",0,1,384,5,1,2,"16e67ef",10,1
"1219",0,1,421,4,1,2,"16e67ef",11,1
"1319",0,1,339,1,6,2,"16e67ef",12,1
"1419",1,1,309,6,6,2,"16e67ef",13,1
"1519",1,1,315,2,2,2,"16e67ef",14,1
"1619",1,1,551,5,5,2,"16e67ef",15,1
"1719",1,1,261,3,3,2,"16e67ef",16,1
"1819",1,0,678,1,3,2,"16e67ef",17,1
"1919",1,1,216,4,4,2,"16e67ef",18,1
"2018",0,1,381,1,2,2,"16e67ef",19,1
"2122",0,1,347,5,1,2,"16e67ef",20,1
"2220",0,1,445,4,1,2,"16e67ef",21,1
"2318",1,1,292,1,1,2,"16e67ef",22,1
"2418",1,1,358,5,5,2,"16e67ef",23,1
"2518",1,1,266,1,1,2,"16e67ef",24,1
"2618",0,1,334,4,1,2,"16e67ef",25,1
"2718",1,1,862,2,2,2,"16e67ef",26,1
"2818",1,1,379,4,4,2,"16e67ef",27,1
"2918",1,1,296,3,3,2,"16e67ef",28,1
"3018",0,1,462,3,1,2,"16e67ef",29,1
"3122",1,1,1407,6,6,2,"16e67ef",30,1
"3220",0,1,487,1,6,2,"16e67ef",31,1
"3318",0,1,680,5,1,2,"16e67ef",32,1
"3418",0,1,851,2,1,2,"16e67ef",33,1
"3518",1,1,1600,1,1,2,"16e67ef",34,1
"3618",1,1,718,3,3,2,"16e67ef",35,1
"3718",0,1,373,1,5,2,"16e67ef",36,1
"3818",0,1,348,1,4,2,"16e67ef",37,1
"3918",1,1,437,4,4,2,"16e67ef",38,1
"4018",1,1,547,6,6,2,"16e67ef",39,1
"4122",1,1,608,2,2,2,"16e67ef",40,1
"4220",1,1,326,5,5,2,"16e67ef",41,1
"4318",0,1,1128,1,3,2,"16e67ef",42,1
"4418",0,1,1140,6,1,2,"16e67ef",43,1
"4518",0,1,1190,2,1,2,"16e67ef",44,1
"4618",1,1,1271,4,4,2,"16e67ef",45,1
"4718",1,1,1508,1,1,2,"16e67ef",46,1
"4818",0,1,1043,2,1,2,"16e67ef",47,1
"4918",1,1,365,6,6,2,"16e67ef",48,1
"5018",1,1,537,2,2,2,"16e67ef",49,1
"5122",1,1,486,3,3,2,"16e67ef",50,1
"5220",1,1,410,5,5,2,"16e67ef",51,1
"5318",0,1,689,6,1,2,"16e67ef",52,1
"5418",0,1,1527,1,5,2,"16e67ef",53,1
"5518",0,1,327,1,4,2,"16e67ef",54,1
"5618",0,1,348,3,1,2,"16e67ef",55,1
"5718",1,1,419,1,1,2,"16e67ef",56,1
"5818",0,1,534,1,6,2,"16e67ef",57,1
"5918",0,1,304,1,4,2,"16e67ef",58,1
"6018",0,0,319,2,2,2,"16e67ef",59,1
"6122",0,1,331,3,1,2,"16e67ef",60,1
"6220",0,1,315,5,1,2,"16e67ef",61,1
"6318",1,1,314,3,3,2,"16e67ef",62,1
"6418",1,1,566,5,5,2,"16e67ef",63,1
"6518",0,1,116,2,1,2,"16e67ef",64,1
"6618",1,1,475,4,4,2,"16e67ef",65,1
"6718",1,1,290,6,6,2,"16e67ef",66,1
"6818",1,1,491,4,4,2,"16e67ef",67,1
"6918",1,1,660,2,2,2,"16e67ef",68,1
"7018",1,1,362,5,5,2,"16e67ef",69,1
"7122",1,1,313,1,1,2,"16e67ef",70,1
"7219",0,1,724,4,1,2,"16e67ef",71,1
"7318",0,1,692,2,1,2,"16e67ef",72,1
"7418",1,1,232,6,6,2,"16e67ef",73,1
"7518",0,1,460,6,1,2,"16e67ef",74,1
"7618",0,1,926,1,5,2,"16e67ef",75,1
"7718",1,1,84,3,3,2,"16e67ef",76,1
"7818",0,1,339,3,1,2,"16e67ef",77,1
"2104",1,1,1600,1,1,3,"1ca989b",1,1
"3104",1,1,500,2,2,3,"1ca989b",2,1
"4104",1,0,300,6,1,3,"1ca989b",3,1
"5104",0,0,600,6,6,3,"1ca989b",4,1
"6104",1,1,400,4,4,3,"1ca989b",5,1
"795",1,1,500,3,3,3,"1ca989b",6,1
"820",1,0,500,3,1,3,"1ca989b",7,1
"920",1,1,400,5,5,3,"1ca989b",8,1
"1020",1,0,400,4,1,3,"1ca989b",9,1
"1120",1,0,500,1,2,3,"1ca989b",10,1
"1220",1,0,700,5,1,3,"1ca989b",11,1
"1320",1,0,900,2,1,3,"1ca989b",12,1
"1420",0,0,500,4,4,3,"1ca989b",13,1
"1520",0,0,300,5,5,3,"1ca989b",14,1
"1620",1,0,200,3,1,3,"1ca989b",15,1
"1720",1,1,400,2,2,3,"1ca989b",16,1
"1820",1,1,500,1,1,3,"1ca989b",17,1
"1920",1,0,300,1,4,3,"1ca989b",18,1
"2019",0,0,400,6,6,3,"1ca989b",19,1
"2123",1,0,700,6,1,3,"1ca989b",20,1
"2221",1,1,1100,3,3,3,"1ca989b",21,1
"2319",1,0,500,1,5,3,"1ca989b",22,1
"2419",1,1,400,2,2,3,"1ca989b",23,1
"2519",1,0,300,4,1,3,"1ca989b",24,1
"2619",1,1,600,5,5,3,"1ca989b",25,1
"2719",1,0,300,3,1,3,"1ca989b",26,1
"2819",1,1,300,1,1,3,"1ca989b",27,1
"2919",1,1,100,4,4,3,"1ca989b",28,1
"3019",1,0,700,5,1,3,"1ca989b",29,1
"3123",1,1,400,6,6,3,"1ca989b",30,1
"3221",0,1,600,6,1,3,"1ca989b",31,1
"3319",1,0,400,1,2,3,"1ca989b",32,1
"3419",1,1,400,3,3,3,"1ca989b",33,1
"3519",1,0,400,3,1,3,"1ca989b",34,1
"3619",1,1,300,2,2,3,"1ca989b",35,1
"3719",0,1,400,4,1,3,"1ca989b",36,1
"3819",1,1,300,6,6,3,"1ca989b",37,1
"3919",0,1,300,1,5,3,"1ca989b",38,1
"4019",1,1,300,1,1,3,"1ca989b",39,1
"4123",1,1,400,4,4,3,"1ca989b",40,1
"4221",0,1,600,6,1,3,"1ca989b",41,1
"4319",1,1,500,3,3,3,"1ca989b",42,1
"4419",1,0,500,2,1,3,"1ca989b",43,1
"4519",1,1,400,5,5,3,"1ca989b",44,1
"4619",1,1,400,6,6,3,"1ca989b",45,1
"4719",0,0,400,2,2,3,"1ca989b",46,1
"4819",0,1,400,1,4,3,"1ca989b",47,1
"4919",0,1,1000,1,2,3,"1ca989b",48,1
"5019",1,1,400,4,4,3,"1ca989b",49,1
"5123",0,1,400,1,5,3,"1ca989b",50,1
"5221",1,1,400,1,1,3,"1ca989b",51,1
"5319",1,1,300,5,5,3,"1ca989b",52,1
"5419",0,1,400,3,1,3,"1ca989b",53,1
"5519",0,1,600,6,1,3,"1ca989b",54,1
"5619",1,1,500,3,3,3,"1ca989b",55,1
"5719",1,1,500,3,3,3,"1ca989b",56,1
"5819",1,1,500,4,4,3,"1ca989b",57,1
"5919",0,1,500,2,1,3,"1ca989b",58,1
"6019",1,1,900,5,5,3,"1ca989b",59,1
"6123",0,1,900,4,1,3,"1ca989b",60,1
"6221",1,1,400,2,2,3,"1ca989b",61,1
"6319",0,1,500,1,3,3,"1ca989b",62,1
"6419",1,1,700,1,1,3,"1ca989b",63,1
"6519",0,1,900,1,5,3,"1ca989b",64,1
"6619",1,1,800,6,6,3,"1ca989b",65,1
"6719",0,1,700,1,6,3,"1ca989b",66,1
"6819",1,1,600,6,6,3,"1ca989b",67,1
"6919",1,1,1400,3,3,3,"1ca989b",68,1
"7019",0,0,300,1,1,3,"1ca989b",69,1
"7123",0,1,500,6,1,3,"1ca989b",70,1
"7220",0,1,900,1,3,3,"1ca989b",71,1
"7319",1,1,300,5,5,3,"1ca989b",72,1
"7419",0,1,300,4,1,3,"1ca989b",73,1
"7519",1,1,400,4,4,3,"1ca989b",74,1
"7619",1,1,400,2,2,3,"1ca989b",75,1
"7719",0,1,700,5,1,3,"1ca989b",76,1
"7819",1,0,700,1,2,3,"1ca989b",77,1
"2105",0,0,1379,4,4,3,"1d01769",1,1
"3105",1,1,635,1,1,3,"1d01769",2,1
"4105",1,0,480,1,6,3,"1d01769",3,1
"5105",1,0,558,2,1,3,"1d01769",4,1
"6105",1,0,638,4,1,3,"1d01769",5,1
"796",0,0,536,5,5,3,"1d01769",6,1
"821",1,1,1039,6,6,3,"1d01769",7,1
"921",1,0,584,1,5,3,"1d01769",8,1
"1021",1,1,673,3,3,3,"1d01769",9,1
"1121",1,1,583,2,2,3,"1d01769",10,1
"1221",0,1,729,1,3,3,"1d01769",11,1
"1321",1,1,611,3,3,3,"1d01769",12,1
"1421",1,1,548,6,6,3,"1d01769",13,1
"1521",1,0,481,1,2,3,"1d01769",14,1
"1621",0,1,626,3,1,3,"1d01769",15,1
"1721",0,1,428,5,1,3,"1d01769",16,1
"1821",0,1,760,1,4,3,"1d01769",17,1
"1921",1,1,448,4,4,3,"1d01769",18,1
"2020",0,1,386,6,1,3,"1d01769",19,1
"2124",1,1,491,5,5,3,"1d01769",20,1
"2222",1,1,505,1,1,3,"1d01769",21,1
"2320",1,1,478,2,2,3,"1d01769",22,1
"2420",1,1,477,3,3,3,"1d01769",23,1
"2520",1,1,608,5,5,3,"1d01769",24,1
"2620",1,1,507,6,6,3,"1d01769",25,1
"2720",1,1,530,1,1,3,"1d01769",26,1
"2820",1,1,456,2,2,3,"1d01769",27,1
"2920",1,0,749,1,2,3,"1d01769",28,1
"3020",0,1,347,1,4,3,"1d01769",29,1
"3124",0,1,450,3,1,3,"1d01769",30,1
"3222",1,1,486,4,4,3,"1d01769",31,1
"3320",0,1,380,1,5,3,"1d01769",32,1
"3420",0,1,353,6,1,3,"1d01769",33,1
"3520",0,1,740,1,6,3,"1d01769",34,1
"3620",0,1,479,5,1,3,"1d01769",35,1
"3720",1,1,584,4,4,3,"1d01769",36,1
"3820",0,1,478,1,3,3,"1d01769",37,1
"3920",1,1,310,6,6,3,"1d01769",38,1
"4020",1,1,485,3,3,3,"1d01769",39,1
"4124",0,1,374,1,4,3,"1d01769",40,1
"4222",1,1,351,2,2,3,"1d01769",41,1
"4320",1,1,483,5,5,3,"1d01769",42,1
"4420",0,1,434,2,1,3,"1d01769",43,1
"4520",1,1,380,1,1,3,"1d01769",44,1
"4620",1,1,417,1,1,3,"1d01769",45,1
"4720",0,1,375,1,5,3,"1d01769",46,1
"4820",1,1,321,2,2,3,"1d01769",47,1
"4920",0,1,615,1,3,3,"1d01769",48,1
"5020",0,1,462,2,1,3,"1d01769",49,1
"5124",1,1,351,6,6,3,"1d01769",50,1
"5222",0,1,406,4,1,3,"1d01769",51,1
"5320",0,1,439,1,6,3,"1d01769",52,1
"5420",1,1,478,5,5,3,"1d01769",53,1
"5520",1,1,457,4,4,3,"1d01769",54,1
"5620",1,1,403,3,3,3,"1d01769",55,1
"5720",1,1,523,3,3,3,"1d01769",56,1
"5820",1,1,471,2,2,3,"1d01769",57,1
"5920",0,1,487,6,1,3,"1d01769",58,1
"6020",0,1,817,2,1,3,"1d01769",59,1
"6124",1,1,452,6,6,3,"1d01769",60,1
"6222",1,1,433,4,4,3,"1d01769",61,1
"6320",1,1,550,1,1,3,"1d01769",62,1
"6420",1,1,476,5,5,3,"1d01769",63,1
"6520",0,1,379,1,5,3,"1d01769",64,1
"6620",0,1,450,1,3,3,"1d01769",65,1
"6720",0,1,527,1,4,3,"1d01769",66,1
"6820",1,1,450,2,2,3,"1d01769",67,1
"6920",1,1,485,6,6,3,"1d01769",68,1
"7020",0,1,347,1,2,3,"1d01769",69,1
"7124",0,1,462,1,4,3,"1d01769",70,1
"7221",1,1,486,1,1,3,"1d01769",71,1
"7320",1,1,420,5,5,3,"1d01769",72,1
"7420",1,1,789,3,3,3,"1d01769",73,1
"7520",0,1,497,6,1,3,"1d01769",74,1
"7620",1,1,615,4,4,3,"1d01769",75,1
"7720",0,1,424,3,1,3,"1d01769",76,1
"7820",0,1,390,5,1,3,"1d01769",77,1
"2106",1,0,960,4,1,1,"9939cc0",1,1
"3106",0,1,528,2,1,1,"9939cc0",2,1
"4106",1,1,380,3,3,1,"9939cc0",3,1
"5106",0,0,329,2,2,1,"9939cc0",4,1
"6106",1,1,361,5,5,1,"9939cc0",5,1
"797",1,0,933,1,5,1,"9939cc0",6,1
"822",0,0,776,1,1,1,"9939cc0",7,1
"922",0,1,283,1,6,1,"9939cc0",8,1
"1022",1,0,111,3,1,1,"9939cc0",9,1
"1122",1,1,70,6,6,1,"9939cc0",10,1
"1222",1,1,289,4,4,1,"9939cc0",11,1
"1322",1,0,295,1,2,1,"9939cc0",12,1
"1422",0,0,445,2,2,1,"9939cc0",13,1
"1522",1,1,365,4,4,1,"9939cc0",14,1
"1622",0,1,274,1,5,1,"9939cc0",15,1
"1722",1,0,350,1,3,1,"9939cc0",16,1
"1822",0,0,511,3,3,1,"9939cc0",17,1
"1922",1,0,650,4,1,1,"9939cc0",18,1
"2021",-1,-1,0,1,1,1,"9939cc0",19,1
"2125",1,1,653,6,6,1,"9939cc0",20,1
"2223",0,1,455,1,6,1,"9939cc0",21,1
"2321",1,1,743,5,5,1,"9939cc0",22,1
"2421",0,0,431,5,5,1,"9939cc0",23,1
"2521",1,0,446,1,5,1,"9939cc0",24,1
"2621",1,0,403,4,1,1,"9939cc0",25,1
"2721",1,1,342,6,6,1,"9939cc0",26,1
"2821",0,0,317,1,1,1,"9939cc0",27,1
"2921",1,1,144,3,3,1,"9939cc0",28,1
"3021",1,0,275,1,2,1,"9939cc0",29,1
"3125",1,0,270,1,6,1,"9939cc0",30,1
"3223",0,0,300,4,4,1,"9939cc0",31,1
"3321",0,1,292,1,3,1,"9939cc0",32,1
"3421",0,0,281,2,2,1,"9939cc0",33,1
"3521",1,1,275,1,1,1,"9939cc0",34,1
"3621",0,1,293,5,1,1,"9939cc0",35,1
"3721",1,1,322,3,3,1,"9939cc0",36,1
"3821",0,1,335,1,4,1,"9939cc0",37,1
"3921",1,0,296,2,1,1,"9939cc0",38,1
"4021",0,1,364,1,3,1,"9939cc0",39,1
"4125",0,0,237,4,4,1,"9939cc0",40,1
"4223",0,0,334,5,5,1,"9939cc0",41,1
"4321",1,1,542,2,2,1,"9939cc0",42,1
"4421",1,0,297,6,1,1,"9939cc0",43,1
"4521",1,1,316,6,6,1,"9939cc0",44,1
"4621",1,0,408,1,2,1,"9939cc0",45,1
"4721",1,0,343,6,1,1,"9939cc0",46,1
"4821",1,1,240,3,3,1,"9939cc0",47,1
"4921",0,0,475,5,5,1,"9939cc0",48,1
"5021",1,0,456,1,3,1,"9939cc0",49,1
"5125",1,0,803,1,5,1,"9939cc0",50,1
"5223",0,0,207,1,1,1,"9939cc0",51,1
"5321",1,1,230,2,2,1,"9939cc0",52,1
"5421",0,0,337,4,4,1,"9939cc0",53,1
"5521",1,1,184,6,6,1,"9939cc0",54,1
"5621",0,1,503,1,4,1,"9939cc0",55,1
"5721",0,1,302,6,1,1,"9939cc0",56,1
"5821",1,1,289,2,2,1,"9939cc0",57,1
"5921",0,0,420,3,3,1,"9939cc0",58,1
"6021",1,1,225,6,6,1,"9939cc0",59,1
"6125",0,1,446,1,4,1,"9939cc0",60,1
"6223",1,1,322,5,5,1,"9939cc0",61,1
"6321",1,1,696,4,4,1,"9939cc0",62,1
"6421",1,0,559,1,3,1,"9939cc0",63,1
"6521",0,1,406,1,2,1,"9939cc0",64,1
"6621",1,1,413,1,1,1,"9939cc0",65,1
"6721",1,0,308,5,1,1,"9939cc0",66,1
"6821",1,1,290,3,3,1,"9939cc0",67,1
"6921",0,0,459,6,6,1,"9939cc0",68,1
"7021",1,1,433,4,4,1,"9939cc0",69,1
"7125",0,1,312,1,2,1,"9939cc0",70,1
"7222",1,0,345,1,6,1,"9939cc0",71,1
"7321",1,1,264,1,1,1,"9939cc0",72,1
"7421",0,1,283,1,3,1,"9939cc0",73,1
"7521",0,1,332,1,4,1,"9939cc0",74,1
"7621",1,0,501,1,5,1,"9939cc0",75,1
"7721",1,1,763,2,2,1,"9939cc0",76,1
"7821",0,0,1016,5,5,1,"9939cc0",77,1
"2107",1,0,872,3,1,2,"1140cdd",1,1
"3107",1,1,535,5,5,2,"1140cdd",2,1
"4107",1,0,615,4,1,2,"1140cdd",3,1
"5107",1,1,599,1,1,2,"1140cdd",4,1
"6107",0,0,510,2,2,2,"1140cdd",5,1
"798",1,1,553,4,4,2,"1140cdd",6,1
"823",1,1,482,3,3,2,"1140cdd",7,1
"923",0,0,631,6,6,2,"1140cdd",8,1
"1023",0,1,629,5,1,2,"1140cdd",9,1
"1123",0,1,666,6,1,2,"1140cdd",10,1
"1223",0,1,401,1,2,2,"1140cdd",11,1
"1323",0,0,441,6,6,2,"1140cdd",12,1
"1423",1,1,428,2,2,2,"1140cdd",13,1
"1523",0,1,401,1,6,2,"1140cdd",14,1
"1623",1,1,383,3,3,2,"1140cdd",15,1
"1723",0,1,351,1,4,2,"1140cdd",16,1
"1823",0,1,330,5,1,2,"1140cdd",17,1
"1923",0,1,326,2,1,2,"1140cdd",18,1
"2022",1,1,362,1,1,2,"1140cdd",19,1
"2126",1,1,407,4,4,2,"1140cdd",20,1
"2224",0,1,306,3,1,2,"1140cdd",21,1
"2322",1,1,340,5,5,2,"1140cdd",22,1
"2422",1,1,1317,2,2,2,"1140cdd",23,1
"2522",0,1,345,1,6,2,"1140cdd",24,1
"2622",0,1,448,1,5,2,"1140cdd",25,1
"2722",0,1,340,3,1,2,"1140cdd",26,1
"2822",0,0,299,6,6,2,"1140cdd",27,1
"2922",1,1,328,1,1,2,"1140cdd",28,1
"3022",1,1,365,4,4,2,"1140cdd",29,1
"3126",1,0,531,2,1,2,"1140cdd",30,1
"3224",1,1,289,5,5,2,"1140cdd",31,1
"3322",1,1,294,3,3,2,"1140cdd",32,1
"3422",0,1,425,1,4,2,"1140cdd",33,1
"3522",1,1,326,4,4,2,"1140cdd",34,1
"3622",1,1,611,6,6,2,"1140cdd",35,1
"3722",0,1,468,3,1,2,"1140cdd",36,1
"3822",1,0,571,1,2,2,"1140cdd",37,1
"3922",0,1,454,1,5,2,"1140cdd",38,1
"4022",1,1,482,5,5,2,"1140cdd",39,1
"4126",1,1,614,1,1,2,"1140cdd",40,1
"4224",0,1,341,1,6,2,"1140cdd",41,1
"4322",0,1,525,4,1,2,"1140cdd",42,1
"4422",1,1,470,3,3,2,"1140cdd",43,1
"4522",1,1,358,2,2,2,"1140cdd",44,1
"4622",1,1,391,1,1,2,"1140cdd",45,1
"4722",0,1,377,3,1,2,"1140cdd",46,1
"4822",0,1,427,6,1,2,"1140cdd",47,1
"4922",0,1,364,2,1,2,"1140cdd",48,1
"5022",1,1,377,4,4,2,"1140cdd",49,1
"5126",1,1,386,6,6,2,"1140cdd",50,1
"5224",1,1,483,3,3,2,"1140cdd",51,1
"5322",0,1,406,1,5,2,"1140cdd",52,1
"5422",0,1,395,4,1,2,"1140cdd",53,1
"5522",1,1,294,5,5,2,"1140cdd",54,1
"5622",1,1,493,2,2,2,"1140cdd",55,1
"5722",1,0,334,2,1,2,"1140cdd",56,1
"5822",1,1,407,6,6,2,"1140cdd",57,1
"5922",1,1,319,5,5,2,"1140cdd",58,1
"6022",0,1,427,6,1,2,"1140cdd",59,1
"6126",0,1,400,1,5,2,"1140cdd",60,1
"6224",0,1,368,4,1,2,"1140cdd",61,1
"6322",1,1,356,4,4,2,"1140cdd",62,1
"6422",1,1,403,1,1,2,"1140cdd",63,1
"6522",1,1,714,3,3,2,"1140cdd",64,1
"6622",1,1,326,2,2,2,"1140cdd",65,1
"6722",0,1,330,1,3,2,"1140cdd",66,1
"6822",0,1,439,1,5,2,"1140cdd",67,1
"6922",1,1,415,6,6,2,"1140cdd",68,1
"7022",1,1,352,5,5,2,"1140cdd",69,1
"7126",0,1,408,1,3,2,"1140cdd",70,1
"7223",0,1,339,4,1,2,"1140cdd",71,1
"7322",0,1,248,1,2,2,"1140cdd",72,1
"7422",1,1,408,4,4,2,"1140cdd",73,1
"7522",1,1,422,1,1,2,"1140cdd",74,1
"7622",1,1,349,2,2,2,"1140cdd",75,1
"7722",0,1,378,6,1,2,"1140cdd",76,1
"7822",1,1,373,3,3,2,"1140cdd",77,1
"2108",1,1,1583,3,3,3,"164d446",1,1
"3108",1,0,332,1,2,3,"164d446",2,1
"4108",0,0,536,1,1,3,"164d446",3,1
"5108",1,0,385,1,4,3,"164d446",4,1
"6108",1,1,393,2,2,3,"164d446",5,1
"799",1,1,249,5,5,3,"164d446",6,1
"824",1,0,412,1,3,3,"164d446",7,1
"924",1,0,535,1,6,3,"164d446",8,1
"1024",0,1,294,1,5,3,"164d446",9,1
"1124",1,1,352,6,6,3,"164d446",10,1
"1224",1,1,279,4,4,3,"164d446",11,1
"1324",1,0,403,6,1,3,"164d446",12,1
"1424",1,1,334,3,3,3,"164d446",13,1
"1524",1,0,253,3,1,3,"164d446",14,1
"1624",1,0,972,2,1,3,"164d446",15,1
"1724",1,1,235,5,5,3,"164d446",16,1
"1824",0,1,423,1,4,3,"164d446",17,1
"1924",1,1,869,2,2,3,"164d446",18,1
"2023",0,0,277,4,4,3,"164d446",19,1
"2127",0,1,457,5,1,3,"164d446",20,1
"2225",1,1,338,1,1,3,"164d446",21,1
"2323",1,1,323,6,6,3,"164d446",22,1
"2423",0,0,65,1,1,3,"164d446",23,1
"2523",1,0,168,1,2,3,"164d446",24,1
"2623",1,0,283,1,3,3,"164d446",25,1
"2723",1,0,290,6,1,3,"164d446",26,1
"2823",1,1,757,4,4,3,"164d446",27,1
"2923",0,1,391,4,1,3,"164d446",28,1
"3023",0,0,293,3,3,3,"164d446",29,1
"3127",-1,-1,0,6,6,3,"164d446",30,1
"3225",1,1,48,2,2,3,"164d446",31,1
"3323",0,0,375,5,5,3,"164d446",32,1
"3423",1,0,325,5,1,3,"164d446",33,1
"3523",0,0,213,6,6,3,"164d446",34,1
"3623",0,1,133,1,4,3,"164d446",35,1
"3723",1,1,395,4,4,3,"164d446",36,1
"3823",0,0,269,2,2,3,"164d446",37,1
"3923",0,0,273,1,1,3,"164d446",38,1
"4023",0,1,261,3,1,3,"164d446",39,1
"4127",1,1,29,3,3,3,"164d446",40,1
"4225",1,1,267,5,5,3,"164d446",41,1
"4323",0,1,668,5,1,3,"164d446",42,1
"4423",1,0,125,1,2,3,"164d446",43,1
"4523",0,1,430,6,1,3,"164d446",44,1
"4623",1,1,96,4,4,3,"164d446",45,1
"4723",1,0,351,1,5,3,"164d446",46,1
"4823",1,1,260,3,3,3,"164d446",47,1
"4923",0,1,383,2,1,3,"164d446",48,1
"5023",0,1,287,4,1,3,"164d446",49,1
"5127",1,1,220,2,2,3,"164d446",50,1
"5225",0,0,682,5,5,3,"164d446",51,1
"5323",1,1,333,1,1,3,"164d446",52,1
"5423",1,1,233,6,6,3,"164d446",53,1
"5523",1,0,381,1,6,3,"164d446",54,1
"5623",1,0,332,3,1,3,"164d446",55,1
"5723",0,0,478,2,2,3,"164d446",56,1
"5823",1,0,521,4,1,3,"164d446",57,1
"5923",0,1,78,6,1,3,"164d446",58,1
"6023",1,0,266,2,1,3,"164d446",59,1
"6127",0,0,110,5,5,3,"164d446",60,1
"6225",1,1,267,3,3,3,"164d446",61,1
"6323",1,0,214,3,1,3,"164d446",62,1
"6423",1,1,406,4,4,3,"164d446",63,1
"6523",1,0,296,5,1,3,"164d446",64,1
"6623",1,1,255,6,6,3,"164d446",65,1
"6723",0,0,245,1,1,3,"164d446",66,1
"6823",1,0,237,1,3,3,"164d446",67,1
"6923",0,0,473,4,4,3,"164d446",68,1
"7023",1,1,493,6,6,3,"164d446",69,1
"7127",1,0,294,6,1,3,"164d446",70,1
"7224",1,1,232,3,3,3,"164d446",71,1
"7323",1,1,228,1,1,3,"164d446",72,1
"7423",1,0,365,2,1,3,"164d446",73,1
"7523",0,1,301,1,4,3,"164d446",74,1
"7623",1,1,219,5,5,3,"164d446",75,1
"7723",0,1,370,1,5,3,"164d446",76,1
"7823",1,1,361,2,2,3,"164d446",77,1
"2109",1,0,625,4,1,2,"1534b38",1,1
"3109",1,0,211,2,1,2,"1534b38",2,1
"4109",1,1,66,1,1,2,"1534b38",3,1
"5109",1,1,224,3,3,2,"1534b38",4,1
"6109",1,1,431,2,2,2,"1534b38",5,1
"7100",1,0,305,6,1,2,"1534b38",6,1
"825",1,0,268,1,3,2,"1534b38",7,1
"925",1,1,85,4,4,2,"1534b38",8,1
"1025",1,1,183,5,5,2,"1534b38",9,1
"1125",1,0,265,5,1,2,"1534b38",10,1
"1225",1,1,25,6,6,2,"1534b38",11,1
"1325",0,1,153,5,1,2,"1534b38",12,1
"1425",1,1,26,6,6,2,"1534b38",13,1
"1525",1,1,67,4,4,2,"1534b38",14,1
"1625",0,1,296,1,4,2,"1534b38",15,1
"1725",1,1,319,5,5,2,"1534b38",16,1
"1825",1,0,98,1,6,2,"1534b38",17,1
"1925",0,1,214,1,3,2,"1534b38",18,1
"2024",1,1,414,3,3,2,"1534b38",19,1
"2128",0,1,463,1,2,2,"1534b38",20,1
"2226",1,1,230,1,1,2,"1534b38",21,1
"2324",1,1,185,2,2,2,"1534b38",22,1
"2424",1,1,262,6,6,2,"1534b38",23,1
"2524",1,1,184,3,3,2,"1534b38",24,1
"2624",0,1,314,1,2,2,"1534b38",25,1
"2724",0,1,342,1,3,2,"1534b38",26,1
"2824",0,1,264,5,1,2,"1534b38",27,1
"2924",1,1,117,1,1,2,"1534b38",28,1
"3024",0,1,368,1,6,2,"1534b38",29,1
"3128",1,1,88,2,2,2,"1534b38",30,1
"3226",1,1,54,4,4,2,"1534b38",31,1
"3324",1,1,121,5,5,2,"1534b38",32,1
"3424",0,1,153,1,4,2,"1534b38",33,1
"3524",1,1,426,3,3,2,"1534b38",34,1
"3624",1,1,202,4,4,2,"1534b38",35,1
"3724",1,1,122,2,2,2,"1534b38",36,1
"3824",0,1,277,3,1,2,"1534b38",37,1
"3924",1,1,283,6,6,2,"1534b38",38,1
"4024",0,1,261,6,1,2,"1534b38",39,1
"4128",0,1,209,4,1,2,"1534b38",40,1
"4226",1,0,163,5,1,2,"1534b38",41,1
"4324",1,1,571,5,5,2,"1534b38",42,1
"4424",1,1,67,1,1,2,"1534b38",43,1
"4524",1,0,106,2,1,2,"1534b38",44,1
"4624",1,1,182,2,2,2,"1534b38",45,1
"4724",1,1,305,3,3,2,"1534b38",46,1
"4824",0,1,361,1,3,2,"1534b38",47,1
"4924",1,1,107,4,4,2,"1534b38",48,1
"5024",1,1,144,6,6,2,"1534b38",49,1
"5128",1,0,107,1,2,2,"1534b38",50,1
"5226",1,1,56,5,5,2,"1534b38",51,1
"5324",1,1,278,1,1,2,"1534b38",52,1
"5424",0,1,87,1,4,2,"1534b38",53,1
"5524",0,1,302,1,5,2,"1534b38",54,1
"5624",0,1,166,6,1,2,"1534b38",55,1
"5724",1,1,105,2,2,2,"1534b38",56,1
"5824",0,0,259,6,6,2,"1534b38",57,1
"5924",0,1,312,1,6,2,"1534b38",58,1
"6024",1,1,176,5,5,2,"1534b38",59,1
"6128",1,1,298,4,4,2,"1534b38",60,1
"6226",0,1,163,4,1,2,"1534b38",61,1
"6324",0,1,268,3,1,2,"1534b38",62,1
"6424",0,1,23,1,5,2,"1534b38",63,1
"6524",1,1,74,3,3,2,"1534b38",64,1
"6624",0,1,63,2,1,2,"1534b38",65,1
"6724",1,1,118,1,1,2,"1534b38",66,1
"6824",1,1,177,4,4,2,"1534b38",67,1
"6924",0,1,126,6,1,2,"1534b38",68,1
"7024",1,1,326,6,6,2,"1534b38",69,1
"7128",0,1,333,2,1,2,"1534b38",70,1
"7225",1,1,193,2,2,2,"1534b38",71,1
"7324",1,1,185,3,3,2,"1534b38",72,1
"7424",0,1,225,3,1,2,"1534b38",73,1
"7524",0,1,200,4,1,2,"1534b38",74,1
"7624",1,1,192,5,5,2,"1534b38",75,1
"7724",0,1,200,1,5,2,"1534b38",76,1
"7824",1,1,33,1,1,2,"1534b38",77,1
"2129",0,0,706,1,1,1,"1a80576",1,1
"3129",0,1,292,1,5,1,"1a80576",2,1
"4129",0,1,225,4,1,1,"1a80576",3,1
"5129",1,1,414,3,3,1,"1a80576",4,1
"6129",1,0,207,2,1,1,"1a80576",5,1
"7101",0,1,245,3,1,1,"1a80576",6,1
"826",0,1,21,1,6,1,"1a80576",7,1
"926",0,0,299,4,4,1,"1a80576",8,1
"1026",1,1,456,5,5,1,"1a80576",9,1
"1126",1,1,710,6,6,1,"1a80576",10,1
"1226",0,0,1225,2,2,1,"1a80576",11,1
"1326",1,1,337,6,6,1,"1a80576",12,1
"1426",1,1,239,5,5,1,"1a80576",13,1
"1526",1,1,261,4,4,1,"1a80576",14,1
"1626",1,1,301,1,1,1,"1a80576",15,1
"1726",0,1,19,2,1,1,"1a80576",16,1
"1826",0,0,1261,3,3,1,"1a80576",17,1
"1926",0,1,119,1,6,1,"1a80576",18,1
"2025",0,1,171,1,3,1,"1a80576",19,1
"2130",0,1,234,1,4,1,"1a80576",20,1
"2227",0,1,313,1,5,1,"1a80576",21,1
"2325",1,1,456,2,2,1,"1a80576",22,1
"2425",0,1,156,1,2,1,"1a80576",23,1
"2525",0,1,422,5,1,1,"1a80576",24,1
"2625",0,1,342,1,4,1,"1a80576",25,1
"2725",0,0,551,3,3,1,"1a80576",26,1
"2825",1,1,195,2,2,1,"1a80576",27,1
"2925",0,1,99,6,1,1,"1a80576",28,1
"3025",1,1,269,6,6,1,"1a80576",29,1
"3130",0,0,553,4,4,1,"1a80576",30,1
"3227",0,1,289,3,1,1,"1a80576",31,1
"3325",1,1,1076,1,1,1,"1a80576",32,1
"3425",0,0,289,5,5,1,"1a80576",33,1
"3525",1,1,188,4,4,1,"1a80576",34,1
"3625",0,1,410,1,6,1,"1a80576",35,1
"3725",1,1,259,1,1,1,"1a80576",36,1
"3825",1,1,511,2,2,1,"1a80576",37,1
"3925",1,0,271,2,1,1,"1a80576",38,1
"4025",0,1,329,4,1,1,"1a80576",39,1
"4130",0,1,200,1,5,1,"1a80576",40,1
"4227",0,0,61,5,5,1,"1a80576",41,1
"4325",1,1,410,6,6,1,"1a80576",42,1
"4425",1,1,96,3,3,1,"1a80576",43,1
"4525",0,1,715,1,3,1,"1a80576",44,1
"4625",1,1,518,2,2,1,"1a80576",45,1
"4725",0,0,109,5,5,1,"1a80576",46,1
"4825",0,1,109,1,5,1,"1a80576",47,1
"4925",1,1,542,6,6,1,"1a80576",48,1
"5025",0,1,161,6,1,1,"1a80576",49,1
"5130",0,1,126,1,4,1,"1a80576",50,1
"5227",1,1,280,4,4,1,"1a80576",51,1
"5325",0,1,169,2,1,1,"1a80576",52,1
"5425",1,1,526,1,1,1,"1a80576",53,1
"5525",0,1,249,1,3,1,"1a80576",54,1
"5625",1,1,313,3,3,1,"1a80576",55,1
"5725",1,1,661,5,5,1,"1a80576",56,1
"5825",1,1,256,1,1,1,"1a80576",57,1
"5925",1,1,368,3,3,1,"1a80576",58,1
"6025",0,1,261,2,1,1,"1a80576",59,1
"6130",1,1,366,6,6,1,"1a80576",60,1
"6227",0,0,222,4,4,1,"1a80576",61,1
"6325",0,1,65,1,3,1,"1a80576",62,1
"6425",0,1,389,5,1,1,"1a80576",63,1
"6525",1,1,214,2,2,1,"1a80576",64,1
"6625",0,1,317,1,6,1,"1a80576",65,1
"6725",0,1,226,4,1,1,"1a80576",66,1
"6825",0,1,246,5,1,1,"1a80576",67,1
"6925",1,1,244,1,1,1,"1a80576",68,1
"7025",1,1,279,3,3,1,"1a80576",69,1
"7129",1,1,369,2,2,1,"1a80576",70,1
"7226",1,1,241,4,4,1,"1a80576",71,1
"7325",0,1,617,1,3,1,"1a80576",72,1
"7425",1,1,497,5,5,1,"1a80576",73,1
"7525",1,1,266,6,6,1,"1a80576",74,1
"7625",1,0,441,1,2,1,"1a80576",75,1
"7725",0,1,605,4,1,1,"1a80576",76,1
"7825",0,1,218,6,1,1,"1a80576",77,1
"2131",1,1,776,6,6,1,"13cc5b7",1,1
"3131",1,1,459,2,2,1,"13cc5b7",2,1
"4131",0,1,505,5,1,1,"13cc5b7",3,1
"5131",0,1,321,6,1,1,"13cc5b7",4,1
"6131",0,1,591,1,3,1,"13cc5b7",5,1
"7102",1,0,284,2,1,1,"13cc5b7",6,1
"827",0,0,446,1,1,1,"13cc5b7",7,1
"927",0,0,430,5,5,1,"13cc5b7",8,1
"1027",1,1,414,4,4,1,"13cc5b7",9,1
"1127",0,1,482,1,4,1,"13cc5b7",10,1
"1227",1,1,268,3,3,1,"13cc5b7",11,1
"1327",1,1,1158,2,2,1,"13cc5b7",12,1
"1427",0,1,436,1,5,1,"13cc5b7",13,1
"1527",0,0,341,1,1,1,"13cc5b7",14,1
"1627",0,0,881,3,3,1,"13cc5b7",15,1
"1727",1,1,400,6,6,1,"13cc5b7",16,1
"1827",1,1,285,5,5,1,"13cc5b7",17,1
"1927",0,1,329,6,1,1,"13cc5b7",18,1
"2026",1,1,312,4,4,1,"13cc5b7",19,1
"2132",0,1,325,1,3,1,"13cc5b7",20,1
"2228",0,1,272,1,4,1,"13cc5b7",21,1
"2326",0,1,268,1,2,1,"13cc5b7",22,1
"2426",0,1,454,5,1,1,"13cc5b7",23,1
"2526",0,1,368,3,1,1,"13cc5b7",24,1
"2626",0,0,613,1,1,1,"13cc5b7",25,1
"2726",1,1,386,4,4,1,"13cc5b7",26,1
"2826",0,1,559,1,2,1,"13cc5b7",27,1
"2926",0,1,301,1,6,1,"13cc5b7",28,1
"3026",1,1,263,5,5,1,"13cc5b7",29,1
"3132",0,1,259,4,1,1,"13cc5b7",30,1
"3228",0,0,426,3,3,1,"13cc5b7",31,1
"3326",1,1,255,6,6,1,"13cc5b7",32,1
"3426",0,0,245,2,2,1,"13cc5b7",33,1
"3526",1,1,498,4,4,1,"13cc5b7",34,1
"3626",1,1,244,3,3,1,"13cc5b7",35,1
"3726",0,1,500,6,1,1,"13cc5b7",36,1
"3826",0,0,483,5,5,1,"13cc5b7",37,1
"3926",1,1,352,2,2,1,"13cc5b7",38,1
"4026",0,1,528,2,1,1,"13cc5b7",39,1
"4132",1,1,257,6,6,1,"13cc5b7",40,1
"4228",1,1,356,1,1,1,"13cc5b7",41,1
"4326",0,1,496,1,3,1,"13cc5b7",42,1
"4426",1,0,582,4,1,1,"13cc5b7",43,1
"4526",0,1,313,5,1,1,"13cc5b7",44,1
"4626",0,1,322,6,1,1,"13cc5b7",45,1
"4726",1,1,390,2,2,1,"13cc5b7",46,1
"4826",1,1,248,3,3,1,"13cc5b7",47,1
"4926",0,1,271,3,1,1,"13cc5b7",48,1
"5026",1,1,281,5,5,1,"13cc5b7",49,1
"5132",0,1,526,1,2,1,"13cc5b7",50,1
"5228",0,1,1169,4,1,1,"13cc5b7",51,1
"5326",0,0,816,4,4,1,"13cc5b7",52,1
"5426",1,1,485,6,6,1,"13cc5b7",53,1
"5526",1,1,441,1,1,1,"13cc5b7",54,1
"5626",0,1,495,1,5,1,"13cc5b7",55,1
"5726",1,1,269,4,4,1,"13cc5b7",56,1
"5826",1,1,269,5,5,1,"13cc5b7",57,1
"5926",0,1,295,1,6,1,"13cc5b7",58,1
"6026",0,0,968,2,2,1,"13cc5b7",59,1
"6132",0,1,271,3,1,1,"13cc5b7",60,1
"6228",1,1,217,1,1,1,"13cc5b7",61,1
"6326",0,1,546,1,5,1,"13cc5b7",62,1
"6426",1,1,483,3,3,1,"13cc5b7",63,1
"6526",0,1,573,2,1,1,"13cc5b7",64,1
"6626",0,1,518,4,1,1,"13cc5b7",65,1
"6726",0,0,635,6,6,1,"13cc5b7",66,1
"6826",0,1,644,1,5,1,"13cc5b7",67,1
"6926",0,0,1237,4,4,1,"13cc5b7",68,1
"7026",0,1,355,1,2,1,"13cc5b7",69,1
"7130",-1,-1,0,2,2,1,"13cc5b7",70,1
"7227",1,1,515,6,6,1,"13cc5b7",71,1
"7326",0,1,470,1,3,1,"13cc5b7",72,1
"7426",0,1,471,1,4,1,"13cc5b7",73,1
"7526",0,1,399,1,6,1,"13cc5b7",74,1
"7626",1,1,396,1,1,1,"13cc5b7",75,1
"7726",0,0,940,3,3,1,"13cc5b7",76,1
"7826",1,1,224,5,5,1,"13cc5b7",77,1
"2133",1,0,1188,1,2,1,"1838a2f",1,1
"3133",0,1,78,1,6,1,"1838a2f",2,1
"4133",0,0,518,2,2,1,"1838a2f",3,1
"5133",-1,-1,0,5,5,1,"1838a2f",4,1
"6133",0,1,1056,1,4,1,"1838a2f",5,1
"7103",0,1,1333,1,5,1,"1838a2f",6,1
"828",1,1,390,3,3,1,"1838a2f",7,1
"928",1,1,245,4,4,1,"1838a2f",8,1
"1028",1,1,501,1,1,1,"1838a2f",9,1
"1128",1,1,442,6,6,1,"1838a2f",10,1
"1228",0,1,352,1,3,1,"1838a2f",11,1
"1328",1,1,310,5,5,1,"1838a2f",12,1
"1428",0,1,348,1,3,1,"1838a2f",13,1
"1528",1,1,529,4,4,1,"1838a2f",14,1
"1628",1,1,203,3,3,1,"1838a2f",15,1
"1728",0,1,315,1,4,1,"1838a2f",16,1
"1828",1,1,788,2,2,1,"1838a2f",17,1
"1928",0,1,896,2,1,1,"1838a2f",18,1
"2027",0,1,89,5,1,1,"1838a2f",19,1
"2134",0,1,175,1,6,1,"1838a2f",20,1
"2229",1,1,653,6,6,1,"1838a2f",21,1
"2327",1,1,1385,1,1,1,"1838a2f",22,1
"2427",1,1,272,5,5,1,"1838a2f",23,1
"2527",0,1,177,1,3,1,"1838a2f",24,1
"2627",0,1,233,2,1,1,"1838a2f",25,1
"2727",1,1,357,4,4,1,"1838a2f",26,1
"2827",1,1,291,3,3,1,"1838a2f",27,1
"2927",0,1,134,6,1,1,"1838a2f",28,1
"3027",1,1,164,1,1,1,"1838a2f",29,1
"3134",1,1,622,2,2,1,"1838a2f",30,1
"3229",0,1,122,1,4,1,"1838a2f",31,1
"3327",1,1,93,6,6,1,"1838a2f",32,1
"3427",0,1,27,1,5,1,"1838a2f",33,1
"3527",0,1,193,5,1,1,"1838a2f",34,1
"3627",0,1,79,3,1,1,"1838a2f",35,1
"3727",1,1,788,6,6,1,"1838a2f",36,1
"3827",1,1,392,1,1,1,"1838a2f",37,1
"3927",-1,-1,0,5,5,1,"1838a2f",38,1
"4027",0,1,538,1,6,1,"1838a2f",39,1
"4134",1,1,278,4,4,1,"1838a2f",40,1
"4229",0,1,52,2,1,1,"1838a2f",41,1
"4327",0,1,436,4,1,1,"1838a2f",42,1
"4427",1,1,237,2,2,1,"1838a2f",43,1
"4527",1,1,47,3,3,1,"1838a2f",44,1
"4627",1,1,200,3,3,1,"1838a2f",45,1
"4727",0,1,408,1,4,1,"1838a2f",46,1
"4827",0,1,1429,2,1,1,"1838a2f",47,1
"4927",1,1,392,4,4,1,"1838a2f",48,1
"5027",1,1,402,2,2,1,"1838a2f",49,1
"5134",0,1,262,1,6,1,"1838a2f",50,1
"5229",0,1,254,1,3,1,"1838a2f",51,1
"5327",0,1,446,5,1,1,"1838a2f",52,1
"5427",1,1,206,1,1,1,"1838a2f",53,1
"5527",1,1,280,6,6,1,"1838a2f",54,1
"5627",1,1,101,5,5,1,"1838a2f",55,1
"5727",1,1,834,6,6,1,"1838a2f",56,1
"5827",-1,-1,0,1,6,1,"1838a2f",57,1
"5927",-1,-1,0,3,1,1,"1838a2f",58,1
"6027",1,1,460,1,1,1,"1838a2f",59,1
"6134",0,1,260,1,4,1,"1838a2f",60,1
"6229",0,1,286,1,5,1,"1838a2f",61,1
"6327",1,1,248,4,4,1,"1838a2f",62,1
"6427",0,1,776,1,2,1,"1838a2f",63,1
"6527",1,1,324,3,3,1,"1838a2f",64,1
"6627",1,1,455,5,5,1,"1838a2f",65,1
"6727",1,1,509,2,2,1,"1838a2f",66,1
"6827",1,1,461,6,6,1,"1838a2f",67,1
"6927",1,1,442,1,1,1,"1838a2f",68,1
"7027",1,1,387,2,2,1,"1838a2f",69,1
"7131",1,1,400,4,4,1,"1838a2f",70,1
"7228",0,1,336,4,1,1,"1838a2f",71,1
"7327",1,1,487,3,3,1,"1838a2f",72,1
"7427",0,1,601,1,5,1,"1838a2f",73,1
"7527",0,1,535,3,1,1,"1838a2f",74,1
"7627",1,1,151,5,5,1,"1838a2f",75,1
"7727",0,1,153,1,6,1,"1838a2f",76,1
"7827",0,1,1264,1,2,1,"1838a2f",77,1
"2135",0,0,666,3,3,1,"17b1040",1,1
"3135",0,1,280,1,5,1,"17b1040",2,1
"4135",0,1,305,1,6,1,"17b1040",3,1
"5135",1,1,511,4,4,1,"17b1040",4,1
"6135",1,1,330,2,2,1,"17b1040",5,1
"7104",1,1,314,5,5,1,"17b1040",6,1
"829",1,1,281,1,1,1,"17b1040",7,1
"929",1,0,233,2,1,1,"17b1040",8,1
"1029",1,0,248,3,1,1,"17b1040",9,1
"1129",0,1,210,1,4,1,"17b1040",10,1
"1229",1,1,608,6,6,1,"17b1040",11,1
"1329",1,0,472,6,1,1,"17b1040",12,1
"1429",1,1,278,6,6,1,"17b1040",13,1
"1529",1,1,365,1,1,1,"17b1040",14,1
"1629",1,1,308,4,4,1,"17b1040",15,1
"1729",0,0,269,5,5,1,"17b1040",16,1
"1829",0,1,348,1,5,1,"17b1040",17,1
"1929",1,1,394,2,2,1,"17b1040",18,1
"2028",1,0,82,1,3,1,"17b1040",19,1
"2136",0,1,244,4,1,1,"17b1040",20,1
"2230",1,0,794,2,1,1,"17b1040",21,1
"2328",1,1,232,3,3,1,"17b1040",22,1
"2428",1,1,437,3,3,1,"17b1040",23,1
"2528",0,1,217,1,4,1,"17b1040",24,1
"2628",0,1,256,3,1,1,"17b1040",25,1
"2728",0,1,571,1,5,1,"17b1040",26,1
"2828",1,1,338,6,6,1,"17b1040",27,1
"2928",1,1,236,5,5,1,"17b1040",28,1
"3028",1,1,411,1,1,1,"17b1040",29,1
"3136",1,1,418,2,2,1,"17b1040",30,1
"3230",0,0,216,4,4,1,"17b1040",31,1
"3328",1,0,406,2,1,1,"17b1040",32,1
"3428",0,1,208,1,6,1,"17b1040",33,1
"3528",1,1,622,3,3,1,"17b1040",34,1
"3628",1,1,189,4,4,1,"17b1040",35,1
"3728",0,0,426,5,5,1,"17b1040",36,1
"3828",0,1,289,6,1,1,"17b1040",37,1
"3928",1,1,285,1,1,1,"17b1040",38,1
"4028",1,1,832,2,2,1,"17b1040",39,1
"4136",0,1,256,4,1,1,"17b1040",40,1
"4230",1,1,940,6,6,1,"17b1040",41,1
"4328",0,1,418,1,5,1,"17b1040",42,1
"4428",1,0,404,1,2,1,"17b1040",43,1
"4528",0,1,378,1,3,1,"17b1040",44,1
"4628",1,0,576,1,6,1,"17b1040",45,1
"4728",0,1,216,1,4,1,"17b1040",46,1
"4828",1,1,268,6,6,1,"17b1040",47,1
"4928",1,1,239,5,5,1,"17b1040",48,1
"5028",1,1,260,2,2,1,"17b1040",49,1
"5136",1,1,323,1,1,1,"17b1040",50,1
"5230",1,1,624,4,4,1,"17b1040",51,1
"5328",1,1,504,3,3,1,"17b1040",52,1
"5428",0,1,254,1,2,1,"17b1040",53,1
"5528",1,0,306,1,3,1,"17b1040",54,1
"5628",0,1,463,1,5,1,"17b1040",55,1
"5728",0,1,286,5,1,1,"17b1040",56,1
"5828",0,0,874,2,2,1,"17b1040",57,1
"5928",1,1,372,4,4,1,"17b1040",58,1
"6028",1,1,83,1,1,1,"17b1040",59,1
"6136",0,1,296,3,1,1,"17b1040",60,1
"6230",1,1,482,5,5,1,"17b1040",61,1
"6328",0,1,281,1,4,1,"17b1040",62,1
"6428",0,1,278,1,2,1,"17b1040",63,1
"6528",0,1,282,6,1,1,"17b1040",64,1
"6628",0,0,272,3,3,1,"17b1040",65,1
"6728",1,1,273,6,6,1,"17b1040",66,1
"6828",0,1,254,1,6,1,"17b1040",67,1
"6928",1,1,451,3,3,1,"17b1040",68,1
"7028",1,1,1102,2,2,1,"17b1040",69,1
"7132",1,0,1113,1,3,1,"17b1040",70,1
"7229",1,1,257,4,4,1,"17b1040",71,1
"7328",0,1,349,1,4,1,"17b1040",72,1
"7428",0,1,360,1,5,1,"17b1040",73,1
"7528",1,0,697,2,1,1,"17b1040",74,1
"7628",1,1,837,6,6,1,"17b1040",75,1
"7728",1,1,818,1,1,1,"17b1040",76,1
"7828",1,1,305,5,5,1,"17b1040",77,1
"2137",-1,-1,0,5,5,1,"18ad75c",1,1
"3137",0,1,1674,4,1,1,"18ad75c",2,1
"4137",1,1,1495,1,1,1,"18ad75c",3,1
"5137",1,1,694,3,3,1,"18ad75c",4,1
"6137",1,0,546,6,1,1,"18ad75c",5,1
"7105",1,1,392,6,6,1,"18ad75c",6,1
"830",1,1,303,4,4,1,"18ad75c",7,1
"930",0,1,347,1,2,1,"18ad75c",8,1
"1030",1,1,226,2,2,1,"18ad75c",9,1
"1130",0,1,996,3,1,1,"18ad75c",10,1
"1230",0,1,675,5,1,1,"18ad75c",11,1
"1330",1,1,211,2,2,1,"18ad75c",12,1
"1430",1,1,249,4,4,1,"18ad75c",13,1
"1530",0,1,219,6,1,1,"18ad75c",14,1
"1630",1,1,248,5,5,1,"18ad75c",15,1
"1730",1,1,294,6,6,1,"18ad75c",16,1
"1830",0,1,441,4,1,1,"18ad75c",17,1
"1930",0,1,966,2,1,1,"18ad75c",18,1
"2029",1,1,250,1,1,1,"18ad75c",19,1
"2138",0,1,276,1,5,1,"18ad75c",20,1
"2231",0,1,293,1,3,1,"18ad75c",21,1
"2329",1,1,247,3,3,1,"18ad75c",22,1
"2429",1,1,232,6,6,1,"18ad75c",23,1
"2529",1,1,813,3,3,1,"18ad75c",24,1
"2629",0,1,298,1,6,1,"18ad75c",25,1
"2729",0,1,624,2,1,1,"18ad75c",26,1
"2829",1,1,124,2,2,1,"18ad75c",27,1
"2929",0,1,293,4,1,1,"18ad75c",28,1
"3029",1,1,520,5,5,1,"18ad75c",29,1
"3138",1,1,229,1,1,1,"18ad75c",30,1
"3231",1,1,288,4,4,1,"18ad75c",31,1
"3329",0,1,660,3,1,1,"18ad75c",32,1
"3429",0,1,477,1,5,1,"18ad75c",33,1
"3529",1,1,285,5,5,1,"18ad75c",34,1
"3629",0,1,465,6,1,1,"18ad75c",35,1
"3729",0,1,329,3,1,1,"18ad75c",36,1
"3829",1,1,383,3,3,1,"18ad75c",37,1
"3929",1,1,440,1,1,1,"18ad75c",38,1
"4029",1,1,328,2,2,1,"18ad75c",39,1
"4138",1,1,357,4,4,1,"18ad75c",40,1
"4231",0,1,684,1,2,1,"18ad75c",41,1
"4329",0,1,243,4,1,1,"18ad75c",42,1
"4429",1,1,568,6,6,1,"18ad75c",43,1
"4529",0,1,229,1,5,1,"18ad75c",44,1
"4629",0,1,246,3,1,1,"18ad75c",45,1
"4729",1,1,212,5,5,1,"18ad75c",46,1
"4829",1,1,224,4,4,1,"18ad75c",47,1
"4929",1,1,654,1,1,1,"18ad75c",48,1
"5029",0,1,337,5,1,1,"18ad75c",49,1
"5138",0,1,730,2,1,1,"18ad75c",50,1
"5231",0,1,301,1,6,1,"18ad75c",51,1
"5329",0,1,301,1,4,1,"18ad75c",52,1
"5429",1,1,315,2,2,1,"18ad75c",53,1
"5529",1,1,416,3,3,1,"18ad75c",54,1
"5629",1,1,408,6,6,1,"18ad75c",55,1
"5729",0,1,329,1,3,1,"18ad75c",56,1
"5829",1,1,278,1,1,1,"18ad75c",57,1
"5929",1,1,227,4,4,1,"18ad75c",58,1
"6029",1,1,237,5,5,1,"18ad75c",59,1
"6138",1,1,206,6,6,1,"18ad75c",60,1
"6231",0,1,710,1,2,1,"18ad75c",61,1
"6329",0,1,775,1,6,1,"18ad75c",62,1
"6429",0,1,368,4,1,1,"18ad75c",63,1
"6529",1,1,656,3,3,1,"18ad75c",64,1
"6629",1,1,705,2,2,1,"18ad75c",65,1
"6729",0,1,474,5,1,1,"18ad75c",66,1
"6829",1,1,304,1,1,1,"18ad75c",67,1
"6929",1,1,227,3,3,1,"18ad75c",68,1
"7029",-1,-1,0,2,2,1,"18ad75c",69,1
"7133",1,1,1992,4,4,1,"18ad75c",70,1
"7230",0,1,654,6,1,1,"18ad75c",71,1
"7329",0,1,372,4,1,1,"18ad75c",72,1
"7429",0,1,1060,1,2,1,"18ad75c",73,1
"7529",0,1,78,1,5,1,"18ad75c",74,1
"7629",1,1,242,5,5,1,"18ad75c",75,1
"7729",0,1,263,1,3,1,"18ad75c",76,1
"7829",1,1,389,6,6,1,"18ad75c",77,1
"2139",1,1,388,1,1,2,"1fff5f7",1,2
"3139",1,0,260,3,1,2,"1fff5f7",2,2
"4139",0,0,286,3,3,2,"1fff5f7",3,2
"5139",1,1,288,5,5,2,"1fff5f7",4,2
"6139",0,0,271,2,2,2,"1fff5f7",5,2
"7106",1,0,259,1,2,2,"1fff5f7",6,2
"831",1,1,245,6,6,2,"1fff5f7",7,2
"931",1,1,31,4,4,2,"1fff5f7",8,2
"1031",1,0,203,5,1,2,"1fff5f7",9,2
"1131",0,1,261,1,6,2,"1fff5f7",10,2
"1231",1,0,346,4,1,2,"1fff5f7",11,2
"1331",1,0,279,5,1,2,"1fff5f7",12,2
"1431",0,0,279,2,2,2,"1fff5f7",13,2
"1531",1,1,264,6,6,2,"1fff5f7",14,2
"1631",1,0,265,1,2,2,"1fff5f7",15,2
"1731",0,0,364,3,3,2,"1fff5f7",16,2
"1831",1,0,242,1,4,2,"1fff5f7",17,2
"1931",1,1,418,1,1,2,"1fff5f7",18,2
"2030",0,1,289,1,6,2,"1fff5f7",19,2
"2140",1,0,318,3,1,2,"1fff5f7",20,2
"2232",0,0,266,4,4,2,"1fff5f7",21,2
"2330",1,1,149,5,5,2,"1fff5f7",22,2
"2430",1,0,152,3,1,2,"1fff5f7",23,2
"2530",0,1,164,6,1,2,"1fff5f7",24,2
"2630",1,1,386,2,2,2,"1fff5f7",25,2
"2730",1,1,1223,1,1,2,"1fff5f7",26,2
"2830",0,0,562,6,6,2,"1fff5f7",27,2
"2930",1,1,247,3,3,2,"1fff5f7",28,2
"3030",0,1,253,5,1,2,"1fff5f7",29,2
"3140",1,0,230,4,1,2,"1fff5f7",30,2
"3232",1,1,265,5,5,2,"1fff5f7",31,2
"3330",1,0,64,1,2,2,"1fff5f7",32,2
"3430",0,0,278,4,4,2,"1fff5f7",33,2
"3530",1,0,254,3,1,2,"1fff5f7",34,2
"3630",0,0,323,6,6,2,"1fff5f7",35,2
"3730",1,1,337,5,5,2,"1fff5f7",36,2
"3830",0,1,262,2,1,2,"1fff5f7",37,2
"3930",1,1,262,3,3,2,"1fff5f7",38,2
"4030",0,0,279,2,2,2,"1fff5f7",39,2
"4140",1,0,263,4,1,2,"1fff5f7",40,2
"4232",1,1,383,4,4,2,"1fff5f7",41,2
"4330",1,0,316,1,5,2,"1fff5f7",42,2
"4430",1,1,258,1,1,2,"1fff5f7",43,2
"4530",0,1,264,6,1,2,"1fff5f7",44,2
"4630",1,1,289,1,1,2,"1fff5f7",45,2
"4730",1,1,332,3,3,2,"1fff5f7",46,2
"4830",1,1,286,6,6,2,"1fff5f7",47,2
"4930",0,1,315,1,5,2,"1fff5f7",48,2
"5030",0,1,325,6,1,2,"1fff5f7",49,2
"5140",0,1,437,1,3,2,"1fff5f7",50,2
"5232",0,1,307,4,1,2,"1fff5f7",51,2
"5330",1,1,390,4,4,2,"1fff5f7",52,2
"5430",1,1,260,2,2,2,"1fff5f7",53,2
"5530",1,0,285,1,2,2,"1fff5f7",54,2
"5630",0,0,283,5,5,2,"1fff5f7",55,2
"5730",1,1,273,2,2,2,"1fff5f7",56,2
"5830",0,1,268,3,1,2,"1fff5f7",57,2
"5930",0,1,327,6,1,2,"1fff5f7",58,2
"6030",1,1,584,5,5,2,"1fff5f7",59,2
"6140",0,1,271,1,2,2,"1fff5f7",60,2
"6232",0,1,296,4,1,2,"1fff5f7",61,2
"6330",1,1,301,6,6,2,"1fff5f7",62,2
"6430",1,1,239,3,3,2,"1fff5f7",63,2
"6530",1,1,270,1,1,2,"1fff5f7",64,2
"6630",1,1,266,4,4,2,"1fff5f7",65,2
"6730",0,1,974,1,5,2,"1fff5f7",66,2
"6830",0,1,248,1,5,2,"1fff5f7",67,2
"6930",0,1,252,1,4,2,"1fff5f7",68,2
"7030",1,1,259,3,3,2,"1fff5f7",69,2
"7134",1,1,219,2,2,2,"1fff5f7",70,2
"7231",1,0,259,1,2,2,"1fff5f7",71,2
"7330",1,1,252,5,5,2,"1fff5f7",72,2
"7430",0,1,257,3,1,2,"1fff5f7",73,2
"7530",1,1,285,1,1,2,"1fff5f7",74,2
"7630",1,1,273,6,6,2,"1fff5f7",75,2
"7730",1,1,323,4,4,2,"1fff5f7",76,2
"7830",0,1,379,1,6,2,"1fff5f7",77,2
"2141",1,0,590,2,1,1,"157c196",1,2
"3141",1,1,324,4,4,1,"157c196",2,2
"4141",1,1,494,2,2,1,"157c196",3,2
"5141",1,1,630,5,5,1,"157c196",4,2
"6141",0,1,436,5,1,1,"157c196",5,2
"7107",1,0,515,1,3,1,"157c196",6,2
"832",0,0,420,6,6,1,"157c196",7,2
"932",0,0,680,1,1,1,"157c196",8,2
"1032",1,0,259,4,1,1,"157c196",9,2
"1132",0,1,330,1,6,1,"157c196",10,2
"1232",1,1,268,3,3,1,"157c196",11,2
"1332",1,1,1037,5,5,1,"157c196",12,2
"1432",1,0,475,1,5,1,"157c196",13,2
"1532",1,1,382,6,6,1,"157c196",14,2
"1632",1,0,492,1,3,1,"157c196",15,2
"1732",0,1,761,1,6,1,"157c196",16,2
"1832",1,1,923,1,1,1,"157c196",17,2
"1932",1,1,251,3,3,1,"157c196",18,2
"2031",1,0,639,1,2,1,"157c196",19,2
"2142",0,0,264,2,2,1,"157c196",20,2
"2233",1,1,447,4,4,1,"157c196",21,2
"2331",1,0,372,1,4,1,"157c196",22,2
"2431",0,1,449,1,2,1,"157c196",23,2
"2531",0,1,1015,4,1,1,"157c196",24,2
"2631",1,0,663,3,1,1,"157c196",25,2
"2731",1,1,369,6,6,1,"157c196",26,2
"2831",1,1,421,3,3,1,"157c196",27,2
"2931",1,1,276,1,1,1,"157c196",28,2
"3031",0,0,285,5,5,1,"157c196",29,2
"3142",1,1,320,4,4,1,"157c196",30,2
"3233",0,1,285,6,1,1,"157c196",31,2
"3331",0,1,525,1,5,1,"157c196",32,2
"3431",0,0,463,2,2,1,"157c196",33,2
"3531",0,1,296,2,1,1,"157c196",34,2
"3631",0,0,305,2,2,1,"157c196",35,2
"3731",1,1,471,6,6,1,"157c196",36,2
"3831",1,1,279,1,1,1,"157c196",37,2
"3931",0,1,431,1,4,1,"157c196",38,2
"4031",0,1,326,1,5,1,"157c196",39,2
"4142",0,1,284,3,1,1,"157c196",40,2
"4233",1,1,250,4,4,1,"157c196",41,2
"4331",1,1,271,5,5,1,"157c196",42,2
"4431",0,1,381,6,1,1,"157c196",43,2
"4531",1,1,267,3,3,1,"157c196",44,2
"4631",1,1,363,5,5,1,"157c196",45,2
"4731",0,1,408,1,5,1,"157c196",46,2
"4831",1,1,488,4,4,1,"157c196",47,2
"4931",1,1,403,2,2,1,"157c196",48,2
"5031",1,1,308,1,1,1,"157c196",49,2
"5142",0,1,224,4,1,1,"157c196",50,2
"5233",1,0,314,1,3,1,"157c196",51,2
"5331",0,0,377,3,3,1,"157c196",52,2
"5431",1,0,277,2,1,1,"157c196",53,2
"5531",1,1,311,6,6,1,"157c196",54,2
"5631",0,1,252,1,6,1,"157c196",55,2
"5731",1,1,432,5,5,1,"157c196",56,2
"5831",0,1,297,1,4,1,"157c196",57,2
"5931",1,0,248,2,1,1,"157c196",58,2
"6031",1,0,454,3,1,1,"157c196",59,2
"6142",1,1,308,1,1,1,"157c196",60,2
"6233",1,1,263,4,4,1,"157c196",61,2
"6331",1,1,326,3,3,1,"157c196",62,2
"6431",0,0,269,2,2,1,"157c196",63,2
"6531",1,1,208,6,6,1,"157c196",64,2
"6631",0,1,254,6,1,1,"157c196",65,2
"6731",0,1,225,1,5,1,"157c196",66,2
"6831",1,1,981,4,4,1,"157c196",67,2
"6931",1,1,506,1,1,1,"157c196",68,2
"7031",0,1,222,3,1,1,"157c196",69,2
"7135",1,0,332,2,1,1,"157c196",70,2
"7232",0,1,236,6,1,1,"157c196",71,2
"7331",0,1,264,1,4,1,"157c196",72,2
"7431",1,1,264,2,2,1,"157c196",73,2
"7531",1,1,413,3,3,1,"157c196",74,2
"7631",0,1,304,1,5,1,"157c196",75,2
"7731",1,1,255,6,6,1,"157c196",76,2
"7831",1,1,307,5,5,1,"157c196",77,2
"2143",1,1,357,4,4,3,"c8b40ae",1,2
"3143",0,1,462,4,1,3,"c8b40ae",2,2
"4143",1,1,984,5,5,3,"c8b40ae",3,2
"5143",0,1,393,2,1,3,"c8b40ae",4,2
"6143",0,1,353,1,5,3,"c8b40ae",5,2
"7108",1,1,333,3,3,3,"c8b40ae",6,2
"833",1,1,354,6,6,3,"c8b40ae",7,2
"933",1,1,241,2,2,3,"c8b40ae",8,2
"1033",0,1,355,1,6,3,"c8b40ae",9,2
"1133",1,1,384,1,1,3,"c8b40ae",10,2
"1233",0,1,289,3,1,3,"c8b40ae",11,2
"1333",1,1,219,3,3,3,"c8b40ae",12,2
"1433",0,1,331,1,5,3,"c8b40ae",13,2
"1533",1,1,579,6,6,3,"c8b40ae",14,2
"1633",1,1,547,2,2,3,"c8b40ae",15,2
"1733",0,0,250,1,1,3,"c8b40ae",16,2
"1833",1,1,314,4,4,3,"c8b40ae",17,2
"1933",1,1,672,5,5,3,"c8b40ae",18,2
"2032",0,1,826,1,6,3,"c8b40ae",19,2
"2144",0,1,341,4,1,3,"c8b40ae",20,2
"2234",0,1,462,1,2,3,"c8b40ae",21,2
"2332",0,1,374,1,3,3,"c8b40ae",22,2
"2432",1,1,297,4,4,3,"c8b40ae",23,2
"2532",0,1,395,1,4,3,"c8b40ae",24,2
"2632",1,1,327,5,5,3,"c8b40ae",25,2
"2732",0,1,435,1,6,3,"c8b40ae",26,2
"2832",1,1,428,1,1,3,"c8b40ae",27,2
"2932",0,0,475,3,3,3,"c8b40ae",28,2
"3032",0,1,373,1,5,3,"c8b40ae",29,2
"3144",0,1,324,1,2,3,"c8b40ae",30,2
"3234",1,1,347,2,2,3,"c8b40ae",31,2
"3332",0,1,299,3,1,3,"c8b40ae",32,2
"3432",1,1,317,6,6,3,"c8b40ae",33,2
"3532",0,1,437,1,6,3,"c8b40ae",34,2
"3632",1,1,1399,1,1,3,"c8b40ae",35,2
"3732",0,1,272,3,1,3,"c8b40ae",36,2
"3832",1,1,316,3,3,3,"c8b40ae",37,2
"3932",1,1,420,2,2,3,"c8b40ae",38,2
"4032",1,1,466,4,4,3,"c8b40ae",39,2
"4144",0,1,281,2,1,3,"c8b40ae",40,2
"4234",1,1,256,6,6,3,"c8b40ae",41,2
"4332",1,1,275,5,5,3,"c8b40ae",42,2
"4432",0,1,347,1,4,3,"c8b40ae",43,2
"4532",0,1,291,5,1,3,"c8b40ae",44,2
"4632",1,1,552,6,6,3,"c8b40ae",45,2
"4732",0,1,299,1,4,3,"c8b40ae",46,2
"4832",1,1,259,4,4,3,"c8b40ae",47,2
"4932",1,1,545,5,5,3,"c8b40ae",48,2
"5032",1,1,376,2,2,3,"c8b40ae",49,2
"5144",1,1,443,1,1,3,"c8b40ae",50,2
"5234",0,1,429,3,1,3,"c8b40ae",51,2
"5332",0,1,286,6,1,3,"c8b40ae",52,2
"5432",0,1,359,5,1,3,"c8b40ae",53,2
"5532",1,1,391,3,3,3,"c8b40ae",54,2
"5632",0,1,413,1,2,3,"c8b40ae",55,2
"5732",0,1,397,1,2,3,"c8b40ae",56,2
"5832",0,1,310,5,1,3,"c8b40ae",57,2
"5932",1,1,394,2,2,3,"c8b40ae",58,2
"6032",1,1,261,5,5,3,"c8b40ae",59,2
"6144",0,1,481,4,1,3,"c8b40ae",60,2
"6234",1,1,376,3,3,3,"c8b40ae",61,2
"6332",1,1,338,6,6,3,"c8b40ae",62,2
"6432",1,1,351,1,1,3,"c8b40ae",63,2
"6532",1,1,411,4,4,3,"c8b40ae",64,2
"6632",0,1,344,3,1,3,"c8b40ae",65,2
"6732",0,1,206,6,1,3,"c8b40ae",66,2
"6832",0,1,425,5,1,3,"c8b40ae",67,2
"6932",1,1,637,2,2,3,"c8b40ae",68,2
"7032",0,1,273,1,3,3,"c8b40ae",69,2
"7136",0,1,250,1,6,3,"c8b40ae",70,2
"7233",1,1,324,1,1,3,"c8b40ae",71,2
"7332",1,1,288,6,6,3,"c8b40ae",72,2
"7432",0,1,257,1,2,3,"c8b40ae",73,2
"7532",1,1,224,3,3,3,"c8b40ae",74,2
"7632",1,1,312,4,4,3,"c8b40ae",75,2
"7732",1,1,432,5,5,3,"c8b40ae",76,2
"7832",0,1,1487,1,4,3,"c8b40ae",77,2
"2145",1,1,222,3,3,2,"1534efb",1,2
"3145",1,1,311,4,4,2,"1534efb",2,2
"4145",1,1,355,6,6,2,"1534efb",3,2
"5145",1,0,601,1,2,2,"1534efb",4,2
"6145",1,0,513,4,1,2,"1534efb",5,2
"7109",1,0,321,3,1,2,"1534efb",6,2
"834",1,0,447,1,6,2,"1534efb",7,2
"934",1,1,360,1,1,2,"1534efb",8,2
"1034",1,1,495,2,2,2,"1534efb",9,2
"1134",1,1,396,5,5,2,"1534efb",10,2
"1234",1,0,367,1,5,2,"1534efb",11,2
"1334",1,0,361,1,5,2,"1534efb",12,2
"1434",0,0,349,3,3,2,"1534efb",13,2
"1534",1,0,330,1,4,2,"1534efb",14,2
"1634",1,1,623,4,4,2,"1534efb",15,2
"1734",1,1,625,6,6,2,"1534efb",16,2
"1834",1,1,322,1,1,2,"1534efb",17,2
"1934",1,1,448,5,5,2,"1534efb",18,2
"2033",-1,-1,0,1,6,2,"1534efb",19,2
"2146",1,1,478,2,2,2,"1534efb",20,2
"2235",1,0,1361,1,3,2,"1534efb",21,2
"2333",-1,-1,0,1,2,2,"1534efb",22,2
"2433",0,1,394,1,5,2,"1534efb",23,2
"2533",1,1,1372,5,5,2,"1534efb",24,2
"2633",1,0,490,6,1,2,"1534efb",25,2
"2733",1,1,435,3,3,2,"1534efb",26,2
"2833",0,1,376,4,1,2,"1534efb",27,2
"2933",0,0,294,1,1,2,"1534efb",28,2
"3033",-1,-1,0,2,2,2,"1534efb",29,2
"3146",-1,-1,0,4,4,2,"1534efb",30,2
"3235",-1,-1,0,3,1,2,"1534efb",31,2
"3333",0,0,382,6,6,2,"1534efb",32,2
"3433",-1,-1,0,1,2,2,"1534efb",33,2
"3533",1,1,459,4,4,2,"1534efb",34,2
"3633",-1,-1,0,5,1,2,"1534efb",35,2
"3733",1,1,367,5,5,2,"1534efb",36,2
"3833",1,0,1213,1,4,2,"1534efb",37,2
"3933",0,1,253,1,3,2,"1534efb",38,2
"4033",0,0,1104,2,2,2,"1534efb",39,2
"4146",0,0,311,6,6,2,"1534efb",40,2
"4235",-1,-1,0,1,6,2,"1534efb",41,2
"4333",1,1,706,3,3,2,"1534efb",42,2
"4433",-1,-1,0,1,1,2,"1534efb",43,2
"4533",0,1,350,2,1,2,"1534efb",44,2
"4633",1,0,907,1,6,2,"1534efb",45,2
"4733",0,0,260,1,1,2,"1534efb",46,2
"4833",0,1,351,1,4,2,"1534efb",47,2
"4933",1,1,233,5,5,2,"1534efb",48,2
"5033",1,1,536,6,6,2,"1534efb",49,2
"5146",0,1,1225,1,2,2,"1534efb",50,2
"5235",0,0,365,4,4,2,"1534efb",51,2
"5333",0,1,487,5,1,2,"1534efb",52,2
"5433",1,0,724,1,3,2,"1534efb",53,2
"5533",1,1,1940,3,3,2,"1534efb",54,2
"5633",1,1,370,2,2,2,"1534efb",55,2
"5733",-1,-1,0,6,6,2,"1534efb",56,2
"5833",1,1,618,1,1,2,"1534efb",57,2
"5933",1,1,352,3,3,2,"1534efb",58,2
"6033",-1,-1,0,5,1,2,"1534efb",59,2
"6146",1,1,360,4,4,2,"1534efb",60,2
"6235",1,1,730,5,5,2,"1534efb",61,2
"6333",0,1,139,2,1,2,"1534efb",62,2
"6433",1,0,518,1,6,2,"1534efb",63,2
"6533",0,1,267,4,1,2,"1534efb",64,2
"6633",-1,-1,0,2,2,2,"1534efb",65,2
"6733",-1,-1,0,3,1,2,"1534efb",66,2
"6833",-1,-1,0,5,5,2,"1534efb",67,2
"6933",0,0,1086,2,2,2,"1534efb",68,2
"7033",-1,-1,0,1,2,2,"1534efb",69,2
"7137",0,1,1311,1,4,2,"1534efb",70,2
"7234",-1,-1,0,6,1,2,"1534efb",71,2
"7333",-1,-1,0,4,4,2,"1534efb",72,2
"7433",-1,-1,0,5,1,2,"1534efb",73,2
"7533",0,1,396,3,1,2,"1534efb",74,2
"7633",-1,-1,0,3,3,2,"1534efb",75,2
"7733",-1,-1,0,6,6,2,"1534efb",76,2
"7833",-1,-1,0,1,1,2,"1534efb",77,2
"2147",1,1,193,2,2,1,"156f638",1,2
"3147",1,1,106,6,6,1,"156f638",2,2
"4147",1,1,233,1,1,1,"156f638",3,2
"5147",1,1,483,5,5,1,"156f638",4,2
"6147",1,1,208,3,3,1,"156f638",5,2
"7138",1,1,758,4,4,1,"156f638",6,2
"835",0,1,147,3,1,1,"156f638",7,2
"935",0,1,230,1,6,1,"156f638",8,2
"1035",0,1,128,5,1,1,"156f638",9,2
"1135",0,1,42,2,1,1,"156f638",10,2
"1235",0,1,330,4,1,1,"156f638",11,2
"1335",0,1,196,5,1,1,"156f638",12,2
"1435",0,1,156,1,2,1,"156f638",13,2
"1535",0,1,261,1,6,1,"156f638",14,2
"1635",1,1,237,4,4,1,"156f638",15,2
"1735",1,1,13,6,6,1,"156f638",16,2
"1835",1,1,177,3,3,1,"156f638",17,2
"1935",1,1,686,2,2,1,"156f638",18,2
"2034",0,1,1841,4,1,1,"156f638",19,2
"2148",0,1,254,1,3,1,"156f638",20,2
"2236",1,1,196,5,5,1,"156f638",21,2
"2334",1,1,985,1,1,1,"156f638",22,2
"2434",0,1,613,2,1,1,"156f638",23,2
"2534",0,1,1465,6,1,1,"156f638",24,2
"2634",0,1,246,1,3,1,"156f638",25,2
"2734",1,1,81,4,4,1,"156f638",26,2
"2834",1,1,29,5,5,1,"156f638",27,2
"2934",1,1,622,6,6,1,"156f638",28,2
"3034",0,1,296,5,1,1,"156f638",29,2
"3148",1,1,40,3,3,1,"156f638",30,2
"3236",1,1,309,2,2,1,"156f638",31,2
"3334",1,1,211,1,1,1,"156f638",32,2
"3434",0,1,486,4,1,1,"156f638",33,2
"3534",1,1,153,1,1,1,"156f638",34,2
"3634",1,1,738,2,2,1,"156f638",35,2
"3734",0,1,174,1,6,1,"156f638",36,2
"3834",0,1,282,1,3,1,"156f638",37,2
"3934",0,1,242,1,4,1,"156f638",38,2
"4034",1,1,172,5,5,1,"156f638",39,2
"4148",0,1,852,2,1,1,"156f638",40,2
"4236",0,1,260,1,5,1,"156f638",41,2
"4334",1,1,326,4,4,1,"156f638",42,2
"4434",1,1,228,3,3,1,"156f638",43,2
"4534",1,1,345,6,6,1,"156f638",44,2
"4634",-1,-1,0,1,4,1,"156f638",45,2
"4734",0,1,192,1,3,1,"156f638",46,2
"4834",1,1,368,4,4,1,"156f638",47,2
"4934",0,1,184,1,5,1,"156f638",48,2
"5034",0,1,205,1,2,1,"156f638",49,2
"5148",1,1,398,6,6,1,"156f638",50,2
"5236",0,1,1871,6,1,1,"156f638",51,2
"5334",1,1,188,2,2,1,"156f638",52,2
"5434",1,1,242,1,1,1,"156f638",53,2
"5534",1,1,335,3,3,1,"156f638",54,2
"5634",1,1,273,5,5,1,"156f638",55,2
"5734",0,1,393,1,6,1,"156f638",56,2
"5834",1,1,269,4,4,1,"156f638",57,2
"5934",0,1,265,3,1,1,"156f638",58,2
"6034",1,1,337,3,3,1,"156f638",59,2
"6148",0,1,365,2,1,1,"156f638",60,2
"6236",0,1,176,5,1,1,"156f638",61,2
"6334",1,1,492,2,2,1,"156f638",62,2
"6434",1,1,425,1,1,1,"156f638",63,2
"6534",1,1,168,5,5,1,"156f638",64,2
"6634",0,1,376,1,4,1,"156f638",65,2
"6734",1,1,1064,6,6,1,"156f638",66,2
"6834",0,1,226,1,2,1,"156f638",67,2
"6934",1,1,315,4,4,1,"156f638",68,2
"7034",0,1,714,1,5,1,"156f638",69,2
"7139",1,1,1813,6,6,1,"156f638",70,2
"7235",1,1,464,1,1,1,"156f638",71,2
"7334",1,1,288,2,2,1,"156f638",72,2
"7434",1,1,1287,3,3,1,"156f638",73,2
"7534",0,1,133,1,4,1,"156f638",74,2
"7634",0,1,140,3,1,1,"156f638",75,2
"7734",0,1,227,6,1,1,"156f638",76,2
"7834",1,1,1218,5,5,1,"156f638",77,2
"2149",0,1,210,1,5,2,"1744d37",1,2
"3149",1,1,146,5,5,2,"1744d37",2,2
"4149",1,0,99,2,1,2,"1744d37",3,2
"5149",1,1,205,1,1,2,"1744d37",4,2
"6149",1,1,201,2,2,2,"1744d37",5,2
"7140",0,1,96,3,1,2,"1744d37",6,2
"836",1,1,124,3,3,2,"1744d37",7,2
"936",1,1,160,6,6,2,"1744d37",8,2
"1036",0,1,347,6,1,2,"1744d37",9,2
"1136",1,1,66,4,4,2,"1744d37",10,2
"1236",0,1,45,1,4,2,"1744d37",11,2
"1336",1,1,85,3,3,2,"1744d37",12,2
"1436",0,1,498,5,1,2,"1744d37",13,2
"1536",0,1,97,1,3,2,"1744d37",14,2
"1636",0,1,150,6,1,2,"1744d37",15,2
"1736",0,1,358,1,4,2,"1744d37",16,2
"1836",1,1,242,5,5,2,"1744d37",17,2
"1936",1,1,120,1,1,2,"1744d37",18,2
"2035",1,1,264,6,6,2,"1744d37",19,2
"2150",0,1,72,2,1,2,"1744d37",20,2
"2237",1,1,456,2,2,2,"1744d37",21,2
"2335",1,1,259,4,4,2,"1744d37",22,2
"2435",1,1,886,5,5,2,"1744d37",23,2
"2535",1,1,251,3,3,2,"1744d37",24,2
"2635",0,1,171,5,1,2,"1744d37",25,2
"2735",0,1,569,1,4,2,"1744d37",26,2
"2835",1,1,156,4,4,2,"1744d37",27,2
"2935",1,1,757,1,1,2,"1744d37",28,2
"3035",1,1,362,2,2,2,"1744d37",29,2
"3150",0,1,691,1,3,2,"1744d37",30,2
"3237",1,1,394,6,6,2,"1744d37",31,2
"3335",0,1,335,1,2,2,"1744d37",32,2
"3435",0,1,400,6,1,2,"1744d37",33,2
"3535",0,1,40,5,1,2,"1744d37",34,2
"3635",0,1,43,6,1,2,"1744d37",35,2
"3735",1,1,122,3,3,2,"1744d37",36,2
"3835",0,1,252,1,2,2,"1744d37",37,2
"3935",1,1,126,5,5,2,"1744d37",38,2
"4035",0,1,313,3,1,2,"1744d37",39,2
"4150",1,1,67,4,4,2,"1744d37",40,2
"4237",1,1,175,6,6,2,"1744d37",41,2
"4335",1,1,288,2,2,2,"1744d37",42,2
"4435",0,1,37,4,1,2,"1744d37",43,2
"4535",1,1,75,1,1,2,"1744d37",44,2
"4635",1,1,75,4,4,2,"1744d37",45,2
"4735",1,1,222,3,3,2,"1744d37",46,2
"4835",1,1,222,2,2,2,"1744d37",47,2
"4935",1,1,286,1,1,2,"1744d37",48,2
"5035",0,1,305,1,4,2,"1744d37",49,2
"5150",0,1,431,2,1,2,"1744d37",50,2
"5237",1,1,203,6,6,2,"1744d37",51,2
"5335",0,1,131,1,5,2,"1744d37",52,2
"5435",0,1,81,1,6,2,"1744d37",53,2
"5535",0,1,201,1,3,2,"1744d37",54,2
"5635",1,1,20,5,5,2,"1744d37",55,2
"5735",0,1,333,6,1,2,"1744d37",56,2
"5835",1,1,102,3,3,2,"1744d37",57,2
"5935",0,1,109,3,1,2,"1744d37",58,2
"6035",1,1,195,6,6,2,"1744d37",59,2
"6150",1,1,103,4,4,2,"1744d37",60,2
"6237",1,1,298,5,5,2,"1744d37",61,2
"6335",1,1,253,1,1,2,"1744d37",62,2
"6435",1,1,145,2,2,2,"1744d37",63,2
"6535",0,1,136,1,5,2,"1744d37",64,2
"6635",0,1,53,4,1,2,"1744d37",65,2
"6735",0,1,40,2,1,2,"1744d37",66,2
"6835",0,1,128,6,1,2,"1744d37",67,2
"6935",0,1,246,1,4,2,"1744d37",68,2
"7035",1,1,608,1,1,2,"1744d37",69,2
"7141",1,1,290,2,2,2,"1744d37",70,2
"7236",1,1,297,5,5,2,"1744d37",71,2
"7335",1,1,866,4,4,2,"1744d37",72,2
"7435",0,1,233,3,1,2,"1744d37",73,2
"7535",0,1,558,2,1,2,"1744d37",74,2
"7635",1,1,292,3,3,2,"1744d37",75,2
"7735",0,1,257,1,5,2,"1744d37",76,2
"7835",1,1,289,6,6,2,"1744d37",77,2
"2151",0,1,664,1,3,3,"fdaa615",1,2
"3151",0,1,395,4,1,3,"fdaa615",2,2
"4151",1,1,592,3,3,3,"fdaa615",3,2
"5151",0,1,490,1,2,3,"fdaa615",4,2
"6151",1,1,456,1,1,3,"fdaa615",5,2
"7142",0,1,306,1,6,3,"fdaa615",6,2
"837",1,1,469,4,4,3,"fdaa615",7,2
"937",0,1,465,5,1,3,"fdaa615",8,2
"1037",1,1,389,5,5,3,"fdaa615",9,2
"1137",1,1,330,2,2,3,"fdaa615",10,2
"1237",1,1,329,6,6,3,"fdaa615",11,2
"1337",0,1,259,3,1,3,"fdaa615",12,2
"1437",1,0,494,1,2,3,"fdaa615",13,2
"1537",1,1,208,1,1,3,"fdaa615",14,2
"1637",1,1,291,5,5,3,"fdaa615",15,2
"1737",1,1,148,4,4,3,"fdaa615",16,2
"1837",1,1,503,2,2,3,"fdaa615",17,2
"1937",0,1,457,5,1,3,"fdaa615",18,2
"2036",0,1,316,6,1,3,"fdaa615",19,2
