"","keys","accuracy","rt","Fimg","Simg","feature_index","subID","trialNum","run"
"2",0,0,1907,2,2,1,"1c8c9ec",1,1
"3",1,1,451,5,5,1,"1c8c9ec",2,1
"4",1,1,109,4,4,1,"1c8c9ec",3,1
"5",1,1,550,6,6,1,"1c8c9ec",4,1
"6",0,1,768,5,1,1,"1c8c9ec",5,1
"7",0,1,280,1,2,1,"1c8c9ec",6,1
"8",1,1,8,3,3,1,"1c8c9ec",7,1
"9",0,1,277,4,1,1,"1c8c9ec",8,1
"10",1,1,316,1,1,1,"1c8c9ec",9,1
"11",0,1,412,1,6,1,"1c8c9ec",10,1
"12",0,1,369,3,1,1,"1c8c9ec",11,1
"13",1,1,778,5,5,1,"1c8c9ec",12,1
"14",0,1,1432,1,4,1,"1c8c9ec",13,1
"15",-1,-1,0,2,1,1,"1c8c9ec",14,1
"16",1,1,1105,4,4,1,"1c8c9ec",15,1
"17",1,1,943,2,2,1,"1c8c9ec",16,1
"18",0,1,1094,6,1,1,"1c8c9ec",17,1
"19",0,1,579,5,1,1,"1c8c9ec",18,1
"20",1,1,454,1,1,1,"1c8c9ec",19,1
"21",0,1,468,1,3,1,"1c8c9ec",20,1
"22",1,1,432,6,6,1,"1c8c9ec",21,1
"23",1,1,741,3,3,1,"1c8c9ec",22,1
"24",1,1,724,3,3,1,"1c8c9ec",23,1
"25",1,1,554,2,2,1,"1c8c9ec",24,1
"26",1,1,851,4,4,1,"1c8c9ec",25,1
"27",1,1,227,1,1,1,"1c8c9ec",26,1
"28",0,1,553,1,4,1,"1c8c9ec",27,1
"29",0,1,1433,2,1,1,"1c8c9ec",28,1
"30",1,1,613,6,6,1,"1c8c9ec",29,1
"31",0,1,510,1,6,1,"1c8c9ec",30,1
"32",0,1,417,1,3,1,"1c8c9ec",31,1
"33",0,1,656,5,1,1,"1c8c9ec",32,1
"34",1,1,380,5,5,1,"1c8c9ec",33,1
"35",-1,-1,0,5,5,1,"1c8c9ec",34,1
"36",0,1,257,6,1,1,"1c8c9ec",35,1
"37",1,1,510,4,4,1,"1c8c9ec",36,1
"38",0,1,400,1,4,1,"1c8c9ec",37,1
"39",1,1,580,1,1,1,"1c8c9ec",38,1
"40",1,1,358,6,6,1,"1c8c9ec",39,1
"41",1,1,669,3,3,1,"1c8c9ec",40,1
"42",0,1,786,1,2,1,"1c8c9ec",41,1
"43",0,1,237,3,1,1,"1c8c9ec",42,1
"44",0,1,469,5,1,1,"1c8c9ec",43,1
"45",1,1,802,2,2,1,"1c8c9ec",44,1
"46",1,1,364,6,6,1,"1c8c9ec",45,1
"47",0,1,357,4,1,1,"1c8c9ec",46,1
"48",0,1,304,1,3,1,"1c8c9ec",47,1
"49",0,1,811,2,1,1,"1c8c9ec",48,1
"50",1,1,900,1,1,1,"1c8c9ec",49,1
"51",1,1,593,2,2,1,"1c8c9ec",50,1
"52",0,1,26,1,6,1,"1c8c9ec",51,1
"53",0,1,1823,1,5,1,"1c8c9ec",52,1
"54",1,1,1080,5,5,1,"1c8c9ec",53,1
"55",1,1,931,3,3,1,"1c8c9ec",54,1
"56",1,1,180,4,4,1,"1c8c9ec",55,1
"57",1,1,16,4,4,1,"1c8c9ec",56,1
"58",0,1,738,1,2,1,"1c8c9ec",57,1
"59",1,1,264,6,6,1,"1c8c9ec",58,1
"60",1,1,298,5,5,1,"1c8c9ec",59,1
"61",1,1,1323,3,3,1,"1c8c9ec",60,1
"62",0,1,201,1,6,1,"1c8c9ec",61,1
"63",1,1,421,2,2,1,"1c8c9ec",62,1
"64",0,1,376,4,1,1,"1c8c9ec",63,1
"65",0,1,551,5,1,1,"1c8c9ec",64,1
"66",0,1,920,1,3,1,"1c8c9ec",65,1
"67",1,1,292,1,1,1,"1c8c9ec",66,1
"68",0,1,301,6,1,1,"1c8c9ec",67,1
"69",0,1,472,1,4,1,"1c8c9ec",68,1
"70",1,1,163,2,2,1,"1c8c9ec",69,1
"71",0,1,654,1,3,1,"1c8c9ec",70,1
"72",0,1,447,2,1,1,"1c8c9ec",71,1
"73",1,1,220,1,1,1,"1c8c9ec",72,1
"74",0,1,272,5,1,1,"1c8c9ec",73,1
"75",1,1,375,5,5,1,"1c8c9ec",74,1
"76",1,1,428,6,6,1,"1c8c9ec",75,1
"77",1,1,650,4,4,1,"1c8c9ec",76,1
"78",1,1,306,3,3,1,"1c8c9ec",77,1
"210",0,1,1104,3,1,2,"118dec7",1,1
"310",1,1,339,6,6,2,"118dec7",2,1
"410",0,0,284,4,4,2,"118dec7",3,1
"510",1,0,406,1,5,2,"118dec7",4,1
"610",1,1,1509,3,3,2,"118dec7",5,1
"79",1,0,1927,1,4,2,"118dec7",6,1
"81",1,1,1982,1,1,2,"118dec7",7,1
"91",1,1,440,2,2,2,"118dec7",8,1
"101",1,0,1998,2,1,2,"118dec7",9,1
"111",0,1,155,1,6,2,"118dec7",10,1
"121",1,1,1797,5,5,2,"118dec7",11,1
"131",1,1,335,2,2,2,"118dec7",12,1
"141",1,0,2014,2,1,2,"118dec7",13,1
"151",1,1,635,5,5,2,"118dec7",14,1
"161",1,1,412,1,1,2,"118dec7",15,1
"171",1,1,290,6,6,2,"118dec7",16,1
"181",1,1,485,4,4,2,"118dec7",17,1
"191",1,1,1288,3,3,2,"118dec7",18,1
"201",0,1,162,5,1,2,"118dec7",19,1
"211",0,1,38,3,1,2,"118dec7",20,1
"221",-1,-1,0,1,6,2,"118dec7",21,1
"231",-1,-1,0,4,1,2,"118dec7",22,1
"241",1,1,243,4,4,2,"118dec7",23,1
"251",1,0,358,2,1,2,"118dec7",24,1
"261",1,1,215,3,3,2,"118dec7",25,1
"271",0,1,1670,1,5,2,"118dec7",26,1
"281",1,1,31,1,1,2,"118dec7",27,1
"291",0,0,242,2,2,2,"118dec7",28,1
"301",0,1,1126,1,3,2,"118dec7",29,1
"311",0,1,338,1,6,2,"118dec7",30,1
"321",1,1,261,5,5,2,"118dec7",31,1
"331",0,1,10,4,1,2,"118dec7",32,1
"341",1,1,1553,6,6,2,"118dec7",33,1
"351",1,0,173,1,2,2,"118dec7",34,1
"361",0,1,1720,1,3,2,"118dec7",35,1
"371",1,1,114,5,5,2,"118dec7",36,1
"381",0,1,191,4,1,2,"118dec7",37,1
"391",0,1,163,5,1,2,"118dec7",38,1
"401",1,1,205,3,3,2,"118dec7",39,1
"411",1,1,1596,2,2,2,"118dec7",40,1
"421",1,1,170,1,1,2,"118dec7",41,1
"431",1,1,303,4,4,2,"118dec7",42,1
"441",0,1,304,6,1,2,"118dec7",43,1
"451",-1,-1,0,6,6,2,"118dec7",44,1
"461",0,1,125,2,1,2,"118dec7",45,1
"471",0,1,1684,5,1,2,"118dec7",46,1
"481",0,1,1677,1,4,2,"118dec7",47,1
"491",1,1,376,1,1,2,"118dec7",48,1
"501",1,1,1642,6,6,2,"118dec7",49,1
"511",1,1,1723,3,3,2,"118dec7",50,1
"521",1,1,1802,5,5,2,"118dec7",51,1
"531",1,1,1615,4,4,2,"118dec7",52,1
"541",0,1,294,3,1,2,"118dec7",53,1
"551",0,1,1147,6,1,2,"118dec7",54,1
"561",1,1,1810,2,2,2,"118dec7",55,1
"571",0,1,245,4,1,2,"118dec7",56,1
"581",1,1,351,6,6,2,"118dec7",57,1
"591",1,1,94,2,2,2,"118dec7",58,1
"601",1,1,1327,4,4,2,"118dec7",59,1
"611",1,1,971,5,5,2,"118dec7",60,1
"621",0,1,236,5,1,2,"118dec7",61,1
"631",1,1,547,3,3,2,"118dec7",62,1
"641",0,1,890,6,1,2,"118dec7",63,1
"651",1,1,1542,1,1,2,"118dec7",64,1
"661",0,1,170,1,2,2,"118dec7",65,1
"671",0,1,78,3,1,2,"118dec7",66,1
"681",1,1,866,3,3,2,"118dec7",67,1
"691",1,1,1486,5,5,2,"118dec7",68,1
"701",1,1,171,4,4,2,"118dec7",69,1
"711",0,1,127,2,1,2,"118dec7",70,1
"721",0,1,346,1,5,2,"118dec7",71,1
"731",1,1,1625,6,6,2,"118dec7",72,1
"741",0,1,194,4,1,2,"118dec7",73,1
"751",0,1,298,1,6,2,"118dec7",74,1
"761",1,1,860,1,1,2,"118dec7",75,1
"771",1,1,389,2,2,2,"118dec7",76,1
"781",0,1,162,3,1,2,"118dec7",77,1
"212",1,1,268,2,2,1,"1d2a808",1,1
"312",-1,-1,0,1,5,1,"1d2a808",2,1
"412",1,1,878,4,4,1,"1d2a808",3,1
"512",1,1,209,6,6,1,"1d2a808",4,1
"612",1,0,1506,1,2,1,"1d2a808",5,1
"710",0,1,168,1,3,1,"1d2a808",6,1
"82",1,1,864,5,5,1,"1d2a808",7,1
"92",1,1,381,1,1,1,"1d2a808",8,1
"102",1,1,277,3,3,1,"1d2a808",9,1
"112",0,1,573,6,1,1,"1d2a808",10,1
"122",0,1,630,4,1,1,"1d2a808",11,1
"132",0,1,311,3,1,1,"1d2a808",12,1
"142",1,0,217,5,1,1,"1d2a808",13,1
"152",1,1,198,3,3,1,"1d2a808",14,1
"162",0,1,317,1,6,1,"1d2a808",15,1
"172",1,1,698,2,2,1,"1d2a808",16,1
"182",-1,-1,0,1,1,1,"1d2a808",17,1
"192",1,1,561,5,5,1,"1d2a808",18,1
"202",1,0,911,1,2,1,"1d2a808",19,1
"213",1,1,1438,6,6,1,"1d2a808",20,1
"222",0,0,1957,4,4,1,"1d2a808",21,1
"232",0,1,1510,1,4,1,"1d2a808",22,1
"242",0,1,1327,5,1,1,"1d2a808",23,1
"252",0,0,569,5,5,1,"1d2a808",24,1
"262",1,0,1811,1,4,1,"1d2a808",25,1
"272",1,1,221,3,3,1,"1d2a808",26,1
"282",1,0,191,1,6,1,"1d2a808",27,1
"292",1,1,1220,2,2,1,"1d2a808",28,1
"302",0,1,460,3,1,1,"1d2a808",29,1
"313",1,1,600,1,1,1,"1d2a808",30,1
"322",0,1,1132,1,2,1,"1d2a808",31,1
"332",0,0,1319,6,6,1,"1d2a808",32,1
"342",1,1,217,4,4,1,"1d2a808",33,1
"352",1,1,859,2,2,1,"1d2a808",34,1
"362",1,1,235,4,4,1,"1d2a808",35,1
"372",1,1,238,3,3,1,"1d2a808",36,1
"382",0,0,355,5,5,1,"1d2a808",37,1
"392",1,0,702,4,1,1,"1d2a808",38,1
"402",0,0,218,6,6,1,"1d2a808",39,1
"413",0,1,122,2,1,1,"1d2a808",40,1
"422",0,1,1823,6,1,1,"1d2a808",41,1
"432",0,0,220,1,1,1,"1d2a808",42,1
"442",0,1,271,3,1,1,"1d2a808",43,1
"452",0,1,179,1,5,1,"1d2a808",44,1
"462",0,0,1645,3,3,1,"1d2a808",45,1
"472",0,1,288,1,4,1,"1d2a808",46,1
"482",0,1,641,1,2,1,"1d2a808",47,1
"492",0,0,129,5,5,1,"1d2a808",48,1
"502",0,1,444,6,1,1,"1d2a808",49,1
"513",0,1,54,1,5,1,"1d2a808",50,1
"522",1,1,112,2,2,1,"1d2a808",51,1
"532",1,0,169,1,3,1,"1d2a808",52,1
"542",1,1,250,4,4,1,"1d2a808",53,1
"552",1,1,227,6,6,1,"1d2a808",54,1
"562",1,1,355,1,1,1,"1d2a808",55,1
"572",0,1,414,1,2,1,"1d2a808",56,1
"582",0,0,237,6,6,1,"1d2a808",57,1
"592",0,0,638,3,3,1,"1d2a808",58,1
"602",1,0,148,3,1,1,"1d2a808",59,1
"613",1,1,321,2,2,1,"1d2a808",60,1
"622",0,1,509,1,6,1,"1d2a808",61,1
"632",0,0,1700,1,1,1,"1d2a808",62,1
"642",0,0,606,4,4,1,"1d2a808",63,1
"652",0,1,793,1,5,1,"1d2a808",64,1
"662",1,1,549,5,5,1,"1d2a808",65,1
"672",1,0,173,1,4,1,"1d2a808",66,1
"682",0,0,197,2,2,1,"1d2a808",67,1
"692",1,1,468,3,3,1,"1d2a808",68,1
"702",0,0,907,6,6,1,"1d2a808",69,1
"712",1,0,1161,6,1,1,"1d2a808",70,1
"722",1,1,226,1,1,1,"1d2a808",71,1
"732",1,0,253,1,3,1,"1d2a808",72,1
"742",1,0,111,1,4,1,"1d2a808",73,1
"752",1,0,309,2,1,1,"1d2a808",74,1
"762",1,0,196,5,1,1,"1d2a808",75,1
"772",1,1,234,4,4,1,"1d2a808",76,1
"782",1,1,1615,5,5,1,"1d2a808",77,1
"214",0,0,1357,4,4,3,"1b45d8d",1,1
"314",1,0,804,1,6,3,"1b45d8d",2,1
"414",-1,-1,0,3,3,3,"1b45d8d",3,1
"514",1,1,1018,6,6,3,"1b45d8d",4,1
"614",1,0,554,5,1,3,"1b45d8d",5,1
"713",1,0,725,3,1,3,"1b45d8d",6,1
"83",1,0,508,4,1,3,"1b45d8d",7,1
"93",1,1,559,1,1,3,"1b45d8d",8,1
"103",1,0,602,2,1,3,"1b45d8d",9,1
"113",1,1,432,5,5,3,"1b45d8d",10,1
"123",1,1,426,2,2,3,"1b45d8d",11,1
"133",1,1,541,5,5,3,"1b45d8d",12,1
"143",1,1,530,3,3,3,"1b45d8d",13,1
"153",1,1,347,1,1,3,"1b45d8d",14,1
"163",1,0,571,2,1,3,"1b45d8d",15,1
"173",0,0,403,2,2,3,"1b45d8d",16,1
"183",1,0,459,1,6,3,"1b45d8d",17,1
"193",0,1,407,5,1,3,"1b45d8d",18,1
"203",1,1,449,6,6,3,"1b45d8d",19,1
"215",1,1,435,4,4,3,"1b45d8d",20,1
"223",0,1,452,1,4,3,"1b45d8d",21,1
"233",1,0,405,3,1,3,"1b45d8d",22,1
"243",1,0,830,1,5,3,"1b45d8d",23,1
"253",1,1,523,2,2,3,"1b45d8d",24,1
"263",1,1,693,1,1,3,"1b45d8d",25,1
"273",0,1,416,4,1,3,"1b45d8d",26,1
"283",0,1,421,1,6,3,"1b45d8d",27,1
"293",1,1,430,3,3,3,"1b45d8d",28,1
"303",1,1,522,6,6,3,"1b45d8d",29,1
"315",1,0,383,2,1,3,"1b45d8d",30,1
"323",1,1,402,5,5,3,"1b45d8d",31,1
"333",0,1,697,3,1,3,"1b45d8d",32,1
"343",1,1,589,4,4,3,"1b45d8d",33,1
"353",1,1,495,4,4,3,"1b45d8d",34,1
"363",1,1,473,1,1,3,"1b45d8d",35,1
"373",1,1,435,2,2,3,"1b45d8d",36,1
"383",1,1,480,3,3,3,"1b45d8d",37,1
"393",0,1,589,6,1,3,"1b45d8d",38,1
"403",0,1,497,4,1,3,"1b45d8d",39,1
"415",1,0,489,2,1,3,"1b45d8d",40,1
"423",0,1,623,1,5,3,"1b45d8d",41,1
"433",1,1,518,6,6,3,"1b45d8d",42,1
"443",1,0,545,1,3,3,"1b45d8d",43,1
"453",1,1,433,5,5,3,"1b45d8d",44,1
"463",0,1,588,3,1,3,"1b45d8d",45,1
"473",1,1,441,6,6,3,"1b45d8d",46,1
"483",1,0,606,1,2,3,"1b45d8d",47,1
"493",1,1,391,2,2,3,"1b45d8d",48,1
"503",1,1,402,5,5,3,"1b45d8d",49,1
"515",0,1,443,5,1,3,"1b45d8d",50,1
"523",1,1,370,1,1,3,"1b45d8d",51,1
"533",0,1,378,6,1,3,"1b45d8d",52,1
"543",1,1,470,3,3,3,"1b45d8d",53,1
"553",0,1,514,4,1,3,"1b45d8d",54,1
"563",1,1,398,4,4,3,"1b45d8d",55,1
"573",1,1,451,1,1,3,"1b45d8d",56,1
"583",0,1,654,4,1,3,"1b45d8d",57,1
"593",0,1,1043,6,1,3,"1b45d8d",58,1
"603",1,1,523,6,6,3,"1b45d8d",59,1
"615",1,1,960,2,2,3,"1b45d8d",60,1
"623",1,1,820,3,3,3,"1b45d8d",61,1
"633",1,1,375,5,5,3,"1b45d8d",62,1
"643",1,0,411,1,2,3,"1b45d8d",63,1
"653",1,1,541,4,4,3,"1b45d8d",64,1
"663",0,1,827,5,1,3,"1b45d8d",65,1
"673",1,0,510,1,3,3,"1b45d8d",66,1
"683",0,1,485,1,4,3,"1b45d8d",67,1
"693",1,1,569,2,2,3,"1b45d8d",68,1
"703",1,1,726,4,4,3,"1b45d8d",69,1
"714",0,1,571,6,1,3,"1b45d8d",70,1
"723",1,1,447,5,5,3,"1b45d8d",71,1
"733",1,1,532,3,3,3,"1b45d8d",72,1
"743",1,0,556,1,2,3,"1b45d8d",73,1
"753",1,1,502,6,6,3,"1b45d8d",74,1
"763",1,1,637,1,1,3,"1b45d8d",75,1
"773",1,0,457,1,3,3,"1b45d8d",76,1
"783",0,1,607,1,5,3,"1b45d8d",77,1
"216",1,0,614,5,1,3,"1775149",1,1
"316",0,1,322,1,2,3,"1775149",2,1
"416",1,1,305,5,5,3,"1775149",3,1
"516",1,1,340,6,6,3,"1775149",4,1
"616",0,0,347,4,4,3,"1775149",5,1
"715",0,1,416,3,1,3,"1775149",6,1
"84",1,1,282,1,1,3,"1775149",7,1
"94",0,0,261,3,3,3,"1775149",8,1
"104",0,1,288,6,1,3,"1775149",9,1
"114",1,1,300,2,2,3,"1775149",10,1
"124",0,1,312,1,4,3,"1775149",11,1
"134",1,0,960,1,2,3,"1775149",12,1
"144",1,1,332,2,2,3,"1775149",13,1
"154",-1,-1,0,3,3,3,"1775149",14,1
"164",0,1,267,4,1,3,"1775149",15,1
"174",1,1,322,6,6,3,"1775149",16,1
"184",1,1,326,1,1,3,"1775149",17,1
"194",0,1,307,6,1,3,"1775149",18,1
"204",0,1,357,1,3,3,"1775149",19,1
"217",0,1,302,1,5,3,"1775149",20,1
"224",1,1,326,4,4,3,"1775149",21,1
"234",1,1,327,5,5,3,"1775149",22,1
"244",1,0,301,1,2,3,"1775149",23,1
"254",0,1,697,5,1,3,"1775149",24,1
"264",1,1,282,2,2,3,"1775149",25,1
"274",1,1,277,6,6,3,"1775149",26,1
"284",1,1,341,1,1,3,"1775149",27,1
"294",0,1,350,1,6,3,"1775149",28,1
"304",0,0,264,5,5,3,"1775149",29,1
"317",0,0,247,3,3,3,"1775149",30,1
"324",0,1,286,3,1,3,"1775149",31,1
"334",0,1,314,4,1,3,"1775149",32,1
"344",0,0,242,4,4,3,"1775149",33,1
"354",1,1,340,1,1,3,"1775149",34,1
"364",1,1,286,3,3,3,"1775149",35,1
"374",1,0,302,2,1,3,"1775149",36,1
"384",0,0,290,4,4,3,"1775149",37,1
"394",0,1,299,1,6,3,"1775149",38,1
"404",1,1,302,2,2,3,"1775149",39,1
"417",0,1,389,4,1,3,"1775149",40,1
"424",0,1,474,1,5,3,"1775149",41,1
"434",0,0,296,5,5,3,"1775149",42,1
"444",0,1,260,1,3,3,"1775149",43,1
"454",0,0,394,6,6,3,"1775149",44,1
"464",1,1,551,4,4,3,"1775149",45,1
"474",1,1,287,5,5,3,"1775149",46,1
"484",1,1,298,1,1,3,"1775149",47,1
"494",1,1,288,2,2,3,"1775149",48,1
"504",1,1,354,3,3,3,"1775149",49,1
"517",0,1,430,4,1,3,"1775149",50,1
"524",0,1,291,1,5,3,"1775149",51,1
"534",0,1,343,3,1,3,"1775149",52,1
"544",0,1,387,6,1,3,"1775149",53,1
"554",0,0,263,6,6,3,"1775149",54,1
"564",1,0,591,1,2,3,"1775149",55,1
"574",1,1,301,3,3,3,"1775149",56,1
"584",1,1,339,6,6,3,"1775149",57,1
"594",1,1,334,5,5,3,"1775149",58,1
"604",0,1,393,1,4,3,"1775149",59,1
"617",0,1,267,5,1,3,"1775149",60,1
"624",0,1,327,6,1,3,"1775149",61,1
"634",1,0,282,1,3,3,"1775149",62,1
"644",1,0,270,2,1,3,"1775149",63,1
"654",0,0,315,1,1,3,"1775149",64,1
"664",1,1,331,4,4,3,"1775149",65,1
"674",0,0,399,2,2,3,"1775149",66,1
"684",1,0,258,1,3,3,"1775149",67,1
"694",1,1,497,1,1,3,"1775149",68,1
"704",0,1,302,5,1,3,"1775149",69,1
"716",1,1,337,3,3,3,"1775149",70,1
"724",1,1,277,2,2,3,"1775149",71,1
"734",0,1,341,1,6,3,"1775149",72,1
"744",0,0,296,5,5,3,"1775149",73,1
"754",0,1,281,1,4,3,"1775149",74,1
"764",0,0,265,4,4,3,"1775149",75,1
"774",0,1,271,2,1,3,"1775149",76,1
"784",1,1,263,6,6,3,"1775149",77,1
"218",0,0,880,3,3,1,"15ece3b",1,1
"318",1,0,1536,6,1,1,"15ece3b",2,1
"418",0,1,460,3,1,1,"15ece3b",3,1
"518",0,0,419,6,6,1,"15ece3b",4,1
"618",0,1,828,1,5,1,"15ece3b",5,1
"717",1,1,539,2,2,1,"15ece3b",6,1
"85",1,0,522,2,1,1,"15ece3b",7,1
"95",1,1,558,1,1,1,"15ece3b",8,1
"105",1,1,551,4,4,1,"15ece3b",9,1
"115",0,1,407,1,4,1,"15ece3b",10,1
"125",1,1,605,5,5,1,"15ece3b",11,1
"135",0,1,526,4,1,1,"15ece3b",12,1
"145",1,1,928,5,5,1,"15ece3b",13,1
"155",1,1,757,4,4,1,"15ece3b",14,1
"165",0,1,838,3,1,1,"15ece3b",15,1
"175",0,1,658,1,2,1,"15ece3b",16,1
"185",0,1,486,6,1,1,"15ece3b",17,1
"195",1,1,463,3,3,1,"15ece3b",18,1
"205",1,1,705,1,1,1,"15ece3b",19,1
"219",1,1,543,2,2,1,"15ece3b",20,1
"225",1,1,887,6,6,1,"15ece3b",21,1
"235",0,1,455,1,5,1,"15ece3b",22,1
"245",1,1,841,3,3,1,"15ece3b",23,1
"255",1,0,563,1,3,1,"15ece3b",24,1
"265",1,1,412,6,6,1,"15ece3b",25,1
"275",0,1,465,1,6,1,"15ece3b",26,1
"285",1,1,430,4,4,1,"15ece3b",27,1
"295",0,1,429,1,4,1,"15ece3b",28,1
"305",1,1,561,5,5,1,"15ece3b",29,1
"319",0,1,566,5,1,1,"15ece3b",30,1
"325",0,1,551,1,2,1,"15ece3b",31,1
"335",1,1,678,2,2,1,"15ece3b",32,1
"345",1,1,683,1,1,1,"15ece3b",33,1
"355",0,1,466,1,6,1,"15ece3b",34,1
"365",1,1,449,2,2,1,"15ece3b",35,1
"375",0,1,687,1,5,1,"15ece3b",36,1
"385",1,1,481,3,3,1,"15ece3b",37,1
"395",1,1,456,4,4,1,"15ece3b",38,1
"405",1,1,519,1,1,1,"15ece3b",39,1
"419",1,1,357,6,6,1,"15ece3b",40,1
"425",0,1,627,4,1,1,"15ece3b",41,1
"435",1,1,443,5,5,1,"15ece3b",42,1
"445",0,1,612,1,3,1,"15ece3b",43,1
"455",1,0,596,2,1,1,"15ece3b",44,1
"465",1,1,572,6,6,1,"15ece3b",45,1
"475",1,1,494,4,4,1,"15ece3b",46,1
"485",1,0,467,3,1,1,"15ece3b",47,1
"495",1,1,500,3,3,1,"15ece3b",48,1
"505",1,1,408,5,5,1,"15ece3b",49,1
"519",0,1,474,1,6,1,"15ece3b",50,1
"525",1,1,460,1,1,1,"15ece3b",51,1
"535",0,1,491,1,5,1,"15ece3b",52,1
"545",0,1,731,1,4,1,"15ece3b",53,1
"555",1,1,400,2,2,1,"15ece3b",54,1
"565",-1,-1,0,1,2,1,"15ece3b",55,1
"575",0,1,638,6,1,1,"15ece3b",56,1
"585",1,1,372,5,5,1,"15ece3b",57,1
"595",1,1,922,3,3,1,"15ece3b",58,1
"605",1,1,340,2,2,1,"15ece3b",59,1
"619",1,1,523,1,1,1,"15ece3b",60,1
"625",1,1,555,4,4,1,"15ece3b",61,1
"635",0,0,393,6,6,1,"15ece3b",62,1
"645",0,1,388,1,3,1,"15ece3b",63,1
"655",0,1,495,4,1,1,"15ece3b",64,1
"665",0,1,859,2,1,1,"15ece3b",65,1
"675",0,1,383,1,5,1,"15ece3b",66,1
"685",1,1,419,1,1,1,"15ece3b",67,1
"695",0,1,361,1,3,1,"15ece3b",68,1
"705",1,1,403,2,2,1,"15ece3b",69,1
"718",0,1,578,2,1,1,"15ece3b",70,1
"725",1,1,361,6,6,1,"15ece3b",71,1
"735",1,1,444,3,3,1,"15ece3b",72,1
"745",1,1,350,4,4,1,"15ece3b",73,1
"755",0,1,384,1,4,1,"15ece3b",74,1
"765",1,1,310,5,5,1,"15ece3b",75,1
"775",0,1,390,5,1,1,"15ece3b",76,1
"785",0,1,143,1,6,1,"15ece3b",77,1
"220",0,1,489,4,1,2,"004b722",1,1
"320",1,1,795,3,3,2,"004b722",2,1
"420",0,0,491,6,6,2,"004b722",3,1
"520",1,1,334,4,4,2,"004b722",4,1
"620",1,0,637,6,1,2,"004b722",5,1
"719",1,0,575,1,2,2,"004b722",6,1
"86",1,1,444,1,1,2,"004b722",7,1
"96",1,0,253,5,1,2,"004b722",8,1
"106",0,0,951,5,5,2,"004b722",9,1
"116",1,0,330,3,1,2,"004b722",10,1
"126",1,1,483,2,2,2,"004b722",11,1
"136",1,1,387,3,3,2,"004b722",12,1
"146",1,0,321,2,1,2,"004b722",13,1
"156",1,0,261,1,4,2,"004b722",14,1
"166",0,1,388,3,1,2,"004b722",15,1
"176",0,0,274,5,5,2,"004b722",16,1
"186",0,0,493,1,1,2,"004b722",17,1
"196",0,0,494,2,2,2,"004b722",18,1
"206",0,0,552,6,6,2,"004b722",19,1
"2110",0,1,393,1,6,2,"004b722",20,1
"226",1,0,330,5,1,2,"004b722",21,1
"236",0,0,449,4,4,2,"004b722",22,1
"246",0,0,372,6,6,2,"004b722",23,1
"256",0,0,244,4,4,2,"004b722",24,1
"266",1,0,281,1,4,2,"004b722",25,1
"276",0,1,271,6,1,2,"004b722",26,1
"286",1,1,422,3,3,2,"004b722",27,1
"296",1,0,439,1,5,2,"004b722",28,1
"306",0,0,494,2,2,2,"004b722",29,1
"3110",1,1,436,1,1,2,"004b722",30,1
"326",0,0,369,5,5,2,"004b722",31,1
"336",0,1,301,1,2,2,"004b722",32,1
"346",0,1,354,1,3,2,"004b722",33,1
"356",0,1,400,1,2,2,"004b722",34,1
"366",0,1,298,1,6,2,"004b722",35,1
"376",1,1,329,5,5,2,"004b722",36,1
"386",1,1,650,6,6,2,"004b722",37,1
"396",1,1,535,2,2,2,"004b722",38,1
"406",0,1,540,4,1,2,"004b722",39,1
"4110",0,1,292,1,3,2,"004b722",40,1
"426",1,1,221,1,1,2,"004b722",41,1
"436",1,1,159,4,4,2,"004b722",42,1
"446",0,1,692,1,5,2,"004b722",43,1
"456",1,1,358,3,3,2,"004b722",44,1
"466",1,1,271,3,3,2,"004b722",45,1
"476",1,1,1643,1,1,2,"004b722",46,1
"486",0,1,89,1,2,2,"004b722",47,1
"496",0,1,55,5,1,2,"004b722",48,1
"506",0,0,300,2,2,2,"004b722",49,1
"5110",1,1,253,4,4,2,"004b722",50,1
"526",0,1,125,1,6,2,"004b722",51,1
"536",1,1,269,6,6,2,"004b722",52,1
"546",1,1,374,5,5,2,"004b722",53,1
"556",0,1,395,1,3,2,"004b722",54,1
"566",0,1,183,4,1,2,"004b722",55,1
"576",1,1,209,3,3,2,"004b722",56,1
"586",1,1,204,1,1,2,"004b722",57,1
"596",0,1,54,1,2,2,"004b722",58,1
"606",0,1,376,3,1,2,"004b722",59,1
"6110",1,1,415,4,4,2,"004b722",60,1
"626",0,1,185,1,4,2,"004b722",61,1
"636",1,1,440,2,2,2,"004b722",62,1
"646",1,1,313,5,5,2,"004b722",63,1
"656",0,1,173,6,1,2,"004b722",64,1
"666",1,1,495,6,6,2,"004b722",65,1
"676",0,1,401,1,5,2,"004b722",66,1
"686",1,1,373,5,5,2,"004b722",67,1
"696",1,1,421,4,4,2,"004b722",68,1
"706",0,1,566,1,5,2,"004b722",69,1
"7110",1,1,433,3,3,2,"004b722",70,1
"726",0,1,464,6,1,2,"004b722",71,1
"736",1,1,449,2,2,2,"004b722",72,1
"746",0,1,462,1,4,2,"004b722",73,1
"756",1,1,984,1,1,2,"004b722",74,1
"766",0,1,447,1,2,2,"004b722",75,1
"776",1,1,509,6,6,2,"004b722",76,1
"786",1,0,534,3,1,2,"004b722",77,1
"227",1,1,367,1,1,2,"1a9fbe3",1,1
"327",1,1,611,2,2,2,"1a9fbe3",2,1
"427",0,1,507,1,2,2,"1a9fbe3",3,1
"527",0,1,529,6,1,2,"1a9fbe3",4,1
"627",0,1,582,1,4,2,"1a9fbe3",5,1
"720",1,1,120,4,4,2,"1a9fbe3",6,1
"87",0,1,559,5,1,2,"1a9fbe3",7,1
"97",1,1,438,6,6,2,"1a9fbe3",8,1
"107",0,1,256,3,1,2,"1a9fbe3",9,1
"117",1,1,241,5,5,2,"1a9fbe3",10,1
"127",1,1,251,3,3,2,"1a9fbe3",11,1
"137",0,1,129,6,1,2,"1a9fbe3",12,1
"147",0,1,314,5,1,2,"1a9fbe3",13,1
"157",1,1,223,6,6,2,"1a9fbe3",14,1
"167",1,1,762,2,2,2,"1a9fbe3",15,1
"177",1,1,299,1,1,2,"1a9fbe3",16,1
"187",1,1,398,3,3,2,"1a9fbe3",17,1
"197",1,1,396,4,4,2,"1a9fbe3",18,1
"207",1,1,294,5,5,2,"1a9fbe3",19,1
"2111",0,1,388,3,1,2,"1a9fbe3",20,1
"228",0,1,879,1,2,2,"1a9fbe3",21,1
"237",0,1,757,1,4,2,"1a9fbe3",22,1
"247",1,1,553,2,2,2,"1a9fbe3",23,1
"257",0,1,828,2,1,2,"1a9fbe3",24,1
"267",0,1,717,1,3,2,"1a9fbe3",25,1
"277",1,1,183,5,5,2,"1a9fbe3",26,1
"287",1,1,665,4,4,2,"1a9fbe3",27,1
"297",1,1,261,3,3,2,"1a9fbe3",28,1
"307",0,1,646,5,1,2,"1a9fbe3",29,1
"3111",0,1,1893,1,4,2,"1a9fbe3",30,1
"328",1,1,242,6,6,2,"1a9fbe3",31,1
"337",1,1,385,1,1,2,"1a9fbe3",32,1
"347",0,1,691,1,6,2,"1a9fbe3",33,1
"357",0,1,523,1,4,2,"1a9fbe3",34,1
"367",0,1,175,3,1,2,"1a9fbe3",35,1
"377",1,1,254,6,6,2,"1a9fbe3",36,1
"387",1,1,477,3,3,2,"1a9fbe3",37,1
"397",1,1,300,4,4,2,"1a9fbe3",38,1
"407",1,1,271,2,2,2,"1a9fbe3",39,1
"4111",1,1,657,5,5,2,"1a9fbe3",40,1
"428",0,1,728,2,1,2,"1a9fbe3",41,1
"437",0,1,561,1,5,2,"1a9fbe3",42,1
"447",0,1,168,1,6,2,"1a9fbe3",43,1
"457",1,1,317,1,1,2,"1a9fbe3",44,1
"467",1,1,286,5,5,2,"1a9fbe3",45,1
"477",0,1,742,4,1,2,"1a9fbe3",46,1
"487",1,1,254,4,4,2,"1a9fbe3",47,1
"497",1,1,535,2,2,2,"1a9fbe3",48,1
"507",0,1,428,6,1,2,"1a9fbe3",49,1
"5111",0,1,459,1,2,2,"1a9fbe3",50,1
"528",1,1,114,1,1,2,"1a9fbe3",51,1
"537",0,1,335,3,1,2,"1a9fbe3",52,1
"547",1,1,528,6,6,2,"1a9fbe3",53,1
"557",0,1,134,1,5,2,"1a9fbe3",54,1
"567",1,1,232,3,3,2,"1a9fbe3",55,1
"577",1,1,935,4,4,2,"1a9fbe3",56,1
"587",1,1,224,6,6,2,"1a9fbe3",57,1
"597",1,1,626,1,1,2,"1a9fbe3",58,1
"607",1,1,25,5,5,2,"1a9fbe3",59,1
"6111",0,1,167,1,6,2,"1a9fbe3",60,1
"628",0,1,681,4,1,2,"1a9fbe3",61,1
"637",1,1,89,3,3,2,"1a9fbe3",62,1
"647",0,1,582,1,3,2,"1a9fbe3",63,1
"657",1,1,246,2,2,2,"1a9fbe3",64,1
"667",0,1,111,1,5,2,"1a9fbe3",65,1
"677",0,1,991,1,2,2,"1a9fbe3",66,1
"687",0,1,1181,1,3,2,"1a9fbe3",67,1
"697",1,1,267,4,4,2,"1a9fbe3",68,1
"707",1,1,1,2,2,2,"1a9fbe3",69,1
"7111",0,1,275,2,1,2,"1a9fbe3",70,1
"727",1,1,482,5,5,2,"1a9fbe3",71,1
"737",1,1,60,3,3,2,"1a9fbe3",72,1
"747",1,1,208,1,1,2,"1a9fbe3",73,1
"757",0,1,1071,4,1,2,"1a9fbe3",74,1
"767",0,1,189,6,1,2,"1a9fbe3",75,1
"777",0,1,490,1,5,2,"1a9fbe3",76,1
"787",1,1,973,6,6,2,"1a9fbe3",77,1
"229",1,1,359,2,2,3,"12ec039",1,1
"329",0,0,444,3,3,3,"12ec039",2,1
"429",1,1,251,6,6,3,"12ec039",3,1
"529",0,1,42,4,1,3,"12ec039",4,1
"629",1,1,249,1,1,3,"12ec039",5,1
"728",1,1,105,5,5,3,"12ec039",6,1
"88",1,1,385,4,4,3,"12ec039",7,1
"98",1,0,914,1,2,3,"12ec039",8,1
"108",0,1,892,1,5,3,"12ec039",9,1
"118",0,1,512,6,1,3,"12ec039",10,1
"128",1,0,107,1,3,3,"12ec039",11,1
"138",0,1,234,1,6,3,"12ec039",12,1
"148",0,1,351,1,5,3,"12ec039",13,1
"158",1,1,569,6,6,3,"12ec039",14,1
"168",1,1,290,1,1,3,"12ec039",15,1
"178",1,1,282,5,5,3,"12ec039",16,1
"188",0,1,419,1,3,3,"12ec039",17,1
"198",1,1,706,3,3,3,"12ec039",18,1
"208",1,0,1044,1,2,3,"12ec039",19,1
"2112",0,1,212,4,1,3,"12ec039",20,1
"2210",1,1,370,4,4,3,"12ec039",21,1
"238",1,1,647,2,2,3,"12ec039",22,1
"248",1,1,430,1,1,3,"12ec039",23,1
"258",1,1,364,3,3,3,"12ec039",24,1
"268",0,1,214,1,5,3,"12ec039",25,1
"278",0,1,269,1,3,3,"12ec039",26,1
"288",1,1,816,2,2,3,"12ec039",27,1
"298",0,1,883,4,1,3,"12ec039",28,1
"308",1,0,360,2,1,3,"12ec039",29,1
"3112",1,1,351,4,4,3,"12ec039",30,1
"3210",1,1,372,5,5,3,"12ec039",31,1
"338",0,1,972,1,6,3,"12ec039",32,1
"348",1,1,330,6,6,3,"12ec039",33,1
"358",0,1,181,4,1,3,"12ec039",34,1
"368",1,1,212,6,6,3,"12ec039",35,1
"378",0,1,180,1,6,3,"12ec039",36,1
"388",1,1,366,4,4,3,"12ec039",37,1
"398",0,1,262,1,5,3,"12ec039",38,1
"408",1,1,542,5,5,3,"12ec039",39,1
"4112",0,1,453,3,1,3,"12ec039",40,1
"4210",1,1,463,1,1,3,"12ec039",41,1
"438",1,0,535,2,1,3,"12ec039",42,1
"448",1,1,153,2,2,3,"12ec039",43,1
"458",1,1,87,3,3,3,"12ec039",44,1
"468",0,1,230,1,3,3,"12ec039",45,1
"478",1,0,101,2,1,3,"12ec039",46,1
"488",0,1,412,4,1,3,"12ec039",47,1
"498",1,1,532,6,6,3,"12ec039",48,1
"508",1,1,474,5,5,3,"12ec039",49,1
"5112",0,1,258,1,6,3,"12ec039",50,1
"5210",1,1,849,2,2,3,"12ec039",51,1
"538",1,1,58,3,3,3,"12ec039",52,1
"548",1,1,185,4,4,3,"12ec039",53,1
"558",1,1,346,1,1,3,"12ec039",54,1
"568",0,1,337,1,5,3,"12ec039",55,1
"578",0,1,299,1,4,3,"12ec039",56,1
"588",1,1,538,2,2,3,"12ec039",57,1
"598",0,1,146,6,1,3,"12ec039",58,1
"608",0,1,163,1,5,3,"12ec039",59,1
"6112",0,1,298,3,1,3,"12ec039",60,1
"6210",1,1,337,3,3,3,"12ec039",61,1
"638",1,1,311,6,6,3,"12ec039",62,1
"648",1,1,500,1,1,3,"12ec039",63,1
"658",1,1,276,5,5,3,"12ec039",64,1
"668",0,1,279,2,1,3,"12ec039",65,1
"678",1,1,437,4,4,3,"12ec039",66,1
"688",1,1,363,4,4,3,"12ec039",67,1
"698",1,1,325,3,3,3,"12ec039",68,1
"708",1,1,439,6,6,3,"12ec039",69,1
"7112",1,0,113,2,1,3,"12ec039",70,1
"729",0,1,181,1,4,3,"12ec039",71,1
"738",0,1,484,1,3,3,"12ec039",72,1
"748",1,1,355,5,5,3,"12ec039",73,1
"758",1,1,333,1,1,3,"12ec039",74,1
"768",0,1,235,5,1,3,"12ec039",75,1
"778",1,1,207,2,2,3,"12ec039",76,1
"788",0,1,640,6,1,3,"12ec039",77,1
"230",1,1,1379,6,6,3,"13b52e0",1,1
"330",1,0,716,1,6,3,"13b52e0",2,1
"430",0,1,412,2,1,3,"13b52e0",3,1
"530",0,0,767,5,5,3,"13b52e0",4,1
"630",0,1,409,1,5,3,"13b52e0",5,1
"730",0,0,768,1,1,3,"13b52e0",6,1
"89",0,1,385,4,1,3,"13b52e0",7,1
"99",1,1,355,2,2,3,"13b52e0",8,1
"109",0,1,256,3,1,3,"13b52e0",9,1
"119",0,0,1681,4,4,3,"13b52e0",10,1
"129",0,0,567,3,3,3,"13b52e0",11,1
"139",0,0,554,4,4,3,"13b52e0",12,1
"149",0,1,274,5,1,3,"13b52e0",13,1
"159",1,1,379,6,6,3,"13b52e0",14,1
"169",1,1,324,3,3,3,"13b52e0",15,1
"179",0,1,499,6,1,3,"13b52e0",16,1
"189",1,1,241,1,1,3,"13b52e0",17,1
"199",0,1,301,1,3,3,"13b52e0",18,1
"209",1,1,261,2,2,3,"13b52e0",19,1
"2113",0,1,253,1,4,3,"13b52e0",20,1
"2211",0,1,267,2,1,3,"13b52e0",21,1
"239",0,0,264,5,5,3,"13b52e0",22,1
"249",1,1,286,6,6,3,"13b52e0",23,1
"259",1,1,477,4,4,3,"13b52e0",24,1
"269",0,1,382,1,2,3,"13b52e0",25,1
"279",-1,-1,0,5,1,3,"13b52e0",26,1
"289",0,0,389,5,5,3,"13b52e0",27,1
"299",0,1,602,4,1,3,"13b52e0",28,1
"309",1,1,220,2,2,3,"13b52e0",29,1
"3113",0,0,247,3,3,3,"13b52e0",30,1
"3211",0,1,565,1,3,3,"13b52e0",31,1
"339",0,1,299,1,6,3,"13b52e0",32,1
"349",1,1,1275,1,1,3,"13b52e0",33,1
"359",1,1,1181,6,6,3,"13b52e0",34,1
"369",0,1,428,5,1,3,"13b52e0",35,1
"379",1,1,258,2,2,3,"13b52e0",36,1
"389",0,1,11,6,1,3,"13b52e0",37,1
"399",1,0,499,2,1,3,"13b52e0",38,1
"409",0,0,153,4,4,3,"13b52e0",39,1
"4113",1,1,259,5,5,3,"13b52e0",40,1
"4211",1,1,64,3,3,3,"13b52e0",41,1
"439",1,1,154,1,1,3,"13b52e0",42,1
"449",0,1,591,1,4,3,"13b52e0",43,1
"459",1,0,260,3,1,3,"13b52e0",44,1
"469",0,0,164,3,3,3,"13b52e0",45,1
"479",0,1,131,4,1,3,"13b52e0",46,1
"489",1,1,96,5,5,3,"13b52e0",47,1
"499",0,0,1621,4,4,3,"13b52e0",48,1
"509",0,1,131,3,1,3,"13b52e0",49,1
"5113",1,1,1362,1,1,3,"13b52e0",50,1
"5211",0,1,280,5,1,3,"13b52e0",51,1
"539",1,0,272,1,2,3,"13b52e0",52,1
"549",0,1,519,6,1,3,"13b52e0",53,1
"559",0,0,1071,6,6,3,"13b52e0",54,1
"569",1,1,432,2,2,3,"13b52e0",55,1
"579",1,1,400,2,2,3,"13b52e0",56,1
"589",1,0,424,2,1,3,"13b52e0",57,1
"599",1,0,522,4,1,3,"13b52e0",58,1
"609",0,0,438,5,5,3,"13b52e0",59,1
"6113",0,1,437,3,1,3,"13b52e0",60,1
"6211",0,1,293,1,6,3,"13b52e0",61,1
"639",0,0,215,1,1,3,"13b52e0",62,1
"649",0,1,253,5,1,3,"13b52e0",63,1
"659",1,1,189,6,6,3,"13b52e0",64,1
"669",1,1,1326,3,3,3,"13b52e0",65,1
"679",1,1,982,4,4,3,"13b52e0",66,1
"689",1,0,63,1,3,3,"13b52e0",67,1
"699",1,1,1013,5,5,3,"13b52e0",68,1
"709",1,1,1742,3,3,3,"13b52e0",69,1
"7113",1,0,373,1,4,3,"13b52e0",70,1
"7210",0,1,205,6,1,3,"13b52e0",71,1
"739",0,0,899,6,6,3,"13b52e0",72,1
"749",0,0,211,2,2,3,"13b52e0",73,1
"759",1,0,105,1,2,3,"13b52e0",74,1
"769",0,0,1173,4,4,3,"13b52e0",75,1
"779",1,1,261,1,1,3,"13b52e0",76,1
"789",0,1,343,5,1,3,"13b52e0",77,1
"240",1,1,820,6,6,3,"1f08bb8",1,1
"340",1,0,576,1,2,3,"1f08bb8",2,1
"440",1,0,611,1,5,3,"1f08bb8",3,1
"540",1,0,590,3,1,3,"1f08bb8",4,1
"640",0,0,513,1,1,3,"1f08bb8",5,1
"740",1,1,750,5,5,3,"1f08bb8",6,1
"810",1,1,653,2,2,3,"1f08bb8",7,1
"910",1,0,488,4,1,3,"1f08bb8",8,1
"1010",1,1,610,3,3,3,"1f08bb8",9,1
"1110",1,1,504,4,4,3,"1f08bb8",10,1
"1210",1,0,640,6,1,3,"1f08bb8",11,1
"1310",1,0,648,5,1,3,"1f08bb8",12,1
"1410",1,1,483,4,4,3,"1f08bb8",13,1
"1510",1,0,399,3,1,3,"1f08bb8",14,1
"1610",1,0,525,1,6,3,"1f08bb8",15,1
"1710",1,1,487,5,5,3,"1f08bb8",16,1
"1810",1,1,753,6,6,3,"1f08bb8",17,1
"1910",1,0,606,1,2,3,"1f08bb8",18,1
"2010",1,1,505,2,2,3,"1f08bb8",19,1
"2114",1,0,646,1,4,3,"1f08bb8",20,1
"2212",0,0,886,3,3,3,"1f08bb8",21,1
"2310",1,1,517,1,1,3,"1f08bb8",22,1
"2410",1,1,464,2,2,3,"1f08bb8",23,1
"2510",1,0,451,1,5,3,"1f08bb8",24,1
"2610",0,0,487,4,4,3,"1f08bb8",25,1
"2710",1,1,545,3,3,3,"1f08bb8",26,1
"2810",0,1,423,1,6,3,"1f08bb8",27,1
"2910",1,0,439,2,1,3,"1f08bb8",28,1
"3010",1,0,422,3,1,3,"1f08bb8",29,1
"3114",1,1,483,5,5,3,"1f08bb8",30,1
"3212",1,1,583,1,1,3,"1f08bb8",31,1
"3310",1,0,507,1,4,3,"1f08bb8",32,1
"3410",1,1,502,6,6,3,"1f08bb8",33,1
"3510",1,1,449,6,6,3,"1f08bb8",34,1
"3610",1,0,493,3,1,3,"1f08bb8",35,1
"3710",0,0,499,4,4,3,"1f08bb8",36,1
"3810",1,0,465,4,1,3,"1f08bb8",37,1
"3910",1,1,411,3,3,3,"1f08bb8",38,1
"4010",1,1,493,2,2,3,"1f08bb8",39,1
"4114",1,0,555,1,6,3,"1f08bb8",40,1
"4212",0,1,421,1,2,3,"1f08bb8",41,1
"4310",1,1,400,1,1,3,"1f08bb8",42,1
"4410",1,1,796,5,5,3,"1f08bb8",43,1
"4510",1,0,410,5,1,3,"1f08bb8",44,1
"4610",1,1,591,3,3,3,"1f08bb8",45,1
"4710",1,1,439,4,4,3,"1f08bb8",46,1
"4810",1,1,555,5,5,3,"1f08bb8",47,1
"4910",0,1,545,1,3,3,"1f08bb8",48,1
"5010",0,1,770,6,1,3,"1f08bb8",49,1
"5114",1,1,600,1,1,3,"1f08bb8",50,1
"5212",1,0,559,1,2,3,"1f08bb8",51,1
"5310",1,1,444,2,2,3,"1f08bb8",52,1
"5410",0,1,488,1,5,3,"1f08bb8",53,1
"5510",1,1,412,6,6,3,"1f08bb8",54,1
"5610",1,0,429,4,1,3,"1f08bb8",55,1
"5710",1,1,412,6,6,3,"1f08bb8",56,1
"5810",1,1,598,1,1,3,"1f08bb8",57,1
"5910",1,0,370,1,6,3,"1f08bb8",58,1
"6010",0,1,381,1,5,3,"1f08bb8",59,1
"6114",0,0,420,2,2,3,"1f08bb8",60,1
"6212",1,1,462,5,5,3,"1f08bb8",61,1
"6310",1,1,483,3,3,3,"1f08bb8",62,1
"6410",1,1,906,4,4,3,"1f08bb8",63,1
"6510",1,0,1341,1,2,3,"1f08bb8",64,1
"6610",0,1,484,3,1,3,"1f08bb8",65,1
"6710",1,0,556,1,4,3,"1f08bb8",66,1
"6810",0,0,522,4,4,3,"1f08bb8",67,1
"6910",1,1,358,6,6,3,"1f08bb8",68,1
"7010",1,0,374,1,6,3,"1f08bb8",69,1
"7114",1,1,591,3,3,3,"1f08bb8",70,1
"7211",0,0,407,5,5,3,"1f08bb8",71,1
"7310",1,1,471,2,2,3,"1f08bb8",72,1
"7410",0,1,358,1,4,3,"1f08bb8",73,1
"7510",1,0,547,1,2,3,"1f08bb8",74,1
"7610",1,0,414,3,1,3,"1f08bb8",75,1
"7710",1,0,372,1,5,3,"1f08bb8",76,1
"7810",0,0,395,1,1,3,"1f08bb8",77,1
"250",1,0,339,1,2,3,"1f118fa",1,1
"350",1,0,383,1,3,3,"1f118fa",2,1
"450",1,1,1894,3,3,3,"1f118fa",3,1
"550",1,0,486,5,1,3,"1f118fa",4,1
"650",1,1,407,1,1,3,"1f118fa",5,1
"750",1,1,408,5,5,3,"1f118fa",6,1
"811",1,1,408,2,2,3,"1f118fa",7,1
"911",1,0,364,4,1,3,"1f118fa",8,1
"1011",1,1,432,6,6,3,"1f118fa",9,1
"1111",0,1,373,6,1,3,"1f118fa",10,1
"1211",1,1,315,4,4,3,"1f118fa",11,1
"1311",1,1,403,4,4,3,"1f118fa",12,1
"1411",1,1,378,3,3,3,"1f118fa",13,1
"1511",1,1,380,2,2,3,"1f118fa",14,1
"1611",1,0,464,1,2,3,"1f118fa",15,1
"1711",0,1,350,6,1,3,"1f118fa",16,1
"1811",1,1,377,1,1,3,"1f118fa",17,1
"1911",0,1,334,1,3,3,"1f118fa",18,1
"2011",1,1,375,5,5,3,"1f118fa",19,1
"2115",0,1,327,4,1,3,"1f118fa",20,1
"2213",1,1,372,6,6,3,"1f118fa",21,1
"2311",0,1,373,1,5,3,"1f118fa",22,1
"2411",1,1,416,3,3,3,"1f118fa",23,1
"2511",1,1,337,5,5,3,"1f118fa",24,1
"2611",1,1,408,1,1,3,"1f118fa",25,1
"2711",1,1,410,4,4,3,"1f118fa",26,1
"2811",1,1,356,6,6,3,"1f118fa",27,1
"2911",1,0,423,2,1,3,"1f118fa",28,1
"3011",0,1,378,4,1,3,"1f118fa",29,1
"3115",1,1,332,2,2,3,"1f118fa",30,1
"3213",0,1,262,1,5,3,"1f118fa",31,1
"3311",1,0,361,1,3,3,"1f118fa",32,1
"3411",0,1,348,1,6,3,"1f118fa",33,1
"3511",0,1,364,5,1,3,"1f118fa",34,1
"3611",1,1,318,6,6,3,"1f118fa",35,1
"3711",1,1,319,5,5,3,"1f118fa",36,1
"3811",0,1,361,6,1,3,"1f118fa",37,1
"3911",1,1,327,1,1,3,"1f118fa",38,1
"4011",1,0,347,1,2,3,"1f118fa",39,1
"4115",1,1,313,4,4,3,"1f118fa",40,1
"4213",0,1,320,1,4,3,"1f118fa",41,1
"4311",1,1,333,3,3,3,"1f118fa",42,1
"4411",1,1,320,2,2,3,"1f118fa",43,1
"4511",0,1,392,1,3,3,"1f118fa",44,1
"4611",0,0,1081,4,4,3,"1f118fa",45,1
"4711",0,1,395,5,1,3,"1f118fa",46,1
"4811",1,1,425,6,6,3,"1f118fa",47,1
"4911",0,1,380,1,4,3,"1f118fa",48,1
"5011",1,1,350,1,1,3,"1f118fa",49,1
"5115",1,1,385,5,5,3,"1f118fa",50,1
"5213",1,1,314,3,3,3,"1f118fa",51,1
"5311",1,0,356,1,2,3,"1f118fa",52,1
"5411",0,1,341,3,1,3,"1f118fa",53,1
"5511",1,1,396,2,2,3,"1f118fa",54,1
"5611",0,1,385,6,1,3,"1f118fa",55,1
"5711",1,1,349,6,6,3,"1f118fa",56,1
"5811",0,1,351,4,1,3,"1f118fa",57,1
"5911",0,1,418,2,1,3,"1f118fa",58,1
"6011",0,1,301,1,6,3,"1f118fa",59,1
"6115",1,1,367,1,1,3,"1f118fa",60,1
"6213",1,1,315,4,4,3,"1f118fa",61,1
"6311",1,1,337,5,5,3,"1f118fa",62,1
"6411",1,1,412,2,2,3,"1f118fa",63,1
"6511",1,1,338,3,3,3,"1f118fa",64,1
"6611",0,1,345,1,5,3,"1f118fa",65,1
"6711",0,1,351,1,3,3,"1f118fa",66,1
"6811",1,1,309,6,6,3,"1f118fa",67,1
"6911",1,1,317,3,3,3,"1f118fa",68,1
"7011",1,1,309,1,1,3,"1f118fa",69,1
"7115",1,1,319,5,5,3,"1f118fa",70,1
"7212",0,1,313,1,6,3,"1f118fa",71,1
"7311",0,1,348,4,1,3,"1f118fa",72,1
"7411",1,1,333,2,2,3,"1f118fa",73,1
"7511",-1,-1,0,3,1,3,"1f118fa",74,1
"7611",0,1,448,5,1,3,"1f118fa",75,1
"7711",1,0,317,2,1,3,"1f118fa",76,1
"7811",1,1,320,4,4,3,"1f118fa",77,1
"260",1,0,1017,5,1,3,"16a4d8b",1,1
"360",1,1,610,6,6,3,"16a4d8b",2,1
"460",1,0,447,2,1,3,"16a4d8b",3,1
"560",1,1,562,2,2,3,"16a4d8b",4,1
"660",1,0,550,4,1,3,"16a4d8b",5,1
"760",1,1,427,1,1,3,"16a4d8b",6,1
"812",0,1,406,3,1,3,"16a4d8b",7,1
"912",1,1,430,5,5,3,"16a4d8b",8,1
"1012",0,0,640,3,3,3,"16a4d8b",9,1
"1112",1,0,482,1,6,3,"16a4d8b",10,1
"1212",1,1,528,4,4,3,"16a4d8b",11,1
"1312",0,1,409,4,1,3,"16a4d8b",12,1
"1412",1,0,604,1,6,3,"16a4d8b",13,1
"1512",1,1,438,1,1,3,"16a4d8b",14,1
"1612",0,0,427,3,3,3,"16a4d8b",15,1
"1712",1,0,571,2,1,3,"16a4d8b",16,1
"1812",0,0,519,2,2,3,"16a4d8b",17,1
"1912",1,0,469,1,5,3,"16a4d8b",18,1
"2012",1,1,396,5,5,3,"16a4d8b",19,1
"2116",1,1,359,6,6,3,"16a4d8b",20,1
"2214",1,1,409,4,4,3,"16a4d8b",21,1
"2312",1,0,349,1,3,3,"16a4d8b",22,1
"2412",0,0,690,3,3,3,"16a4d8b",23,1
"2512",1,1,179,5,5,3,"16a4d8b",24,1
"2612",1,1,434,6,6,3,"16a4d8b",25,1
"2712",1,1,408,1,1,3,"16a4d8b",26,1
"2812",1,0,352,3,1,3,"16a4d8b",27,1
"2912",0,1,797,1,6,3,"16a4d8b",28,1
"3012",1,0,438,5,1,3,"16a4d8b",29,1
"3116",1,0,164,4,1,3,"16a4d8b",30,1
"3214",0,0,168,4,4,3,"16a4d8b",31,1
"3312",1,0,86,2,1,3,"16a4d8b",32,1
"3412",1,1,445,2,2,3,"16a4d8b",33,1
"3512",-1,-1,0,6,6,3,"16a4d8b",34,1
"3612",0,0,461,3,3,3,"16a4d8b",35,1
"3712",1,0,350,1,3,3,"16a4d8b",36,1
"3812",0,0,17,4,4,3,"16a4d8b",37,1
"3912",1,1,661,1,1,3,"16a4d8b",38,1
"4012",1,0,608,1,6,3,"16a4d8b",39,1
"4116",1,0,389,1,4,3,"16a4d8b",40,1
"4214",1,0,626,1,5,3,"16a4d8b",41,1
"4312",-1,-1,0,2,1,3,"16a4d8b",42,1
"4412",1,1,122,2,2,3,"16a4d8b",43,1
"4512",1,1,291,5,5,3,"16a4d8b",44,1
"4612",1,0,731,4,1,3,"16a4d8b",45,1
"4712",0,0,552,2,2,3,"16a4d8b",46,1
"4812",1,0,98,3,1,3,"16a4d8b",47,1
"4912",1,1,506,5,5,3,"16a4d8b",48,1
"5012",0,0,1179,6,6,3,"16a4d8b",49,1
"5116",1,0,231,5,1,3,"16a4d8b",50,1
"5214",1,0,478,1,2,3,"16a4d8b",51,1
"5312",0,0,433,4,4,3,"16a4d8b",52,1
"5412",1,1,454,1,1,3,"16a4d8b",53,1
"5512",1,0,937,6,1,3,"16a4d8b",54,1
"5612",1,1,387,3,3,3,"16a4d8b",55,1
"5712",1,0,319,1,2,3,"16a4d8b",56,1
"5812",0,0,387,1,1,3,"16a4d8b",57,1
"5912",1,1,467,2,2,3,"16a4d8b",58,1
"6012",1,1,576,5,5,3,"16a4d8b",59,1
"6116",1,1,782,4,4,3,"16a4d8b",60,1
"6214",1,0,316,1,6,3,"16a4d8b",61,1
"6312",0,0,309,6,6,3,"16a4d8b",62,1
"6412",1,0,213,5,1,3,"16a4d8b",63,1
"6512",0,1,452,1,3,3,"16a4d8b",64,1
"6612",1,1,273,3,3,3,"16a4d8b",65,1
"6712",1,0,81,4,1,3,"16a4d8b",66,1
"6812",1,0,435,1,5,3,"16a4d8b",67,1
"6912",0,1,497,1,6,3,"16a4d8b",68,1
"7012",1,1,316,5,5,3,"16a4d8b",69,1
"7116",0,0,450,3,3,3,"16a4d8b",70,1
"7213",1,0,528,3,1,3,"16a4d8b",71,1
"7312",1,1,487,6,6,3,"16a4d8b",72,1
"7412",1,0,396,2,1,3,"16a4d8b",73,1
"7512",1,0,406,4,1,3,"16a4d8b",74,1
"7612",0,0,460,1,1,3,"16a4d8b",75,1
"7712",1,1,455,2,2,3,"16a4d8b",76,1
"7812",1,1,388,4,4,3,"16a4d8b",77,1
"270",0,1,378,6,1,1,"1bef586",1,1
"370",1,0,311,1,2,1,"1bef586",2,1
"470",1,1,738,4,4,1,"1bef586",3,1
"570",0,1,549,1,4,1,"1bef586",4,1
"670",0,0,304,2,2,1,"1bef586",5,1
"770",1,1,381,6,6,1,"1bef586",6,1
"813",1,1,296,3,3,1,"1bef586",7,1
"913",0,1,491,1,3,1,"1bef586",8,1
"1013",1,1,348,1,1,1,"1bef586",9,1
"1113",1,1,328,5,5,1,"1bef586",10,1
"1213",0,1,296,5,1,1,"1bef586",11,1
"1313",1,1,297,3,3,1,"1bef586",12,1
"1413",1,1,297,5,5,1,"1bef586",13,1
"1513",0,1,345,6,1,1,"1bef586",14,1
"1613",0,1,268,1,4,1,"1bef586",15,1
"1713",1,1,504,6,6,1,"1bef586",16,1
"1813",0,1,417,1,3,1,"1bef586",17,1
"1913",1,1,287,4,4,1,"1bef586",18,1
"2013",0,1,542,1,5,1,"1bef586",19,1
"2117",1,1,344,1,1,1,"1bef586",20,1
"2215",1,1,381,2,2,1,"1bef586",21,1
"2313",1,0,474,2,1,1,"1bef586",22,1
"2413",1,1,441,6,6,1,"1bef586",23,1
"2513",1,1,298,2,2,1,"1bef586",24,1
"2613",0,1,300,3,1,1,"1bef586",25,1
"2713",0,1,236,4,1,1,"1bef586",26,1
"2813",0,0,500,5,5,1,"1bef586",27,1
"2913",0,1,173,1,6,1,"1bef586",28,1
"3013",0,1,353,5,1,1,"1bef586",29,1
"3117",1,1,283,1,1,1,"1bef586",30,1
"3215",1,1,290,3,3,1,"1bef586",31,1
"3313",0,1,253,2,1,1,"1bef586",32,1
"3413",1,1,51,4,4,1,"1bef586",33,1
"3513",0,1,399,1,2,1,"1bef586",34,1
"3613",1,1,493,2,2,1,"1bef586",35,1
"3713",0,1,266,1,6,1,"1bef586",36,1
"3813",0,1,268,5,1,1,"1bef586",37,1
"3913",1,1,235,1,1,1,"1bef586",38,1
"4013",1,1,419,4,4,1,"1bef586",39,1
"4117",0,1,311,1,3,1,"1bef586",40,1
"4215",1,1,125,5,5,1,"1bef586",41,1
"4313",1,1,304,3,3,1,"1bef586",42,1
"4413",1,1,287,6,6,1,"1bef586",43,1
"4513",0,1,309,4,1,1,"1bef586",44,1
"4613",1,1,378,2,2,1,"1bef586",45,1
"4713",0,0,270,3,3,1,"1bef586",46,1
"4813",0,1,264,6,1,1,"1bef586",47,1
"4913",1,1,344,5,5,1,"1bef586",48,1
"5013",1,1,70,6,6,1,"1bef586",49,1
"5117",0,1,312,2,1,1,"1bef586",50,1
"5215",1,1,187,1,1,1,"1bef586",51,1
"5313",0,1,440,3,1,1,"1bef586",52,1
"5413",0,1,393,4,1,1,"1bef586",53,1
"5513",1,1,286,4,4,1,"1bef586",54,1
"5613",0,1,326,5,1,1,"1bef586",55,1
"5713",1,1,237,6,6,1,"1bef586",56,1
"5813",1,1,507,5,5,1,"1bef586",57,1
"5913",0,1,310,2,1,1,"1bef586",58,1
"6013",1,1,520,4,4,1,"1bef586",59,1
"6117",0,1,358,1,3,1,"1bef586",60,1
"6215",1,1,331,2,2,1,"1bef586",61,1
"6313",0,1,876,1,5,1,"1bef586",62,1
"6413",0,1,326,1,4,1,"1bef586",63,1
"6513",1,1,198,3,3,1,"1bef586",64,1
"6613",0,1,334,1,6,1,"1bef586",65,1
"6713",1,1,481,1,1,1,"1bef586",66,1
"6813",0,1,604,4,1,1,"1bef586",67,1
"6913",1,1,352,6,6,1,"1bef586",68,1
"7013",1,1,218,2,2,1,"1bef586",69,1
"7117",0,1,246,2,1,1,"1bef586",70,1
"7214",1,1,667,4,4,1,"1bef586",71,1
"7313",0,1,422,1,6,1,"1bef586",72,1
"7413",1,1,281,3,3,1,"1bef586",73,1
"7513",0,0,408,5,5,1,"1bef586",74,1
"7613",1,1,494,1,1,1,"1bef586",75,1
"7713",0,1,363,1,5,1,"1bef586",76,1
"7813",0,1,260,1,3,1,"1bef586",77,1
"280",0,0,556,3,3,3,"17ecebf",1,1
"380",1,0,270,1,5,3,"17ecebf",2,1
"480",0,0,434,2,2,3,"17ecebf",3,1
"580",0,1,277,3,1,3,"17ecebf",4,1
"680",0,0,424,6,6,3,"17ecebf",5,1
"780",0,1,519,1,4,3,"17ecebf",6,1
"814",1,1,344,1,1,3,"17ecebf",7,1
"914",1,0,1441,2,1,3,"17ecebf",8,1
"1014",1,1,288,5,5,3,"17ecebf",9,1
"1114",0,0,272,4,4,3,"17ecebf",10,1
"1214",0,1,326,6,1,3,"17ecebf",11,1
"1314",0,1,239,1,3,3,"17ecebf",12,1
"1414",0,1,285,5,1,3,"17ecebf",13,1
"1514",1,1,254,6,6,3,"17ecebf",14,1
"1614",0,1,284,6,1,3,"17ecebf",15,1
"1714",0,0,261,4,4,3,"17ecebf",16,1
"1814",1,1,456,1,1,3,"17ecebf",17,1
"1914",0,1,268,1,4,3,"17ecebf",18,1
"2014",1,1,267,2,2,3,"17ecebf",19,1
"2118",0,0,307,5,5,3,"17ecebf",20,1
"2216",0,0,448,3,3,3,"17ecebf",21,1
"2314",0,1,265,1,2,3,"17ecebf",22,1
"2414",1,1,603,6,6,3,"17ecebf",23,1
"2514",0,1,311,1,6,3,"17ecebf",24,1
"2614",1,1,255,2,2,3,"17ecebf",25,1
"2714",0,1,357,2,1,3,"17ecebf",26,1
"2814",0,1,236,1,4,3,"17ecebf",27,1
"2914",0,1,411,3,1,3,"17ecebf",28,1
"3014",0,1,409,5,1,3,"17ecebf",29,1
"3118",1,1,253,1,1,3,"17ecebf",30,1
"3216",1,1,330,5,5,3,"17ecebf",31,1
"3314",1,1,257,3,3,3,"17ecebf",32,1
"3414",1,1,352,4,4,3,"17ecebf",33,1
"3514",0,1,297,1,4,3,"17ecebf",34,1
"3614",1,1,248,5,5,3,"17ecebf",35,1
"3714",1,1,295,1,1,3,"17ecebf",36,1
"3814",0,1,318,6,1,3,"17ecebf",37,1
"3914",1,1,397,6,6,3,"17ecebf",38,1
"4014",1,1,308,3,3,3,"17ecebf",39,1
"4118",0,1,553,2,1,3,"17ecebf",40,1
"4216",0,1,385,3,1,3,"17ecebf",41,1
"4314",1,1,394,4,4,3,"17ecebf",42,1
"4414",0,1,357,5,1,3,"17ecebf",43,1
"4514",1,1,349,2,2,3,"17ecebf",44,1
"4614",1,1,330,6,6,3,"17ecebf",45,1
"4714",0,1,323,6,1,3,"17ecebf",46,1
"4814",0,1,312,1,5,3,"17ecebf",47,1
"4914",0,1,282,1,4,3,"17ecebf",48,1
"5014",1,1,383,5,5,3,"17ecebf",49,1
"5118",0,1,258,1,2,3,"17ecebf",50,1
"5216",1,1,216,4,4,3,"17ecebf",51,1
"5314",1,1,443,1,1,3,"17ecebf",52,1
"5414",0,1,411,1,3,3,"17ecebf",53,1
"5514",1,1,451,2,2,3,"17ecebf",54,1
"5614",1,1,307,3,3,3,"17ecebf",55,1
"5714",0,1,293,5,1,3,"17ecebf",56,1
"5814",1,1,251,6,6,3,"17ecebf",57,1
"5914",1,1,235,1,1,3,"17ecebf",58,1
"6014",0,1,444,2,1,3,"17ecebf",59,1
"6118",0,1,299,6,1,3,"17ecebf",60,1
"6216",1,1,355,5,5,3,"17ecebf",61,1
"6314",0,1,445,3,1,3,"17ecebf",62,1
"6414",1,1,327,2,2,3,"17ecebf",63,1
"6514",0,1,278,4,1,3,"17ecebf",64,1
"6614",1,1,268,3,3,3,"17ecebf",65,1
"6714",1,1,410,4,4,3,"17ecebf",66,1
"6814",1,1,357,1,1,3,"17ecebf",67,1
"6914",0,1,411,1,6,3,"17ecebf",68,1
"7014",1,1,347,3,3,3,"17ecebf",69,1
"7118",0,1,688,1,3,3,"17ecebf",70,1
"7215",0,1,228,5,1,3,"17ecebf",71,1
"7314",0,1,237,2,1,3,"17ecebf",72,1
"7414",1,1,393,4,4,3,"17ecebf",73,1
"7514",1,1,265,5,5,3,"17ecebf",74,1
"7614",0,1,241,4,1,3,"17ecebf",75,1
"7714",1,1,246,6,6,3,"17ecebf",76,1
"7814",1,1,302,2,2,3,"17ecebf",77,1
"290",-1,-1,0,4,4,3,"1422ddf",1,1
"390",0,0,690,6,6,3,"1422ddf",2,1
"490",0,0,360,1,1,3,"1422ddf",3,1
"590",1,1,450,3,3,3,"1422ddf",4,1
"690",1,0,418,1,3,3,"1422ddf",5,1
"790",0,1,385,5,1,3,"1422ddf",6,1
"815",1,0,434,1,2,3,"1422ddf",7,1
"915",0,1,346,1,4,3,"1422ddf",8,1
"1015",0,1,304,6,1,3,"1422ddf",9,1
"1115",1,1,635,2,2,3,"1422ddf",10,1
"1215",0,0,524,5,5,3,"1422ddf",11,1
"1315",1,1,316,1,1,3,"1422ddf",12,1
"1415",1,1,279,6,6,3,"1422ddf",13,1
"1515",0,1,397,1,4,3,"1422ddf",14,1
"1615",1,1,333,3,3,3,"1422ddf",15,1
"1715",0,1,491,5,1,3,"1422ddf",16,1
"1815",1,1,628,2,2,3,"1422ddf",17,1
"1915",0,1,1113,1,2,3,"1422ddf",18,1
"2015",0,0,734,5,5,3,"1422ddf",19,1
"2119",0,1,925,3,1,3,"1422ddf",20,1
"2217",0,1,324,6,1,3,"1422ddf",21,1
"2315",1,1,338,4,4,3,"1422ddf",22,1
"2415",1,1,306,5,5,3,"1422ddf",23,1
"2515",1,0,270,2,1,3,"1422ddf",24,1
"2615",1,1,630,2,2,3,"1422ddf",25,1
"2715",0,1,609,4,1,3,"1422ddf",26,1
"2815",1,0,505,1,3,3,"1422ddf",27,1
"2915",1,1,265,4,4,3,"1422ddf",28,1
"3015",1,1,627,1,1,3,"1422ddf",29,1
"3119",0,1,1029,6,1,3,"1422ddf",30,1
"3217",0,1,335,1,5,3,"1422ddf",31,1
"3315",1,1,763,3,3,3,"1422ddf",32,1
"3415",1,1,732,6,6,3,"1422ddf",33,1
"3515",1,1,449,4,4,3,"1422ddf",34,1
"3615",-1,-1,0,6,6,3,"1422ddf",35,1
"3715",0,1,386,4,1,3,"1422ddf",36,1
"3815",1,0,324,1,2,3,"1422ddf",37,1
"3915",-1,-1,0,1,5,3,"1422ddf",38,1
"4015",1,1,576,3,3,3,"1422ddf",39,1
"4119",1,1,363,5,5,3,"1422ddf",40,1
"4217",1,1,373,1,1,3,"1422ddf",41,1
"4315",0,1,277,1,6,3,"1422ddf",42,1
"4415",0,1,1356,1,3,3,"1422ddf",43,1
"4515",1,1,1102,2,2,3,"1422ddf",44,1
"4615",1,1,624,6,6,3,"1422ddf",45,1
"4715",0,1,323,6,1,3,"1422ddf",46,1
"4815",1,0,302,1,3,3,"1422ddf",47,1
"4915",1,1,299,4,4,3,"1422ddf",48,1
"5015",1,1,276,5,5,3,"1422ddf",49,1
"5119",1,0,1132,2,1,3,"1422ddf",50,1
"5217",0,1,288,4,1,3,"1422ddf",51,1
"5315",1,0,546,5,1,3,"1422ddf",52,1
"5415",0,0,1234,2,2,3,"1422ddf",53,1
"5515",1,1,298,1,1,3,"1422ddf",54,1
"5615",1,1,422,3,3,3,"1422ddf",55,1
"5715",1,0,542,1,3,3,"1422ddf",56,1
"5815",1,1,289,2,2,3,"1422ddf",57,1
"5915",-1,-1,0,3,3,3,"1422ddf",58,1
"6015",0,1,300,1,5,3,"1422ddf",59,1
"6119",0,1,383,4,1,3,"1422ddf",60,1
"6217",1,1,487,6,6,3,"1422ddf",61,1
"6315",1,1,370,5,5,3,"1422ddf",62,1
"6415",1,0,366,1,6,3,"1422ddf",63,1
"6515",1,1,306,1,1,3,"1422ddf",64,1
"6615",1,1,242,4,4,3,"1422ddf",65,1
"6715",1,0,269,2,1,3,"1422ddf",66,1
"6815",0,1,468,1,4,3,"1422ddf",67,1
"6915",0,1,295,1,6,3,"1422ddf",68,1
"7015",0,1,278,2,1,3,"1422ddf",69,1
"7119",1,1,292,6,6,3,"1422ddf",70,1
"7216",0,0,396,2,2,3,"1422ddf",71,1
"7315",1,1,414,3,3,3,"1422ddf",72,1
"7415",1,1,734,4,4,3,"1422ddf",73,1
"7515",1,1,241,5,5,3,"1422ddf",74,1
"7615",0,1,231,1,5,3,"1422ddf",75,1
"7715",0,1,222,3,1,3,"1422ddf",76,1
"7815",1,1,400,1,1,3,"1422ddf",77,1
"2100",1,0,251,6,1,2,"18b92d6",1,1
"3100",1,1,202,6,6,2,"18b92d6",2,1
"4100",1,1,243,5,5,2,"18b92d6",3,1
"5100",1,1,228,1,1,2,"18b92d6",4,1
"6100",0,1,261,4,1,2,"18b92d6",5,1
"791",0,1,215,1,2,2,"18b92d6",6,1
"816",1,1,191,2,2,2,"18b92d6",7,1
"916",0,1,196,1,3,2,"18b92d6",8,1
"1016",0,1,260,1,5,2,"18b92d6",9,1
"1116",0,0,364,3,3,2,"18b92d6",10,1
"1216",1,1,283,4,4,2,"18b92d6",11,1
"1316",1,1,387,3,3,2,"18b92d6",12,1
"1416",0,1,300,4,1,2,"18b92d6",13,1
"1516",1,1,435,2,2,2,"18b92d6",14,1
"1616",0,1,613,1,6,2,"18b92d6",15,1
"1716",1,1,229,1,1,2,"18b92d6",16,1
"1816",1,1,1839,6,6,2,"18b92d6",17,1
"1916",0,1,520,1,3,2,"18b92d6",18,1
"2016",0,1,1014,5,1,2,"18b92d6",19,1
"2120",1,1,787,5,5,2,"18b92d6",20,1
"2218",1,0,403,2,1,2,"18b92d6",21,1
"2316",1,1,919,4,4,2,"18b92d6",22,1
"2416",0,1,1982,5,1,2,"18b92d6",23,1
"2516",1,1,1873,2,2,2,"18b92d6",24,1
"2616",1,1,574,3,3,2,"18b92d6",25,1
"2716",0,1,1801,1,3,2,"18b92d6",26,1
"2816",1,1,524,6,6,2,"18b92d6",27,1
"2916",0,1,372,1,4,2,"18b92d6",28,1
"3016",0,0,1217,4,4,2,"18b92d6",29,1
"3120",1,0,1044,1,2,2,"18b92d6",30,1
"3218",1,1,1713,5,5,2,"18b92d6",31,1
"3316",0,1,491,1,6,2,"18b92d6",32,1
"3416",1,1,565,1,1,2,"18b92d6",33,1
"3516",0,0,499,5,5,2,"18b92d6",34,1
"3616",1,0,452,2,1,2,"18b92d6",35,1
"3716",0,1,758,1,6,2,"18b92d6",36,1
"3816",0,1,497,5,1,2,"18b92d6",37,1
"3916",0,1,496,1,4,2,"18b92d6",38,1
"4016",0,0,443,2,2,2,"18b92d6",39,1
"4120",0,0,933,3,3,2,"18b92d6",40,1
"4218",0,1,598,1,3,2,"18b92d6",41,1
"4316",1,1,320,1,1,2,"18b92d6",42,1
"4416",0,0,348,6,6,2,"18b92d6",43,1
"4516",1,1,314,4,4,2,"18b92d6",44,1
"4616",0,0,143,5,5,2,"18b92d6",45,1
"4716",0,1,332,1,2,2,"18b92d6",46,1
"4816",0,1,681,6,1,2,"18b92d6",47,1
"4916",0,1,464,1,5,2,"18b92d6",48,1
"5016",0,1,465,3,1,2,"18b92d6",49,1
"5120",1,1,1980,2,2,2,"18b92d6",50,1
"5218",1,1,403,4,4,2,"18b92d6",51,1
"5316",1,1,505,6,6,2,"18b92d6",52,1
"5416",1,1,338,3,3,2,"18b92d6",53,1
"5516",1,1,337,1,1,2,"18b92d6",54,1
"5616",0,1,571,4,1,2,"18b92d6",55,1
"5716",1,1,493,2,2,2,"18b92d6",56,1
"5816",1,1,314,3,3,2,"18b92d6",57,1
"5916",0,1,292,1,6,2,"18b92d6",58,1
"6016",0,1,404,1,5,2,"18b92d6",59,1
"6120",1,1,296,1,1,2,"18b92d6",60,1
"6218",0,1,606,3,1,2,"18b92d6",61,1
"6316",1,1,322,6,6,2,"18b92d6",62,1
"6416",1,1,449,5,5,2,"18b92d6",63,1
"6516",0,1,400,2,1,2,"18b92d6",64,1
"6616",1,1,494,4,4,2,"18b92d6",65,1
"6716",0,1,1074,1,4,2,"18b92d6",66,1
"6816",0,1,1975,4,1,2,"18b92d6",67,1
"6916",1,1,330,3,3,2,"18b92d6",68,1
"7016",0,1,1340,1,3,2,"18b92d6",69,1
"7120",0,1,432,1,6,2,"18b92d6",70,1
"7217",1,1,376,1,1,2,"18b92d6",71,1
"7316",0,1,2001,5,1,2,"18b92d6",72,1
"7416",1,1,1259,6,6,2,"18b92d6",73,1
"7516",1,0,348,1,2,2,"18b92d6",74,1
"7616",1,1,251,5,5,2,"18b92d6",75,1
"7716",1,1,153,2,2,2,"18b92d6",76,1
"7816",1,1,289,4,4,2,"18b92d6",77,1
"2101",1,1,941,3,3,1,"12c199e",1,1
"3101",0,1,690,1,5,1,"12c199e",2,1
"4101",0,1,494,1,3,1,"12c199e",3,1
"5101",0,1,515,1,4,1,"12c199e",4,1
"6101",0,0,366,4,4,1,"12c199e",5,1
"792",0,1,423,1,6,1,"12c199e",6,1
"817",1,1,367,2,2,1,"12c199e",7,1
"917",1,1,393,1,1,1,"12c199e",8,1
"1017",0,0,414,6,6,1,"12c199e",9,1
"1117",1,1,356,5,5,1,"12c199e",10,1
"1217",0,1,634,1,2,1,"12c199e",11,1
"1317",0,1,617,6,1,1,"12c199e",12,1
"1417",0,1,708,5,1,1,"12c199e",13,1
"1517",0,0,387,4,4,1,"12c199e",14,1
"1617",1,1,425,6,6,1,"12c199e",15,1
"1717",1,1,395,2,2,1,"12c199e",16,1
"1817",1,1,409,1,1,1,"12c199e",17,1
"1917",1,1,394,3,3,1,"12c199e",18,1
"2017",1,1,383,5,5,1,"12c199e",19,1
"2121",0,1,796,1,3,1,"12c199e",20,1
"2219",0,1,684,4,1,1,"12c199e",21,1
"2317",0,1,507,1,2,1,"12c199e",22,1
"2417",1,1,639,2,2,1,"12c199e",23,1
"2517",1,1,388,5,5,1,"12c199e",24,1
"2617",0,1,381,5,1,1,"12c199e",25,1
"2717",1,1,388,6,6,1,"12c199e",26,1
"2817",1,1,384,4,4,1,"12c199e",27,1
"2917",1,1,592,3,3,1,"12c199e",28,1
"3017",0,1,427,4,1,1,"12c199e",29,1
"3121",0,1,385,2,1,1,"12c199e",30,1
"3219",0,1,384,3,1,1,"12c199e",31,1
"3317",0,1,584,1,6,1,"12c199e",32,1
"3417",1,1,410,1,1,1,"12c199e",33,1
"3517",1,1,466,1,1,1,"12c199e",34,1
"3617",1,1,415,3,3,1,"12c199e",35,1
"3717",0,1,463,1,3,1,"12c199e",36,1
"3817",1,1,395,5,5,1,"12c199e",37,1
"3917",0,1,500,1,4,1,"12c199e",38,1
"4017",0,1,503,6,1,1,"12c199e",39,1
"4121",0,1,424,1,2,1,"12c199e",40,1
"4219",0,1,442,1,5,1,"12c199e",41,1
"4317",1,1,423,4,4,1,"12c199e",42,1
"4417",1,1,527,2,2,1,"12c199e",43,1
"4517",1,1,812,6,6,1,"12c199e",44,1
"4617",1,1,361,5,5,1,"12c199e",45,1
"4717",0,1,599,1,6,1,"12c199e",46,1
"4817",0,1,406,4,1,1,"12c199e",47,1
"4917",1,1,466,1,1,1,"12c199e",48,1
"5017",1,1,521,6,6,1,"12c199e",49,1
"5121",0,1,500,1,2,1,"12c199e",50,1
"5219",0,1,627,3,1,1,"12c199e",51,1
"5317",1,1,410,3,3,1,"12c199e",52,1
"5417",1,1,442,4,4,1,"12c199e",53,1
"5517",1,1,399,2,2,1,"12c199e",54,1
"5617",0,1,368,5,1,1,"12c199e",55,1
"5717",1,1,801,4,4,1,"12c199e",56,1
"5817",1,1,380,6,6,1,"12c199e",57,1
"5917",1,0,398,2,1,1,"12c199e",58,1
"6017",1,1,471,3,3,1,"12c199e",59,1
"6121",1,1,344,5,5,1,"12c199e",60,1
"6219",0,1,362,4,1,1,"12c199e",61,1
"6317",0,1,552,3,1,1,"12c199e",62,1
"6417",1,1,488,2,2,1,"12c199e",63,1
"6517",1,1,403,1,1,1,"12c199e",64,1
"6617",0,1,438,5,1,1,"12c199e",65,1
"6717",0,1,457,6,1,1,"12c199e",66,1
"6817",1,1,452,1,1,1,"12c199e",67,1
"6917",0,1,401,1,6,1,"12c199e",68,1
"7017",1,1,399,6,6,1,"12c199e",69,1
"7121",1,1,402,4,4,1,"12c199e",70,1
"7218",0,1,421,1,2,1,"12c199e",71,1
"7317",1,1,408,3,3,1,"12c199e",72,1
"7417",1,1,487,5,5,1,"12c199e",73,1
"7517",0,1,609,4,1,1,"12c199e",74,1
"7617",0,1,399,1,5,1,"12c199e",75,1
"7717",1,1,533,2,2,1,"12c199e",76,1
"7817",0,1,469,3,1,1,"12c199e",77,1
"2102",1,1,477,1,1,1,"bba308e",1,1
"3102",0,1,997,1,2,1,"bba308e",2,1
"4102",0,1,304,1,3,1,"bba308e",3,1
"5102",1,1,444,4,4,1,"bba308e",4,1
"6102",1,1,816,6,6,1,"bba308e",5,1
"793",1,1,702,5,5,1,"bba308e",6,1
"818",1,1,835,3,3,1,"bba308e",7,1
"918",0,1,400,1,4,1,"bba308e",8,1
"1018",0,1,294,5,1,1,"bba308e",9,1
"1118",0,1,299,1,6,1,"bba308e",10,1
"1218",1,1,259,2,2,1,"bba308e",11,1
"1318",0,1,381,1,3,1,"bba308e",12,1
"1418",1,1,741,5,5,1,"bba308e",13,1
"1518",0,1,300,1,6,1,"bba308e",14,1
"1618",1,1,202,4,4,1,"bba308e",15,1
"1718",1,1,867,1,1,1,"bba308e",16,1
"1818",0,1,256,1,5,1,"bba308e",17,1
"1918",1,1,245,6,6,1,"bba308e",18,1
"2018",1,1,275,2,2,1,"bba308e",19,1
"2122",0,1,714,2,1,1,"bba308e",20,1
"2220",1,1,206,3,3,1,"bba308e",21,1
"2318",0,1,65,1,4,1,"bba308e",22,1
"2418",0,1,237,1,4,1,"bba308e",23,1
"2518",1,1,716,1,1,1,"bba308e",24,1
"2618",0,1,1298,6,1,1,"bba308e",25,1
"2718",0,1,680,1,3,1,"bba308e",26,1
"2818",1,1,350,5,5,1,"bba308e",27,1
"2918",1,1,252,2,2,1,"bba308e",28,1
"3018",1,1,257,3,3,1,"bba308e",29,1
"3122",0,1,263,1,2,1,"bba308e",30,1
"3220",1,1,270,6,6,1,"bba308e",31,1
"3318",0,1,213,1,5,1,"bba308e",32,1
"3418",1,1,270,4,4,1,"bba308e",33,1
"3518",0,1,256,5,1,1,"bba308e",34,1
"3618",1,1,287,5,5,1,"bba308e",35,1
"3718",0,1,364,1,3,1,"bba308e",36,1
"3818",1,1,265,4,4,1,"bba308e",37,1
"3918",1,1,311,2,2,1,"bba308e",38,1
"4018",0,1,230,1,4,1,"bba308e",39,1
"4122",0,1,315,1,6,1,"bba308e",40,1
"4220",0,1,275,2,1,1,"bba308e",41,1
"4318",1,1,190,6,6,1,"bba308e",42,1
"4418",1,1,281,3,3,1,"bba308e",43,1
"4518",1,1,65,1,1,1,"bba308e",44,1
"4618",1,1,289,4,4,1,"bba308e",45,1
"4718",0,1,260,1,5,1,"bba308e",46,1
"4818",1,1,377,2,2,1,"bba308e",47,1
"4918",1,1,754,3,3,1,"bba308e",48,1
"5018",0,1,97,4,1,1,"bba308e",49,1
"5122",1,1,209,1,1,1,"bba308e",50,1
"5220",1,1,222,6,6,1,"bba308e",51,1
"5318",0,1,278,2,1,1,"bba308e",52,1
"5418",0,1,278,1,6,1,"bba308e",53,1
"5518",1,1,186,5,5,1,"bba308e",54,1
"5618",0,1,139,3,1,1,"bba308e",55,1
"5718",1,1,124,1,1,1,"bba308e",56,1
"5818",1,1,123,3,3,1,"bba308e",57,1
"5918",0,1,222,1,4,1,"bba308e",58,1
"6018",1,1,244,2,2,1,"bba308e",59,1
"6122",0,1,289,5,1,1,"bba308e",60,1
"6220",1,1,403,4,4,1,"bba308e",61,1
"6318",1,1,319,6,6,1,"bba308e",62,1
"6418",0,1,750,2,1,1,"bba308e",63,1
"6518",0,1,1204,1,3,1,"bba308e",64,1
"6618",0,1,382,1,6,1,"bba308e",65,1
"6718",1,1,60,5,5,1,"bba308e",66,1
"6818",0,1,304,6,1,1,"bba308e",67,1
"6918",-1,-1,0,5,5,1,"bba308e",68,1
"7018",-1,-1,0,1,2,1,"bba308e",69,1
"7122",-1,-1,0,1,5,1,"bba308e",70,1
"7219",-1,-1,0,2,2,1,"bba308e",71,1
"7318",-1,-1,0,3,3,1,"bba308e",72,1
"7418",-1,-1,0,4,4,1,"bba308e",73,1
"7518",-1,-1,0,6,6,1,"bba308e",74,1
"7618",-1,-1,0,3,1,1,"bba308e",75,1
"7718",-1,-1,0,1,1,1,"bba308e",76,1
"7818",-1,-1,0,4,1,1,"bba308e",77,1
"2103",1,0,725,5,1,1,"105a60a",1,1
"3103",1,1,1060,2,2,1,"105a60a",2,1
"4103",1,1,799,5,5,1,"105a60a",3,1
"5103",0,1,977,3,1,1,"105a60a",4,1
"6103",1,1,782,6,6,1,"105a60a",5,1
"794",0,1,252,1,6,1,"105a60a",6,1
"819",0,0,303,3,3,1,"105a60a",7,1
"919",0,1,367,1,2,1,"105a60a",8,1
"1019",1,1,536,1,1,1,"105a60a",9,1
"1119",1,0,351,4,1,1,"105a60a",10,1
"1219",1,1,149,4,4,1,"105a60a",11,1
"1319",1,1,373,6,6,1,"105a60a",12,1
"1419",1,1,131,1,1,1,"105a60a",13,1
"1519",1,1,155,4,4,1,"105a60a",14,1
"1619",0,1,236,1,2,1,"105a60a",15,1
"1719",0,1,112,1,3,1,"105a60a",16,1
"1819",1,1,910,3,3,1,"105a60a",17,1
"1919",0,1,513,1,6,1,"105a60a",18,1
"2019",0,1,555,5,1,1,"105a60a",19,1
"2123",0,1,274,1,4,1,"105a60a",20,1
"2221",1,1,81,2,2,1,"105a60a",21,1
"2319",1,1,271,5,5,1,"105a60a",22,1
"2419",1,1,64,2,2,1,"105a60a",23,1
"2519",1,1,642,1,1,1,"105a60a",24,1
"2619",0,1,1664,5,1,1,"105a60a",25,1
"2719",1,1,1376,6,6,1,"105a60a",26,1
"2819",0,1,272,2,1,1,"105a60a",27,1
"2919",1,1,355,5,5,1,"105a60a",28,1
"3019",1,1,211,4,4,1,"105a60a",29,1
"3123",0,1,641,1,4,1,"105a60a",30,1
"3221",0,1,959,1,6,1,"105a60a",31,1
"3319",0,1,15,1,3,1,"105a60a",32,1
"3419",1,1,338,3,3,1,"105a60a",33,1
"3519",1,1,545,3,3,1,"105a60a",34,1
"3619",1,1,269,4,4,1,"105a60a",35,1
"3719",1,1,340,2,2,1,"105a60a",36,1
"3819",0,1,29,1,5,1,"105a60a",37,1
"3919",0,1,347,4,1,1,"105a60a",38,1
"4019",0,1,500,1,3,1,"105a60a",39,1
"4123",1,1,366,1,1,1,"105a60a",40,1
"4221",1,1,201,5,5,1,"105a60a",41,1
"4319",1,1,273,6,6,1,"105a60a",42,1
"4419",0,1,1230,1,2,1,"105a60a",43,1
"4519",0,1,616,6,1,1,"105a60a",44,1
"4619",1,1,672,5,5,1,"105a60a",45,1
"4719",1,1,270,4,4,1,"105a60a",46,1
"4819",0,1,837,1,2,1,"105a60a",47,1
"4919",0,1,512,1,3,1,"105a60a",48,1
"5019",1,1,733,2,2,1,"105a60a",49,1
"5123",0,1,202,1,4,1,"105a60a",50,1
"5221",0,1,293,1,5,1,"105a60a",51,1
"5319",1,1,242,3,3,1,"105a60a",52,1
"5419",0,1,1043,1,6,1,"105a60a",53,1
"5519",1,1,60,1,1,1,"105a60a",54,1
"5619",1,1,311,6,6,1,"105a60a",55,1
"5719",1,1,277,2,2,1,"105a60a",56,1
"5819",0,1,1095,5,1,1,"105a60a",57,1
"5919",1,1,538,3,3,1,"105a60a",58,1
"6019",1,1,381,5,5,1,"105a60a",59,1
"6123",1,1,490,6,6,1,"105a60a",60,1
"6221",1,1,310,1,1,1,"105a60a",61,1
"6319",1,0,666,1,2,1,"105a60a",62,1
"6419",0,1,584,4,1,1,"105a60a",63,1
"6519",1,1,545,4,4,1,"105a60a",64,1
"6619",0,1,179,1,3,1,"105a60a",65,1
"6719",0,1,524,1,6,1,"105a60a",66,1
"6819",0,1,437,1,5,1,"105a60a",67,1
"6919",0,1,644,6,1,1,"105a60a",68,1
"7019",0,1,624,1,4,1,"105a60a",69,1
"7123",1,1,481,2,2,1,"105a60a",70,1
"7220",1,1,413,6,6,1,"105a60a",71,1
"7319",1,1,519,1,1,1,"105a60a",72,1
"7419",1,1,259,5,5,1,"105a60a",73,1
"7519",0,1,63,1,3,1,"105a60a",74,1
"7619",1,1,273,4,4,1,"105a60a",75,1
"7719",0,1,67,2,1,1,"105a60a",76,1
"7819",1,1,404,3,3,1,"105a60a",77,1
"2104",0,0,995,4,4,2,"1d5d7ff",1,1
"3104",0,1,302,1,6,2,"1d5d7ff",2,1
"4104",0,1,241,2,1,2,"1d5d7ff",3,1
"5104",1,1,206,1,1,2,"1d5d7ff",4,1
"6104",1,1,351,3,3,2,"1d5d7ff",5,1
"795",1,1,561,5,5,2,"1d5d7ff",6,1
"820",0,1,362,3,1,2,"1d5d7ff",7,1
"920",0,1,351,1,5,2,"1d5d7ff",8,1
"1020",0,1,444,4,1,2,"1d5d7ff",9,1
"1120",1,1,375,6,6,2,"1d5d7ff",10,1
"1220",1,1,307,2,2,2,"1d5d7ff",11,1
"1320",0,1,489,1,6,2,"1d5d7ff",12,1
"1420",1,1,304,3,3,2,"1d5d7ff",13,1
"1520",0,1,233,4,1,2,"1d5d7ff",14,1
"1620",1,1,431,1,1,2,"1d5d7ff",15,1
"1720",0,1,252,2,1,2,"1d5d7ff",16,1
"1820",1,1,334,2,2,2,"1d5d7ff",17,1
"1920",0,1,338,1,5,2,"1d5d7ff",18,1
"2020",1,1,318,4,4,2,"1d5d7ff",19,1
"2124",0,1,460,1,3,2,"1d5d7ff",20,1
"2222",1,1,513,5,5,2,"1d5d7ff",21,1
"2320",1,1,590,6,6,2,"1d5d7ff",22,1
"2420",1,1,241,2,2,2,"1d5d7ff",23,1
"2520",1,1,314,3,3,2,"1d5d7ff",24,1
"2620",1,0,532,1,2,2,"1d5d7ff",25,1
"2720",0,1,324,1,3,2,"1d5d7ff",26,1
"2820",1,1,381,6,6,2,"1d5d7ff",27,1
"2920",0,1,429,1,5,2,"1d5d7ff",28,1
"3020",1,1,255,4,4,2,"1d5d7ff",29,1
"3124",0,1,282,1,4,2,"1d5d7ff",30,1
"3222",0,1,266,6,1,2,"1d5d7ff",31,1
"3320",1,1,516,1,1,2,"1d5d7ff",32,1
"3420",1,1,644,5,5,2,"1d5d7ff",33,1
"3520",0,1,318,1,2,2,"1d5d7ff",34,1
"3620",1,1,710,3,3,2,"1d5d7ff",35,1
"3720",1,1,411,6,6,2,"1d5d7ff",36,1
"3820",0,1,359,5,1,2,"1d5d7ff",37,1
"3920",1,1,245,1,1,2,"1d5d7ff",38,1
"4020",0,1,585,1,4,2,"1d5d7ff",39,1
"4124",0,1,792,6,1,2,"1d5d7ff",40,1
"4222",1,1,269,2,2,2,"1d5d7ff",41,1
"4320",1,1,528,4,4,2,"1d5d7ff",42,1
"4420",1,1,383,5,5,2,"1d5d7ff",43,1
"4520",0,1,924,1,3,2,"1d5d7ff",44,1
"4620",0,1,289,1,5,2,"1d5d7ff",45,1
"4720",0,1,342,1,3,2,"1d5d7ff",46,1
"4820",1,1,384,1,1,2,"1d5d7ff",47,1
"4920",1,1,302,4,4,2,"1d5d7ff",48,1
"5020",1,1,350,3,3,2,"1d5d7ff",49,1
"5124",0,1,398,1,2,2,"1d5d7ff",50,1
"5222",1,1,498,6,6,2,"1d5d7ff",51,1
"5320",0,1,324,6,1,2,"1d5d7ff",52,1
"5420",1,1,257,2,2,2,"1d5d7ff",53,1
"5520",1,1,312,5,5,2,"1d5d7ff",54,1
"5620",0,1,614,1,4,2,"1d5d7ff",55,1
"5720",1,1,326,1,1,2,"1d5d7ff",56,1
"5820",0,1,350,1,3,2,"1d5d7ff",57,1
"5920",1,1,239,5,5,2,"1d5d7ff",58,1
"6020",1,1,362,6,6,2,"1d5d7ff",59,1
"6124",0,1,856,1,4,2,"1d5d7ff",60,1
"6222",0,1,277,1,5,2,"1d5d7ff",61,1
"6320",1,1,237,2,2,2,"1d5d7ff",62,1
"6420",0,1,264,1,6,2,"1d5d7ff",63,1
"6520",1,1,297,4,4,2,"1d5d7ff",64,1
"6620",1,1,267,3,3,2,"1d5d7ff",65,1
"6720",0,1,327,2,1,2,"1d5d7ff",66,1
"6820",0,1,296,1,3,2,"1d5d7ff",67,1
"6920",0,1,807,1,5,2,"1d5d7ff",68,1
"7020",1,1,552,5,5,2,"1d5d7ff",69,1
"7124",1,1,327,4,4,2,"1d5d7ff",70,1
"7221",1,1,847,3,3,2,"1d5d7ff",71,1
"7320",0,0,280,6,6,2,"1d5d7ff",72,1
"7420",1,1,242,1,1,2,"1d5d7ff",73,1
"7520",0,1,363,1,6,2,"1d5d7ff",74,1
"7620",1,0,267,1,2,2,"1d5d7ff",75,1
"7720",1,1,238,2,2,2,"1d5d7ff",76,1
"7820",0,1,569,1,4,2,"1d5d7ff",77,1
"2105",1,0,649,3,1,3,"anglesc",1,1
"3105",1,1,614,4,4,3,"anglesc",2,1
"4105",1,1,370,2,2,3,"anglesc",3,1
"5105",1,0,334,6,1,3,"anglesc",4,1
"6105",1,1,420,6,6,3,"anglesc",5,1
"796",1,0,384,4,1,3,"anglesc",6,1
"821",1,0,1143,2,1,3,"anglesc",7,1
"921",1,1,301,3,3,3,"anglesc",8,1
"1021",1,1,976,5,5,3,"anglesc",9,1
"1121",0,1,996,1,5,3,"anglesc",10,1
"1221",1,1,594,1,1,3,"anglesc",11,1
"1321",1,1,285,3,3,3,"anglesc",12,1
"1421",1,1,379,6,6,3,"anglesc",13,1
"1521",1,0,261,3,1,3,"anglesc",14,1
"1621",1,1,308,4,4,3,"anglesc",15,1
"1721",1,0,865,4,1,3,"anglesc",16,1
"1821",0,1,273,6,1,3,"anglesc",17,1
"1921",1,1,308,2,2,3,"anglesc",18,1
"2021",1,1,565,1,1,3,"anglesc",19,1
"2125",0,1,438,2,1,3,"anglesc",20,1
"2223",0,1,88,1,5,3,"anglesc",21,1
"2321",1,1,231,5,5,3,"anglesc",22,1
"2421",1,1,637,6,6,3,"anglesc",23,1
"2521",1,1,436,3,3,3,"anglesc",24,1
"2621",0,1,492,5,1,3,"anglesc",25,1
"2721",0,1,200,1,2,3,"anglesc",26,1
"2821",0,1,320,4,1,3,"anglesc",27,1
"2921",1,0,910,1,3,3,"anglesc",28,1
"3021",1,1,301,1,1,3,"anglesc",29,1
"3125",1,1,100,2,2,3,"anglesc",30,1
"3223",0,1,621,6,1,3,"anglesc",31,1
"3321",1,1,415,4,4,3,"anglesc",32,1
"3421",1,1,428,5,5,3,"anglesc",33,1
"3521",0,0,525,4,4,3,"anglesc",34,1
"3621",0,1,478,1,4,3,"anglesc",35,1
"3721",1,1,50,6,6,3,"anglesc",36,1
"3821",0,1,1295,1,2,3,"anglesc",37,1
"3921",0,1,491,1,6,3,"anglesc",38,1
"4021",1,1,370,5,5,3,"anglesc",39,1
"4125",1,1,474,3,3,3,"anglesc",40,1
"4223",1,0,1955,1,3,3,"anglesc",41,1
"4321",0,1,499,1,5,3,"anglesc",42,1
"4421",1,1,511,1,1,3,"anglesc",43,1
"4521",1,1,543,2,2,3,"anglesc",44,1
"4621",0,1,500,1,6,3,"anglesc",45,1
"4721",1,0,1889,3,1,3,"anglesc",46,1
"4821",1,1,296,3,3,3,"anglesc",47,1
"4921",1,1,245,1,1,3,"anglesc",48,1
"5021",1,1,901,2,2,3,"anglesc",49,1
"5125",0,1,550,4,1,3,"anglesc",50,1
"5223",0,1,391,2,1,3,"anglesc",51,1
"5321",0,1,449,5,1,3,"anglesc",52,1
"5421",1,1,346,4,4,3,"anglesc",53,1
"5521",1,1,383,6,6,3,"anglesc",54,1
"5621",1,1,427,5,5,3,"anglesc",55,1
"5721",0,1,1971,2,1,3,"anglesc",56,1
"5821",1,1,399,4,4,3,"anglesc",57,1
"5921",1,1,387,5,5,3,"anglesc",58,1
"6021",1,1,405,6,6,3,"anglesc",59,1
"6125",0,1,1708,1,3,3,"anglesc",60,1
"6223",0,1,461,5,1,3,"anglesc",61,1
"6321",0,1,542,4,1,3,"anglesc",62,1
"6421",1,1,812,3,3,3,"anglesc",63,1
"6521",1,1,567,1,1,3,"anglesc",64,1
"6621",1,1,422,2,2,3,"anglesc",65,1
"6721",0,1,411,6,1,3,"anglesc",66,1
"6821",1,1,324,2,2,3,"anglesc",67,1
"6921",0,1,220,4,1,3,"anglesc",68,1
"7021",1,1,346,5,5,3,"anglesc",69,1
"7125",1,1,341,1,1,3,"anglesc",70,1
"7222",0,1,293,6,1,3,"anglesc",71,1
"7321",0,1,716,1,3,3,"anglesc",72,1
"7421",0,1,328,2,1,3,"anglesc",73,1
"7521",0,1,375,5,1,3,"anglesc",74,1
"7621",1,1,527,6,6,3,"anglesc",75,1
"7721",1,1,319,4,4,3,"anglesc",76,1
"7821",0,0,327,3,3,3,"anglesc",77,1
"2106",1,0,667,6,1,2,"125dbb9",1,1
"3106",1,0,386,5,1,2,"125dbb9",2,1
"4106",1,0,602,1,2,2,"125dbb9",3,1
"5106",0,1,444,3,1,2,"125dbb9",4,1
"6106",0,0,534,3,3,2,"125dbb9",5,1
"797",0,1,799,4,1,2,"125dbb9",6,1
"822",1,1,661,1,1,2,"125dbb9",7,1
"922",0,0,640,4,4,2,"125dbb9",8,1
"1022",1,1,576,2,2,2,"125dbb9",9,1
"1122",0,0,1215,6,6,2,"125dbb9",10,1
"1222",0,0,1318,5,5,2,"125dbb9",11,1
"1322",1,0,528,1,2,2,"125dbb9",12,1
"1422",1,1,296,2,2,2,"125dbb9",13,1
"1522",1,1,639,6,6,2,"125dbb9",14,1
"1622",1,0,528,1,6,2,"125dbb9",15,1
"1722",0,1,347,3,1,2,"125dbb9",16,1
"1822",0,0,938,3,3,2,"125dbb9",17,1
"1922",1,1,434,1,1,2,"125dbb9",18,1
"2022",1,0,509,1,5,2,"125dbb9",19,1
"2126",1,1,340,5,5,2,"125dbb9",20,1
"2224",1,0,543,1,4,2,"125dbb9",21,1
"2322",0,0,360,4,4,2,"125dbb9",22,1
"2422",1,0,298,5,1,2,"125dbb9",23,1
"2522",1,1,348,3,3,2,"125dbb9",24,1
"2622",0,0,526,2,2,2,"125dbb9",25,1
"2722",0,0,349,5,5,2,"125dbb9",26,1
"2822",1,0,336,1,6,2,"125dbb9",27,1
"2922",1,1,605,6,6,2,"125dbb9",28,1
"3022",0,1,422,1,2,2,"125dbb9",29,1
"3126",0,0,541,4,4,2,"125dbb9",30,1
"3224",1,0,636,1,4,2,"125dbb9",31,1
"3322",1,1,1034,1,1,2,"125dbb9",32,1
"3422",1,0,694,3,1,2,"125dbb9",33,1
"3522",0,1,343,1,6,2,"125dbb9",34,1
"3622",1,1,871,1,1,2,"125dbb9",35,1
"3722",1,0,1421,1,5,2,"125dbb9",36,1
"3822",0,1,681,3,1,2,"125dbb9",37,1
"3922",1,1,922,3,3,2,"125dbb9",38,1
"4022",1,1,1115,4,4,2,"125dbb9",39,1
"4126",1,0,595,1,2,2,"125dbb9",40,1
"4224",1,1,218,5,5,2,"125dbb9",41,1
"4322",1,1,761,6,6,2,"125dbb9",42,1
"4422",1,1,1283,2,2,2,"125dbb9",43,1
"4522",1,0,421,4,1,2,"125dbb9",44,1
"4622",1,1,532,1,1,2,"125dbb9",45,1
"4722",0,1,775,1,4,2,"125dbb9",46,1
"4822",1,0,727,6,1,2,"125dbb9",47,1
"4922",0,0,511,4,4,2,"125dbb9",48,1
"5022",0,0,778,2,2,2,"125dbb9",49,1
"5126",1,1,375,6,6,2,"125dbb9",50,1
"5224",1,0,1108,1,3,2,"125dbb9",51,1
"5322",0,0,849,5,5,2,"125dbb9",52,1
"5422",1,0,655,2,1,2,"125dbb9",53,1
"5522",0,0,330,3,3,2,"125dbb9",54,1
"5622",1,0,1091,1,5,2,"125dbb9",55,1
"5722",1,1,1105,1,1,2,"125dbb9",56,1
"5822",1,1,389,4,4,2,"125dbb9",57,1
"5922",1,0,1160,3,1,2,"125dbb9",58,1
"6022",1,1,804,6,6,2,"125dbb9",59,1
"6126",1,1,419,5,5,2,"125dbb9",60,1
"6224",0,1,412,2,1,2,"125dbb9",61,1
"6322",1,0,631,1,4,2,"125dbb9",62,1
"6422",0,1,1247,1,5,2,"125dbb9",63,1
"6522",1,1,607,2,2,2,"125dbb9",64,1
"6622",1,0,883,1,6,2,"125dbb9",65,1
"6722",1,1,1269,3,3,2,"125dbb9",66,1
"6822",1,1,329,5,5,2,"125dbb9",67,1
"6922",0,0,358,6,6,2,"125dbb9",68,1
"7022",1,1,264,2,2,2,"125dbb9",69,1
"7126",1,0,439,1,5,2,"125dbb9",70,1
"7223",1,0,422,1,4,2,"125dbb9",71,1
"7322",1,1,1292,3,3,2,"125dbb9",72,1
"7422",0,0,929,1,1,2,"125dbb9",73,1
"7522",0,0,738,4,4,2,"125dbb9",74,1
"7622",1,0,606,1,6,2,"125dbb9",75,1
"7722",1,0,979,1,3,2,"125dbb9",76,1
"7822",1,0,1111,2,1,2,"125dbb9",77,1
"2107",0,1,682,1,4,2,"659cac4",1,1
"3107",1,1,662,1,1,2,"659cac4",2,1
"4107",1,1,766,3,3,2,"659cac4",3,1
"5107",1,0,377,6,1,2,"659cac4",4,1
"6107",1,1,465,4,4,2,"659cac4",5,1
"798",1,0,1242,5,1,2,"659cac4",6,1
"823",1,1,329,5,5,2,"659cac4",7,1
"923",1,1,395,2,2,2,"659cac4",8,1
"1023",0,0,362,6,6,2,"659cac4",9,1
"1123",1,0,392,1,3,2,"659cac4",10,1
"1223",0,1,288,2,1,2,"659cac4",11,1
"1323",1,0,1158,1,3,2,"659cac4",12,1
"1423",1,1,397,6,6,2,"659cac4",13,1
"1523",1,0,338,5,1,2,"659cac4",14,1
"1623",1,1,316,2,2,2,"659cac4",15,1
"1723",1,1,362,3,3,2,"659cac4",16,1
"1823",1,1,456,1,1,2,"659cac4",17,1
"1923",1,1,383,5,5,2,"659cac4",18,1
"2023",1,0,294,2,1,2,"659cac4",19,1
"2127",1,0,280,4,1,2,"659cac4",20,1
"2225",0,1,298,1,6,2,"659cac4",21,1
"2323",1,1,384,4,4,2,"659cac4",22,1
"2423",0,0,321,5,5,2,"659cac4",23,1
"2523",1,1,406,3,3,2,"659cac4",24,1
"2623",1,0,342,6,1,2,"659cac4",25,1
"2723",1,0,394,2,1,2,"659cac4",26,1
"2823",0,0,322,4,4,2,"659cac4",27,1
"2923",0,0,244,2,2,2,"659cac4",28,1
"3023",1,0,338,5,1,2,"659cac4",29,1
"3127",0,1,386,1,4,2,"659cac4",30,1
"3225",0,1,302,3,1,2,"659cac4",31,1
"3323",1,1,339,1,1,2,"659cac4",32,1
"3423",-1,-1,0,6,6,2,"659cac4",33,1
"3523",1,1,270,1,1,2,"659cac4",34,1
"3623",1,1,312,3,3,2,"659cac4",35,1
"3723",1,1,336,2,2,2,"659cac4",36,1
"3823",0,0,338,5,5,2,"659cac4",37,1
"3923",1,0,359,2,1,2,"659cac4",38,1
"4023",0,1,794,4,1,2,"659cac4",39,1
"4127",0,1,543,5,1,2,"659cac4",40,1
"4225",1,1,362,6,6,2,"659cac4",41,1
"4323",0,1,692,1,3,2,"659cac4",42,1
"4423",1,1,328,4,4,2,"659cac4",43,1
"4523",0,1,390,6,1,2,"659cac4",44,1
"4623",0,1,626,3,1,2,"659cac4",45,1
"4723",1,1,579,2,2,2,"659cac4",46,1
"4823",-1,-1,0,1,4,2,"659cac4",47,1
"4923",0,1,336,1,6,2,"659cac4",48,1
"5023",1,1,277,6,6,2,"659cac4",49,1
"5127",1,1,863,3,3,2,"659cac4",50,1
"5225",0,1,502,1,2,2,"659cac4",51,1
"5323",1,0,1250,5,1,2,"659cac4",52,1
"5423",1,1,346,4,4,2,"659cac4",53,1
"5523",1,1,1566,1,1,2,"659cac4",54,1
"5623",1,1,232,5,5,2,"659cac4",55,1
"5723",0,0,302,2,2,2,"659cac4",56,1
"5823",0,1,799,1,5,2,"659cac4",57,1
"5923",1,1,438,5,5,2,"659cac4",58,1
"6023",1,0,422,1,2,2,"659cac4",59,1
"6127",1,1,270,1,1,2,"659cac4",60,1
"6225",1,1,214,3,3,2,"659cac4",61,1
"6323",1,1,194,4,4,2,"659cac4",62,1
"6423",0,1,446,1,4,2,"659cac4",63,1
"6523",0,1,481,6,1,2,"659cac4",64,1
"6623",0,0,283,6,6,2,"659cac4",65,1
"6723",0,1,322,3,1,2,"659cac4",66,1
"6823",1,0,410,3,1,2,"659cac4",67,1
"6923",1,0,697,6,1,2,"659cac4",68,1
"7023",0,1,322,4,1,2,"659cac4",69,1
"7127",0,1,479,1,5,2,"659cac4",70,1
"7224",1,1,396,2,2,2,"659cac4",71,1
"7323",0,0,287,4,4,2,"659cac4",72,1
"7423",1,1,606,3,3,2,"659cac4",73,1
"7523",1,1,309,6,6,2,"659cac4",74,1
"7623",1,1,505,5,5,2,"659cac4",75,1
"7723",1,1,462,1,1,2,"659cac4",76,1
"7823",0,1,307,2,1,2,"659cac4",77,1
"2108",1,0,366,1,6,3,"1c25873",1,1
"3108",1,1,322,5,5,3,"1c25873",2,1
"4108",0,1,291,1,5,3,"1c25873",3,1
"5108",1,1,237,2,2,3,"1c25873",4,1
"6108",1,1,318,1,1,3,"1c25873",5,1
"799",1,0,302,1,3,3,"1c25873",6,1
"824",1,1,371,4,4,3,"1c25873",7,1
"924",1,0,324,1,4,3,"1c25873",8,1
"1024",1,0,284,1,2,3,"1c25873",9,1
"1124",1,1,195,3,3,3,"1c25873",10,1
"1224",1,1,612,6,6,3,"1c25873",11,1
"1324",0,0,370,5,5,3,"1c25873",12,1
"1424",1,1,290,3,3,3,"1c25873",13,1
"1524",0,0,395,6,6,3,"1c25873",14,1
"1624",1,0,397,1,4,3,"1c25873",15,1
"1724",1,1,383,4,4,3,"1c25873",16,1
"1824",1,0,311,1,3,3,"1c25873",17,1
"1924",1,0,734,6,1,3,"1c25873",18,1
"2024",1,1,384,1,1,3,"1c25873",19,1
"2128",1,0,367,1,5,3,"1c25873",20,1
"2226",1,1,577,2,2,3,"1c25873",21,1
"2324",1,0,177,2,1,3,"1c25873",22,1
"2424",0,0,396,5,5,3,"1c25873",23,1
"2524",1,1,274,3,3,3,"1c25873",24,1
"2624",1,0,396,1,3,3,"1c25873",25,1
"2724",1,0,355,4,1,3,"1c25873",26,1
"2824",0,0,579,6,6,3,"1c25873",27,1
"2924",1,0,282,1,6,3,"1c25873",28,1
"3024",1,0,274,1,2,3,"1c25873",29,1
"3128",0,0,332,4,4,3,"1c25873",30,1
"3226",1,1,470,1,1,3,"1c25873",31,1
"3324",1,0,288,5,1,3,"1c25873",32,1
"3424",1,1,311,2,2,3,"1c25873",33,1
"3524",1,1,536,2,2,3,"1c25873",34,1
"3624",1,1,226,1,1,3,"1c25873",35,1
"3724",0,1,354,4,1,3,"1c25873",36,1
"3824",1,1,404,6,6,3,"1c25873",37,1
"3924",1,0,530,2,1,3,"1c25873",38,1
"4024",1,1,1515,5,5,3,"1c25873",39,1
"4128",0,0,641,4,4,3,"1c25873",40,1
"4226",1,0,441,3,1,3,"1c25873",41,1
"4324",1,0,656,6,1,3,"1c25873",42,1
"4424",0,1,720,5,1,3,"1c25873",43,1
"4524",1,1,470,3,3,3,"1c25873",44,1
"4624",0,0,320,6,6,3,"1c25873",45,1
"4724",1,0,230,1,4,3,"1c25873",46,1
"4824",1,0,360,1,6,3,"1c25873",47,1
"4924",0,1,481,1,3,3,"1c25873",48,1
"5024",1,0,380,1,5,3,"1c25873",49,1
"5128",1,1,67,3,3,3,"1c25873",50,1
"5226",0,1,300,1,2,3,"1c25873",51,1
"5324",1,1,331,4,4,3,"1c25873",52,1
"5424",1,1,354,2,2,3,"1c25873",53,1
"5524",1,1,418,5,5,3,"1c25873",54,1
"5624",1,1,387,1,1,3,"1c25873",55,1
"5724",1,0,225,1,5,3,"1c25873",56,1
"5824",1,0,178,6,1,3,"1c25873",57,1
"5924",1,1,427,3,3,3,"1c25873",58,1
"6024",1,0,347,1,3,3,"1c25873",59,1
"6128",1,1,363,1,1,3,"1c25873",60,1
"6226",1,1,413,2,2,3,"1c25873",61,1
"6324",1,1,552,6,6,3,"1c25873",62,1
"6424",1,1,677,5,5,3,"1c25873",63,1
"6524",1,0,368,1,2,3,"1c25873",64,1
"6624",0,1,226,4,1,3,"1c25873",65,1
"6724",1,1,554,4,4,3,"1c25873",66,1
"6824",1,0,474,1,4,3,"1c25873",67,1
"6924",1,0,418,1,2,3,"1c25873",68,1
"7024",1,0,170,1,5,3,"1c25873",69,1
"7128",1,1,1548,5,5,3,"1c25873",70,1
"7225",1,1,773,2,2,3,"1c25873",71,1
"7324",0,1,430,1,3,3,"1c25873",72,1
"7424",0,0,363,6,6,3,"1c25873",73,1
"7524",1,0,350,1,6,3,"1c25873",74,1
"7624",1,1,626,4,4,3,"1c25873",75,1
"7724",1,1,635,1,1,3,"1c25873",76,1
"7824",1,1,387,3,3,3,"1c25873",77,1
"2109",0,0,280,5,5,2,"1d48048",1,1
"3109",1,0,325,5,1,2,"1d48048",2,1
"4109",1,1,231,4,4,2,"1d48048",3,1
"5109",1,1,224,2,2,2,"1d48048",4,1
"6109",0,0,322,3,3,2,"1d48048",5,1
"7100",0,1,441,1,6,2,"1d48048",6,1
"825",1,1,304,1,1,2,"1d48048",7,1
"925",0,1,488,2,1,2,"1d48048",8,1
"1025",0,1,300,1,3,2,"1d48048",9,1
"1125",0,1,316,4,1,2,"1d48048",10,1
"1225",1,1,261,6,6,2,"1d48048",11,1
"1325",1,1,578,4,4,2,"1d48048",12,1
"1425",0,1,390,6,1,2,"1d48048",13,1
"1525",1,1,265,3,3,2,"1d48048",14,1
"1625",0,1,519,1,2,2,"1d48048",15,1
"1725",1,1,214,2,2,2,"1d48048",16,1
"1825",0,1,256,4,1,2,"1d48048",17,1
"1925",0,1,375,3,1,2,"1d48048",18,1
"2025",1,1,249,6,6,2,"1d48048",19,1
"2129",0,1,243,5,1,2,"1d48048",20,1
"2227",1,1,243,5,5,2,"1d48048",21,1
"2325",1,1,252,1,1,2,"1d48048",22,1
"2425",1,1,259,4,4,2,"1d48048",23,1
"2525",0,1,271,3,1,2,"1d48048",24,1
"2625",0,1,230,6,1,2,"1d48048",25,1
"2725",0,1,1173,1,5,2,"1d48048",26,1
"2825",0,1,153,1,2,2,"1d48048",27,1
"2925",1,1,271,1,1,2,"1d48048",28,1
"3025",1,1,308,2,2,2,"1d48048",29,1
"3129",1,1,324,3,3,2,"1d48048",30,1
"3227",1,1,332,6,6,2,"1d48048",31,1
"3325",0,1,260,4,1,2,"1d48048",32,1
"3425",1,1,282,5,5,2,"1d48048",33,1
"3525",1,1,338,4,4,2,"1d48048",34,1
"3625",1,1,235,3,3,2,"1d48048",35,1
"3725",1,1,380,2,2,2,"1d48048",36,1
"3825",1,1,217,1,1,2,"1d48048",37,1
"3925",0,1,239,1,4,2,"1d48048",38,1
"4025",0,1,232,2,1,2,"1d48048",39,1
"4129",0,1,336,1,3,2,"1d48048",40,1
"4227",1,1,537,5,5,2,"1d48048",41,1
"4325",0,1,364,6,1,2,"1d48048",42,1
"4425",0,1,481,1,5,2,"1d48048",43,1
"4525",1,1,267,6,6,2,"1d48048",44,1
"4625",1,1,235,5,5,2,"1d48048",45,1
"4725",1,1,283,4,4,2,"1d48048",46,1
"4825",0,1,414,6,1,2,"1d48048",47,1
"4925",1,1,142,1,1,2,"1d48048",48,1
"5025",1,0,896,2,1,2,"1d48048",49,1
"5129",0,1,252,3,1,2,"1d48048",50,1
"5227",1,1,378,2,2,2,"1d48048",51,1
"5325",1,1,279,6,6,2,"1d48048",52,1
"5425",0,1,240,5,1,2,"1d48048",53,1
"5525",0,1,244,4,1,2,"1d48048",54,1
"5625",1,1,278,3,3,2,"1d48048",55,1
"5725",1,1,381,5,5,2,"1d48048",56,1
"5825",1,1,264,6,6,2,"1d48048",57,1
"5925",0,1,218,1,6,2,"1d48048",58,1
"6025",1,1,235,3,3,2,"1d48048",59,1
"6129",1,1,374,2,2,2,"1d48048",60,1
"6227",0,1,249,1,3,2,"1d48048",61,1
"6325",0,1,271,1,4,2,"1d48048",62,1
"6425",1,1,262,4,4,2,"1d48048",63,1
"6525",0,1,992,1,2,2,"1d48048",64,1
"6625",1,1,219,1,1,2,"1d48048",65,1
"6725",0,1,192,1,5,2,"1d48048",66,1
"6825",0,1,209,3,1,2,"1d48048",67,1
"6925",1,1,154,4,4,2,"1d48048",68,1
"7025",0,1,236,2,1,2,"1d48048",69,1
"7129",1,1,257,2,2,2,"1d48048",70,1
"7226",0,1,316,5,1,2,"1d48048",71,1
"7325",0,1,273,1,6,2,"1d48048",72,1
"7425",0,1,1101,1,4,2,"1d48048",73,1
"7525",1,1,313,1,1,2,"1d48048",74,1
"7625",1,1,213,6,6,2,"1d48048",75,1
"7725",1,1,299,3,3,2,"1d48048",76,1
"7825",1,1,587,5,5,2,"1d48048",77,1
"2130",1,0,1793,1,2,1,"16ad698",1,1
"3130",1,1,726,1,1,1,"16ad698",2,1
"4130",0,1,608,6,1,1,"16ad698",3,1
"5130",1,1,625,2,2,1,"16ad698",4,1
"6130",1,1,744,4,4,1,"16ad698",5,1
"7101",0,1,416,1,4,1,"16ad698",6,1
"826",0,1,447,1,3,1,"16ad698",7,1
"926",1,1,472,6,6,1,"16ad698",8,1
"1026",0,1,458,5,1,1,"16ad698",9,1
"1126",1,1,501,5,5,1,"16ad698",10,1
"1226",1,1,537,3,3,1,"16ad698",11,1
"1326",1,1,435,4,4,1,"16ad698",12,1
"1426",1,1,558,2,2,1,"16ad698",13,1
"1526",-1,-1,0,4,1,1,"16ad698",14,1
"1626",0,1,448,5,1,1,"16ad698",15,1
"1726",0,1,431,6,1,1,"16ad698",16,1
"1826",1,0,1668,1,2,1,"16ad698",17,1
"1926",1,1,560,6,6,1,"16ad698",18,1
"2026",0,1,472,1,3,1,"16ad698",19,1
"2131",1,1,431,1,1,1,"16ad698",20,1
"2228",1,1,531,3,3,1,"16ad698",21,1
"2326",1,1,669,5,5,1,"16ad698",22,1
"2426",0,1,650,5,1,1,"16ad698",23,1
"2526",0,1,507,1,3,1,"16ad698",24,1
"2626",1,1,558,4,4,1,"16ad698",25,1
"2726",1,1,661,1,1,1,"16ad698",26,1
"2826",0,1,468,1,4,1,"16ad698",27,1
"2926",-1,-1,0,1,2,1,"16ad698",28,1
"3026",1,1,771,3,3,1,"16ad698",29,1
"3131",1,1,538,2,2,1,"16ad698",30,1
"3228",1,1,636,5,5,1,"16ad698",31,1
"3326",0,1,1362,1,6,1,"16ad698",32,1
"3426",1,1,995,6,6,1,"16ad698",33,1
"3526",1,1,622,5,5,1,"16ad698",34,1
"3626",1,1,837,3,3,1,"16ad698",35,1
"3726",0,1,461,2,1,1,"16ad698",36,1
"3826",1,1,1013,1,1,1,"16ad698",37,1
"3926",0,1,487,5,1,1,"16ad698",38,1
"4026",0,1,416,1,6,1,"16ad698",39,1
"4131",1,1,923,6,6,1,"16ad698",40,1
"4228",-1,-1,0,1,4,1,"16ad698",41,1
"4326",1,1,392,2,2,1,"16ad698",42,1
"4426",-1,-1,0,1,3,1,"16ad698",43,1
"4526",1,1,468,4,4,1,"16ad698",44,1
"4626",0,1,190,1,5,1,"16ad698",45,1
"4726",0,1,353,4,1,1,"16ad698",46,1
"4826",1,1,624,3,3,1,"16ad698",47,1
"4926",0,1,393,1,2,1,"16ad698",48,1
"5026",1,1,56,2,2,1,"16ad698",49,1
"5131",1,1,246,1,1,1,"16ad698",50,1
"5228",-1,-1,0,3,1,1,"16ad698",51,1
"5326",1,1,98,5,5,1,"16ad698",52,1
"5426",0,1,411,6,1,1,"16ad698",53,1
"5526",1,1,432,6,6,1,"16ad698",54,1
"5626",-1,-1,0,4,4,1,"16ad698",55,1
"5726",0,1,834,1,6,1,"16ad698",56,1
"5826",1,1,353,6,6,1,"16ad698",57,1
"5926",0,1,622,1,3,1,"16ad698",58,1
"6026",1,1,231,2,2,1,"16ad698",59,1
"6131",1,1,433,4,4,1,"16ad698",60,1
"6228",0,1,693,1,2,1,"16ad698",61,1
"6326",1,1,415,5,5,1,"16ad698",62,1
"6426",0,1,1651,4,1,1,"16ad698",63,1
"6526",1,1,416,1,1,1,"16ad698",64,1
"6626",0,1,455,1,5,1,"16ad698",65,1
"6726",0,0,730,3,3,1,"16ad698",66,1
"6826",1,1,475,6,6,1,"16ad698",67,1
"6926",0,1,358,1,2,1,"16ad698",68,1
"7026",1,1,362,1,1,1,"16ad698",69,1
"7130",0,1,110,1,4,1,"16ad698",70,1
"7227",0,1,397,1,6,1,"16ad698",71,1
"7326",1,1,116,5,5,1,"16ad698",72,1
"7426",1,1,889,3,3,1,"16ad698",73,1
"7526",0,1,670,5,1,1,"16ad698",74,1
"7626",1,1,205,4,4,1,"16ad698",75,1
"7726",1,1,171,2,2,1,"16ad698",76,1
"7826",0,1,479,1,3,1,"16ad698",77,1
"2132",1,1,636,6,6,2,"1ac4fc1",1,1
"3132",1,0,417,6,1,2,"1ac4fc1",2,1
"4132",0,0,312,5,5,2,"1ac4fc1",3,1
"5132",1,1,407,3,3,2,"1ac4fc1",4,1
"6132",1,0,380,1,5,2,"1ac4fc1",5,1
"7102",0,1,817,2,1,2,"1ac4fc1",6,1
"827",1,0,314,3,1,2,"1ac4fc1",7,1
"927",1,1,473,2,2,2,"1ac4fc1",8,1
"1027",0,0,484,4,4,2,"1ac4fc1",9,1
"1127",1,1,411,1,1,2,"1ac4fc1",10,1
"1227",1,0,417,4,1,2,"1ac4fc1",11,1
"1327",1,1,316,4,4,2,"1ac4fc1",12,1
"1427",0,1,243,6,1,2,"1ac4fc1",13,1
"1527",1,1,478,2,2,2,"1ac4fc1",14,1
"1627",1,0,69,1,4,2,"1ac4fc1",15,1
"1727",1,1,300,1,1,2,"1ac4fc1",16,1
"1827",1,1,1049,5,5,2,"1ac4fc1",17,1
"1927",0,1,436,5,1,2,"1ac4fc1",18,1
"2027",0,1,633,1,3,2,"1ac4fc1",19,1
"2133",1,1,602,3,3,2,"1ac4fc1",20,1
"2229",1,1,328,6,6,2,"1ac4fc1",21,1
"2327",0,1,527,1,2,2,"1ac4fc1",22,1
"2427",1,1,292,1,1,2,"1ac4fc1",23,1
"2527",1,1,308,6,6,2,"1ac4fc1",24,1
"2627",0,1,305,4,1,2,"1ac4fc1",25,1
"2727",1,1,1197,3,3,2,"1ac4fc1",26,1
"2827",0,1,367,1,5,2,"1ac4fc1",27,1
"2927",1,1,1061,2,2,2,"1ac4fc1",28,1
"3027",1,1,425,4,4,2,"1ac4fc1",29,1
"3133",0,1,365,1,3,2,"1ac4fc1",30,1
"3229",1,1,467,5,5,2,"1ac4fc1",31,1
"3327",1,0,429,1,2,2,"1ac4fc1",32,1
"3427",0,1,341,1,6,2,"1ac4fc1",33,1
"3527",1,1,494,1,1,2,"1ac4fc1",34,1
"3627",0,1,323,6,1,2,"1ac4fc1",35,1
"3727",0,1,300,1,5,2,"1ac4fc1",36,1
"3827",0,1,337,3,1,2,"1ac4fc1",37,1
"3927",1,1,354,2,2,2,"1ac4fc1",38,1
"4027",1,1,274,6,6,2,"1ac4fc1",39,1
"4133",1,1,333,5,5,2,"1ac4fc1",40,1
"4229",1,1,467,4,4,2,"1ac4fc1",41,1
"4327",1,1,579,3,3,2,"1ac4fc1",42,1
"4427",0,1,364,4,1,2,"1ac4fc1",43,1
"4527",0,1,339,2,1,2,"1ac4fc1",44,1
"4627",1,1,390,3,3,2,"1ac4fc1",45,1
"4727",1,1,1452,2,2,2,"1ac4fc1",46,1
"4827",1,1,348,4,4,2,"1ac4fc1",47,1
"4927",0,1,341,4,1,2,"1ac4fc1",48,1
"5027",1,1,542,1,1,2,"1ac4fc1",49,1
"5133",0,1,410,2,1,2,"1ac4fc1",50,1
"5229",1,1,376,6,6,2,"1ac4fc1",51,1
"5327",0,1,297,5,1,2,"1ac4fc1",52,1
"5427",1,1,460,5,5,2,"1ac4fc1",53,1
"5527",0,1,449,3,1,2,"1ac4fc1",54,1
"5627",0,1,321,6,1,2,"1ac4fc1",55,1
"5727",0,1,628,1,4,2,"1ac4fc1",56,1
"5827",1,1,485,5,5,2,"1ac4fc1",57,1
"5927",1,1,983,1,1,2,"1ac4fc1",58,1
"6027",0,1,469,3,1,2,"1ac4fc1",59,1
"6133",0,1,656,6,1,2,"1ac4fc1",60,1
"6229",0,1,359,5,1,2,"1ac4fc1",61,1
"6327",1,1,275,3,3,2,"1ac4fc1",62,1
"6427",0,1,485,2,1,2,"1ac4fc1",63,1
"6527",1,1,400,2,2,2,"1ac4fc1",64,1
"6627",1,1,417,6,6,2,"1ac4fc1",65,1
"6727",1,1,968,4,4,2,"1ac4fc1",66,1
"6827",1,1,358,3,3,2,"1ac4fc1",67,1
"6927",1,1,387,5,5,2,"1ac4fc1",68,1
"7027",0,1,1122,1,2,2,"1ac4fc1",69,1
"7131",0,1,354,1,5,2,"1ac4fc1",70,1
"7228",0,1,526,1,4,2,"1ac4fc1",71,1
"7327",1,1,381,4,4,2,"1ac4fc1",72,1
"7427",1,1,334,2,2,2,"1ac4fc1",73,1
"7527",0,1,586,1,3,2,"1ac4fc1",74,1
"7627",1,1,414,1,1,2,"1ac4fc1",75,1
"7727",0,1,402,1,6,2,"1ac4fc1",76,1
"7827",1,1,63,6,6,2,"1ac4fc1",77,1
"2134",1,1,656,2,2,1,"12fa6a3",1,1
"3134",0,1,258,1,6,1,"12fa6a3",2,1
"4134",1,1,1131,3,3,1,"12fa6a3",3,1
"5134",1,1,587,5,5,1,"12fa6a3",4,1
"6134",1,0,293,4,1,1,"12fa6a3",5,1
"7103",0,1,214,1,3,1,"12fa6a3",6,1
"828",1,1,577,6,6,1,"12fa6a3",7,1
"928",1,1,450,4,4,1,"12fa6a3",8,1
"1028",1,1,244,1,1,1,"12fa6a3",9,1
"1128",0,1,277,5,1,1,"12fa6a3",10,1
"1228",1,0,335,2,1,1,"12fa6a3",11,1
"1328",0,0,250,5,5,1,"12fa6a3",12,1
"1428",1,1,228,6,6,1,"12fa6a3",13,1
"1528",1,1,172,2,2,1,"12fa6a3",14,1
"1628",1,1,302,3,3,1,"12fa6a3",15,1
"1728",0,1,112,1,4,1,"12fa6a3",16,1
"1828",0,1,561,3,1,1,"12fa6a3",17,1
"1928",1,1,267,4,4,1,"12fa6a3",18,1
"2028",1,1,502,1,1,1,"12fa6a3",19,1
"2135",0,1,254,1,2,1,"12fa6a3",20,1
"2230",0,1,272,1,6,1,"12fa6a3",21,1
"2328",0,1,417,1,5,1,"12fa6a3",22,1
"2428",1,1,371,6,6,1,"12fa6a3",23,1
"2528",1,0,477,3,1,1,"12fa6a3",24,1
"2628",1,1,294,3,3,1,"12fa6a3",25,1
"2728",-1,-1,0,1,1,1,"12fa6a3",26,1
"2828",0,1,297,5,1,1,"12fa6a3",27,1
"2928",0,1,1739,1,4,1,"12fa6a3",28,1
"3028",1,1,387,4,4,1,"12fa6a3",29,1
"3135",1,0,557,1,2,1,"12fa6a3",30,1
"3230",1,1,1199,5,5,1,"12fa6a3",31,1
"3328",0,1,1736,6,1,1,"12fa6a3",32,1
"3428",1,1,674,2,2,1,"12fa6a3",33,1
"3528",0,1,555,5,1,1,"12fa6a3",34,1
"3628",1,1,302,6,6,1,"12fa6a3",35,1
"3728",0,0,335,4,4,1,"12fa6a3",36,1
"3828",1,1,282,2,2,1,"12fa6a3",37,1
"3928",1,0,266,1,2,1,"12fa6a3",38,1
"4028",1,1,188,1,1,1,"12fa6a3",39,1
"4135",1,1,261,3,3,1,"12fa6a3",40,1
"4230",0,1,248,1,4,1,"12fa6a3",41,1
"4328",0,1,320,1,6,1,"12fa6a3",42,1
"4428",1,1,267,5,5,1,"12fa6a3",43,1
"4528",0,1,133,3,1,1,"12fa6a3",44,1
"4628",1,1,255,3,3,1,"12fa6a3",45,1
"4728",0,1,360,5,1,1,"12fa6a3",46,1
"4828",1,1,282,4,4,1,"12fa6a3",47,1
"4928",0,1,251,3,1,1,"12fa6a3",48,1
"5028",0,1,301,1,6,1,"12fa6a3",49,1
"5135",1,1,351,1,1,1,"12fa6a3",50,1
"5230",0,1,273,1,4,1,"12fa6a3",51,1
"5328",1,1,394,5,5,1,"12fa6a3",52,1
"5428",0,1,412,1,2,1,"12fa6a3",53,1
"5528",1,1,446,6,6,1,"12fa6a3",54,1
"5628",1,1,312,2,2,1,"12fa6a3",55,1
"5728",1,1,353,2,2,1,"12fa6a3",56,1
"5828",1,1,235,1,1,1,"12fa6a3",57,1
"5928",0,1,523,1,5,1,"12fa6a3",58,1
"6028",0,0,340,6,6,1,"12fa6a3",59,1
"6135",0,1,350,3,1,1,"12fa6a3",60,1
"6230",0,0,774,4,4,1,"12fa6a3",61,1
"6328",1,1,258,5,5,1,"12fa6a3",62,1
"6428",1,1,251,3,3,1,"12fa6a3",63,1
"6528",0,1,349,1,6,1,"12fa6a3",64,1
"6628",0,1,318,4,1,1,"12fa6a3",65,1
"6728",0,1,279,2,1,1,"12fa6a3",66,1
"6828",0,1,338,1,3,1,"12fa6a3",67,1
"6928",1,1,450,4,4,1,"12fa6a3",68,1
"7028",0,1,508,1,4,1,"12fa6a3",69,1
"7132",0,0,343,1,1,1,"12fa6a3",70,1
"7229",1,1,288,2,2,1,"12fa6a3",71,1
"7328",1,1,313,5,5,1,"12fa6a3",72,1
"7428",0,0,258,3,3,1,"12fa6a3",73,1
"7528",1,1,284,6,6,1,"12fa6a3",74,1
"7628",0,1,213,1,6,1,"12fa6a3",75,1
"7728",1,0,326,2,1,1,"12fa6a3",76,1
"7828",0,1,232,5,1,1,"12fa6a3",77,1
"2136",1,0,472,1,5,1,"17437be",1,1
"3136",0,1,337,2,1,1,"17437be",2,1
"4136",0,1,546,1,4,1,"17437be",3,1
"5136",0,0,428,4,4,1,"17437be",4,1
"6136",1,1,237,6,6,1,"17437be",5,1
"7104",0,1,718,6,1,1,"17437be",6,1
"829",1,1,276,5,5,1,"17437be",7,1
"929",1,1,535,2,2,1,"17437be",8,1
"1029",1,0,234,1,3,1,"17437be",9,1
"1129",1,1,230,1,1,1,"17437be",10,1
"1229",0,0,353,3,3,1,"17437be",11,1
"1329",1,1,260,4,4,1,"17437be",12,1
"1429",1,1,718,6,6,1,"17437be",13,1
"1529",0,1,274,6,1,1,"17437be",14,1
"1629",0,1,307,5,1,1,"17437be",15,1
"1729",0,1,291,4,1,1,"17437be",16,1
"1829",1,0,132,3,1,1,"17437be",17,1
"1929",1,1,237,5,5,1,"17437be",18,1
"2029",1,1,248,3,3,1,"17437be",19,1
"2137",1,0,248,2,1,1,"17437be",20,1
"2231",1,1,578,1,1,1,"17437be",21,1
"2329",0,0,369,2,2,1,"17437be",22,1
"2429",1,0,922,1,2,1,"17437be",23,1
"2529",0,0,708,3,3,1,"17437be",24,1
"2629",1,1,312,2,2,1,"17437be",25,1
"2729",0,0,298,4,4,1,"17437be",26,1
"2829",1,1,195,5,5,1,"17437be",27,1
"2929",0,1,341,3,1,1,"17437be",28,1
"3029",0,1,262,1,5,1,"17437be",29,1
"3137",1,1,256,1,1,1,"17437be",30,1
"3231",1,1,346,6,6,1,"17437be",31,1
"3329",0,1,269,1,4,1,"17437be",32,1
"3429",0,1,118,1,6,1,"17437be",33,1
"3529",0,1,183,1,3,1,"17437be",34,1
"3629",0,1,225,6,1,1,"17437be",35,1
"3729",1,1,254,3,3,1,"17437be",36,1
"3829",0,1,151,1,4,1,"17437be",37,1
"3929",1,1,184,2,2,1,"17437be",38,1
"4029",1,0,178,1,2,1,"17437be",39,1
"4137",0,1,323,5,1,1,"17437be",40,1
"4231",1,1,235,5,5,1,"17437be",41,1
"4329",0,0,425,6,6,1,"17437be",42,1
"4429",1,1,266,4,4,1,"17437be",43,1
"4529",1,1,234,1,1,1,"17437be",44,1
"4629",1,1,1490,6,6,1,"17437be",45,1
"4729",0,0,402,1,1,1,"17437be",46,1
"4829",0,1,243,4,1,1,"17437be",47,1
"4929",0,1,342,5,1,1,"17437be",48,1
"5029",0,1,217,3,1,1,"17437be",49,1
"5137",1,1,172,4,4,1,"17437be",50,1
"5231",1,1,344,5,5,1,"17437be",51,1
"5329",1,1,1944,2,2,1,"17437be",52,1
"5429",1,1,728,3,3,1,"17437be",53,1
"5529",0,1,443,6,1,1,"17437be",54,1
"5629",1,0,324,1,2,1,"17437be",55,1
"5729",0,1,212,1,3,1,"17437be",56,1
"5829",0,1,299,5,1,1,"17437be",57,1
"5929",1,0,940,1,4,1,"17437be",58,1
"6029",1,1,7,3,3,1,"17437be",59,1
"6137",1,1,521,1,1,1,"17437be",60,1
"6231",0,1,985,1,6,1,"17437be",61,1
"6329",1,1,612,6,6,1,"17437be",62,1
"6429",1,1,372,5,5,1,"17437be",63,1
"6529",1,1,343,4,4,1,"17437be",64,1
"6629",0,0,1209,2,2,1,"17437be",65,1
"6729",-1,-1,0,2,1,1,"17437be",66,1
"6829",1,1,437,5,5,1,"17437be",67,1
"6929",1,1,481,4,4,1,"17437be",68,1
"7029",0,1,549,5,1,1,"17437be",69,1
"7133",1,1,341,1,1,1,"17437be",70,1
"7230",0,0,240,6,6,1,"17437be",71,1
"7329",0,1,994,1,6,1,"17437be",72,1
"7429",0,1,227,1,3,1,"17437be",73,1
"7529",1,0,279,1,4,1,"17437be",74,1
"7629",1,1,353,2,2,1,"17437be",75,1
"7729",0,1,267,2,1,1,"17437be",76,1
"7829",1,1,348,3,3,1,"17437be",77,1
"2138",0,1,449,3,1,2,"17c8852",1,1
"3138",1,1,259,4,4,2,"17c8852",2,1
"4138",1,1,188,6,6,2,"17c8852",3,1
"5138",1,1,117,1,1,2,"17c8852",4,1
"6138",0,1,287,1,2,2,"17c8852",5,1
"7105",0,1,112,4,1,2,"17c8852",6,1
"830",1,1,142,5,5,2,"17c8852",7,1
"930",0,1,170,1,6,2,"17c8852",8,1
"1030",0,0,175,2,2,2,"17c8852",9,1
"1130",0,1,152,5,1,2,"17c8852",10,1
"1230",1,1,170,3,3,2,"17c8852",11,1
"1330",1,1,173,2,2,2,"17c8852",12,1
"1430",0,1,220,1,6,2,"17c8852",13,1
"1530",1,1,231,1,1,2,"17c8852",14,1
"1630",0,1,140,5,1,2,"17c8852",15,1
"1730",1,1,130,4,4,2,"17c8852",16,1
"1830",0,1,52,1,4,2,"17c8852",17,1
"1930",0,1,181,2,1,2,"17c8852",18,1
"2030",0,0,184,6,6,2,"17c8852",19,1
"2139",1,1,125,3,3,2,"17c8852",20,1
"2232",0,1,156,1,3,2,"17c8852",21,1
"2330",1,1,201,5,5,2,"17c8852",22,1
"2430",1,1,184,6,6,2,"17c8852",23,1
"2530",1,1,234,5,5,2,"17c8852",24,1
"2630",1,1,239,2,2,2,"17c8852",25,1
"2730",0,1,167,5,1,2,"17c8852",26,1
"2830",0,1,62,1,2,2,"17c8852",27,1
"2930",1,1,286,1,1,2,"17c8852",28,1
"3030",1,1,120,3,3,2,"17c8852",29,1
"3139",1,1,62,4,4,2,"17c8852",30,1
"3232",0,1,113,1,6,2,"17c8852",31,1
"3330",0,1,119,3,1,2,"17c8852",32,1
"3430",0,1,118,4,1,2,"17c8852",33,1
"3530",1,1,57,3,3,2,"17c8852",34,1
"3630",0,1,182,1,5,2,"17c8852",35,1
"3730",1,1,233,6,6,2,"17c8852",36,1
"3830",1,1,120,4,4,2,"17c8852",37,1
"3930",0,1,66,1,2,2,"17c8852",38,1
"4030",1,1,77,1,1,2,"17c8852",39,1
"4139",0,1,81,1,4,2,"17c8852",40,1
"4232",0,1,95,6,1,2,"17c8852",41,1
"4330",1,1,141,5,5,2,"17c8852",42,1
"4430",1,1,221,2,2,2,"17c8852",43,1
"4530",0,1,98,3,1,2,"17c8852",44,1
"4630",0,1,96,1,4,2,"17c8852",45,1
"4730",1,1,260,3,3,2,"17c8852",46,1
"4830",0,1,153,1,6,2,"17c8852",47,1
"4930",1,1,140,6,6,2,"17c8852",48,1
"5030",1,1,200,2,2,2,"17c8852",49,1
"5139",1,1,43,1,1,2,"17c8852",50,1
"5232",1,1,98,5,5,2,"17c8852",51,1
"5330",1,0,445,1,2,2,"17c8852",52,1
"5430",0,1,124,5,1,2,"17c8852",53,1
"5530",1,1,131,4,4,2,"17c8852",54,1
"5630",0,1,178,1,3,2,"17c8852",55,1
"5730",0,1,162,1,5,2,"17c8852",56,1
"5830",1,1,78,2,2,2,"17c8852",57,1
"5930",1,1,67,5,5,2,"17c8852",58,1
"6030",1,1,39,3,3,2,"17c8852",59,1
"6139",0,1,194,2,1,2,"17c8852",60,1
"6232",1,1,122,1,1,2,"17c8852",61,1
"6330",0,1,284,1,4,2,"17c8852",62,1
"6430",0,1,256,3,1,2,"17c8852",63,1
"6530",1,1,272,6,6,2,"17c8852",64,1
"6630",1,1,135,4,4,2,"17c8852",65,1
"6730",0,1,170,1,6,2,"17c8852",66,1
"6830",0,1,105,1,3,2,"17c8852",67,1
"6930",1,1,174,1,1,2,"17c8852",68,1
"7030",1,1,93,3,3,2,"17c8852",69,1
"7134",1,1,58,5,5,2,"17c8852",70,1
"7231",1,1,115,6,6,2,"17c8852",71,1
"7330",1,1,101,4,4,2,"17c8852",72,1
"7430",0,1,308,5,1,2,"17c8852",73,1
"7530",1,1,249,2,2,2,"17c8852",74,1
"7630",0,1,119,2,1,2,"17c8852",75,1
"7730",0,1,150,1,6,2,"17c8852",76,1
"7830",0,1,116,1,4,2,"17c8852",77,1
"2140",1,0,422,2,1,1,"11ac832",1,1
"3140",0,1,526,4,1,1,"11ac832",2,1
"4140",1,1,464,1,1,1,"11ac832",3,1
"5140",0,1,415,6,1,1,"11ac832",4,1
"6140",1,1,341,2,2,1,"11ac832",5,1
"7106",1,1,474,5,5,1,"11ac832",6,1
"831",0,1,373,5,1,1,"11ac832",7,1
"931",-1,-1,0,3,3,1,"11ac832",8,1
"1031",1,1,555,4,4,1,"11ac832",9,1
"1131",-1,-1,0,6,6,1,"11ac832",10,1
"1231",0,1,422,1,3,1,"11ac832",11,1
"1331",1,1,343,3,3,1,"11ac832",12,1
"1431",0,1,360,1,3,1,"11ac832",13,1
"1531",1,1,332,6,6,1,"11ac832",14,1
"1631",0,1,288,4,1,1,"11ac832",15,1
"1731",0,1,334,6,1,1,"11ac832",16,1
"1831",1,1,586,2,2,1,"11ac832",17,1
"1931",1,1,352,1,1,1,"11ac832",18,1
"2031",0,1,364,2,1,1,"11ac832",19,1
"2141",1,1,347,5,5,1,"11ac832",20,1
"2233",1,1,462,4,4,1,"11ac832",21,1
"2331",0,1,448,5,1,1,"11ac832",22,1
"2431",0,1,431,1,3,1,"11ac832",23,1
"2531",1,1,377,4,4,1,"11ac832",24,1
"2631",1,1,481,5,5,1,"11ac832",25,1
"2731",0,1,269,2,1,1,"11ac832",26,1
"2831",1,1,347,2,2,1,"11ac832",27,1
"2931",1,1,413,6,6,1,"11ac832",28,1
"3031",1,1,260,3,3,1,"11ac832",29,1
"3141",0,1,249,6,1,1,"11ac832",30,1
"3233",0,1,273,4,1,1,"11ac832",31,1
"3331",1,1,348,1,1,1,"11ac832",32,1
"3431",0,1,434,5,1,1,"11ac832",33,1
"3531",1,1,322,2,2,1,"11ac832",34,1
"3631",0,1,288,4,1,1,"11ac832",35,1
"3731",1,1,384,6,6,1,"11ac832",36,1
"3831",0,1,342,1,6,1,"11ac832",37,1
"3931",0,1,381,1,3,1,"11ac832",38,1
"4031",1,1,448,1,1,1,"11ac832",39,1
"4141",1,1,530,5,5,1,"11ac832",40,1
"4233",1,1,502,3,3,1,"11ac832",41,1
"4331",0,1,520,2,1,1,"11ac832",42,1
"4431",1,1,341,4,4,1,"11ac832",43,1
"4531",0,1,312,5,1,1,"11ac832",44,1
"4631",0,1,399,6,1,1,"11ac832",45,1
"4731",1,1,342,1,1,1,"11ac832",46,1
"4831",1,1,351,4,4,1,"11ac832",47,1
"4931",0,1,272,4,1,1,"11ac832",48,1
"5031",1,1,454,6,6,1,"11ac832",49,1
"5141",0,1,291,1,3,1,"11ac832",50,1
"5233",0,1,336,5,1,1,"11ac832",51,1
"5331",0,1,318,1,2,1,"11ac832",52,1
"5431",1,1,342,2,2,1,"11ac832",53,1
"5531",1,1,423,3,3,1,"11ac832",54,1
"5631",1,1,302,5,5,1,"11ac832",55,1
"5731",0,1,356,3,1,1,"11ac832",56,1
"5831",1,1,645,6,6,1,"11ac832",57,1
"5931",0,1,387,2,1,1,"11ac832",58,1
"6031",0,1,401,1,4,1,"11ac832",59,1
"6141",1,1,365,2,2,1,"11ac832",60,1
"6233",1,1,435,3,3,1,"11ac832",61,1
"6331",0,1,383,6,1,1,"11ac832",62,1
"6431",1,1,421,5,5,1,"11ac832",63,1
"6531",1,1,342,1,1,1,"11ac832",64,1
"6631",0,1,370,5,1,1,"11ac832",65,1
"6731",1,1,392,4,4,1,"11ac832",66,1
"6831",1,1,353,3,3,1,"11ac832",67,1
"6931",1,1,309,2,2,1,"11ac832",68,1
"7031",1,1,361,4,4,1,"11ac832",69,1
"7135",1,1,361,6,6,1,"11ac832",70,1
"7232",0,1,326,1,6,1,"11ac832",71,1
"7331",0,1,360,1,3,1,"11ac832",72,1
"7431",0,1,322,1,5,1,"11ac832",73,1
"7531",1,1,287,5,5,1,"11ac832",74,1
"7631",1,1,325,1,1,1,"11ac832",75,1
"7731",0,1,370,2,1,1,"11ac832",76,1
"7831",0,1,422,1,4,1,"11ac832",77,1
"2142",1,0,836,1,5,2,"1d910d5",1,1
"3142",1,1,356,1,1,2,"1d910d5",2,1
"4142",1,0,329,1,3,2,"1d910d5",3,1
"5142",0,0,375,5,5,2,"1d910d5",4,1
"6142",0,0,384,4,4,2,"1d910d5",5,1
"7107",1,0,307,1,6,2,"1d910d5",6,1
"832",1,1,423,3,3,2,"1d910d5",7,1
"932",1,0,504,1,2,2,"1d910d5",8,1
"1032",1,0,407,1,4,2,"1d910d5",9,1
"1132",1,1,502,2,2,2,"1d910d5",10,1
"1232",1,1,343,6,6,2,"1d910d5",11,1
"1332",1,0,486,4,1,2,"1d910d5",12,1
"1432",0,1,369,6,1,2,"1d910d5",13,1
"1532",1,0,355,2,1,2,"1d910d5",14,1
"1632",1,1,381,6,6,2,"1d910d5",15,1
"1732",1,1,418,2,2,2,"1d910d5",16,1
"1832",0,0,489,4,4,2,"1d910d5",17,1
"1932",0,1,371,1,3,2,"1d910d5",18,1
"2032",1,1,449,3,3,2,"1d910d5",19,1
"2143",1,1,366,5,5,2,"1d910d5",20,1
"2234",1,1,368,1,1,2,"1d910d5",21,1
"2332",0,1,324,1,5,2,"1d910d5",22,1
"2432",0,1,345,6,1,2,"1d910d5",23,1
"2532",1,1,436,1,1,2,"1d910d5",24,1
"2632",1,1,335,2,2,2,"1d910d5",25,1
"2732",1,0,1296,1,5,2,"1d910d5",26,1
"2832",1,1,494,3,3,2,"1d910d5",27,1
"2932",1,1,390,4,4,2,"1d910d5",28,1
"3032",1,1,428,6,6,2,"1d910d5",29,1
"3143",1,0,513,1,2,2,"1d910d5",30,1
"3234",1,1,325,5,5,2,"1d910d5",31,1
"3332",0,1,600,4,1,2,"1d910d5",32,1
"3432",0,1,492,3,1,2,"1d910d5",33,1
"3532",1,1,543,4,4,2,"1d910d5",34,1
"3632",1,1,509,3,3,2,"1d910d5",35,1
"3732",1,1,470,5,5,2,"1d910d5",36,1
"3832",1,1,525,6,6,2,"1d910d5",37,1
"3932",1,1,342,2,2,2,"1d910d5",38,1
"4032",1,0,437,1,2,2,"1d910d5",39,1
"4143",1,1,388,1,1,2,"1d910d5",40,1
"4234",0,1,503,1,6,2,"1d910d5",41,1
"4332",0,1,459,1,4,2,"1d910d5",42,1
"4432",0,1,142,1,5,2,"1d910d5",43,1
"4532",0,1,4,1,3,2,"1d910d5",44,1
"4632",0,0,341,1,1,2,"1d910d5",45,1
"4732",0,1,536,1,3,2,"1d910d5",46,1
"4832",1,1,651,2,2,2,"1d910d5",47,1
"4932",0,1,330,1,5,2,"1d910d5",48,1
"5032",1,1,324,3,3,2,"1d910d5",49,1
"5143",1,0,401,2,1,2,"1d910d5",50,1
"5234",1,1,450,6,6,2,"1d910d5",51,1
"5332",1,1,518,4,4,2,"1d910d5",52,1
"5432",0,1,436,1,6,2,"1d910d5",53,1
"5532",0,1,277,4,1,2,"1d910d5",54,1
"5632",1,1,892,5,5,2,"1d910d5",55,1
"5732",1,1,322,2,2,2,"1d910d5",56,1
"5832",1,1,453,3,3,2,"1d910d5",57,1
"5932",1,1,353,4,4,2,"1d910d5",58,1
"6032",0,1,480,5,1,2,"1d910d5",59,1
"6143",1,1,376,1,1,2,"1d910d5",60,1
"6234",0,1,330,3,1,2,"1d910d5",61,1
"6332",1,1,40,6,6,2,"1d910d5",62,1
"6432",1,0,1240,1,2,2,"1d910d5",63,1
"6532",0,1,525,1,6,2,"1d910d5",64,1
"6632",1,1,339,5,5,2,"1d910d5",65,1
"6732",0,1,728,1,4,2,"1d910d5",66,1
"6832",1,1,444,6,6,2,"1d910d5",67,1
"6932",1,1,375,5,5,2,"1d910d5",68,1
"7032",1,1,315,2,2,2,"1d910d5",69,1
"7136",0,1,394,2,1,2,"1d910d5",70,1
"7233",0,1,332,1,3,2,"1d910d5",71,1
"7332",1,1,387,3,3,2,"1d910d5",72,1
"7432",1,1,339,1,1,2,"1d910d5",73,1
"7532",1,1,310,4,4,2,"1d910d5",74,1
"7632",0,1,1152,1,4,2,"1d910d5",75,1
"7732",0,1,501,5,1,2,"1d910d5",76,1
"7832",0,1,903,6,1,2,"1d910d5",77,1
"2144",1,1,890,1,1,2,"15686f6",1,1
"3144",0,1,204,1,4,2,"15686f6",2,1
"4144",1,0,418,2,1,2,"15686f6",3,1
"5144",1,1,194,6,6,2,"15686f6",4,1
"6144",1,1,109,4,4,2,"15686f6",5,1
"7108",1,1,212,3,3,2,"15686f6",6,1
"833",1,0,42,6,1,2,"15686f6",7,1
"933",1,1,225,5,5,2,"15686f6",8,1
"1033",0,0,326,2,2,2,"15686f6",9,1
"1133",1,0,233,1,5,2,"15686f6",10,1
"1233",0,1,212,3,1,2,"15686f6",11,1
"1333",0,1,225,1,3,2,"15686f6",12,1
"1433",1,1,7,4,4,2,"15686f6",13,1
"1533",1,1,90,1,1,2,"15686f6",14,1
"1633",0,1,303,2,1,2,"15686f6",15,1
"1733",1,1,226,6,6,2,"15686f6",16,1
"1833",0,1,147,4,1,2,"15686f6",17,1
"1933",0,1,445,5,1,2,"15686f6",18,1
"2033",1,1,110,2,2,2,"15686f6",19,1
"2145",1,1,166,5,5,2,"15686f6",20,1
"2235",1,1,84,3,3,2,"15686f6",21,1
"2333",0,1,104,6,1,2,"15686f6",22,1
"2433",0,1,82,1,6,2,"15686f6",23,1
"2533",1,1,212,1,1,2,"15686f6",24,1
"2633",1,1,109,3,3,2,"15686f6",25,1
"2733",0,1,151,1,5,2,"15686f6",26,1
"2833",1,1,422,2,2,2,"15686f6",27,1
"2933",1,1,270,4,4,2,"15686f6",28,1
"3033",1,1,1442,6,6,2,"15686f6",29,1
"3145",0,1,30,4,1,2,"15686f6",30,1
"3235",0,1,167,1,3,2,"15686f6",31,1
"3333",1,1,1045,5,5,2,"15686f6",32,1
"3433",1,0,474,1,2,2,"15686f6",33,1
"3533",1,1,412,1,1,2,"15686f6",34,1
"3633",0,1,255,1,3,2,"15686f6",35,1
"3733",1,1,894,4,4,2,"15686f6",36,1
"3833",0,1,362,1,5,2,"15686f6",37,1
"3933",0,1,268,1,4,2,"15686f6",38,1
"4033",1,0,79,2,1,2,"15686f6",39,1
"4145",1,1,231,5,5,2,"15686f6",40,1
"4235",1,1,228,6,6,2,"15686f6",41,1
"4333",1,1,683,3,3,2,"15686f6",42,1
"4433",1,1,337,2,2,2,"15686f6",43,1
"4533",1,0,623,6,1,2,"15686f6",44,1
"4633",0,1,362,1,6,2,"15686f6",45,1
"4733",1,1,273,5,5,2,"15686f6",46,1
"4833",1,1,352,2,2,2,"15686f6",47,1
"4933",0,0,1253,6,6,2,"15686f6",48,1
"5033",0,0,649,4,4,2,"15686f6",49,1
"5145",1,0,860,5,1,2,"15686f6",50,1
"5235",1,0,286,2,1,2,"15686f6",51,1
"5333",1,0,229,3,1,2,"15686f6",52,1
"5433",0,1,397,4,1,2,"15686f6",53,1
"5533",1,1,282,3,3,2,"15686f6",54,1
"5633",1,1,336,1,1,2,"15686f6",55,1
"5733",1,1,232,6,6,2,"15686f6",56,1
"5833",0,1,260,1,3,2,"15686f6",57,1
"5933",1,1,233,1,1,2,"15686f6",58,1
"6033",1,0,558,6,1,2,"15686f6",59,1
"6145",1,1,220,3,3,2,"15686f6",60,1
"6235",1,1,242,5,5,2,"15686f6",61,1
"6333",-1,-1,0,1,5,2,"15686f6",62,1
"6433",1,0,333,1,2,2,"15686f6",63,1
"6533",0,1,401,1,4,2,"15686f6",64,1
"6633",1,1,523,2,2,2,"15686f6",65,1
"6733",1,1,255,4,4,2,"15686f6",66,1
"6833",1,1,887,5,5,2,"15686f6",67,1
"6933",1,0,47,1,3,2,"15686f6",68,1
"7033",0,1,219,1,6,2,"15686f6",69,1
"7137",0,0,61,1,1,2,"15686f6",70,1
"7234",1,1,21,2,2,2,"15686f6",71,1
"7333",1,1,161,4,4,2,"15686f6",72,1
"7433",1,1,284,3,3,2,"15686f6",73,1
"7533",0,1,159,1,4,2,"15686f6",74,1
"7633",0,1,479,2,1,2,"15686f6",75,1
"7733",1,1,100,6,6,2,"15686f6",76,1
"7833",0,1,280,5,1,2,"15686f6",77,1
"2146",1,1,520,4,4,3,"18cf318",1,1
"3146",1,0,310,1,4,3,"18cf318",2,1
"4146",1,0,288,1,2,3,"18cf318",3,1
"5146",1,0,724,1,3,3,"18cf318",4,1
"6146",0,1,318,1,6,3,"18cf318",5,1
"7109",0,0,261,3,3,3,"18cf318",6,1
"834",1,0,236,1,5,3,"18cf318",7,1
"934",1,1,572,6,6,3,"18cf318",8,1
"1034",1,1,281,5,5,3,"18cf318",9,1
"1134",0,0,230,2,2,3,"18cf318",10,1
"1234",1,1,249,1,1,3,"18cf318",11,1
"1334",1,1,317,5,5,3,"18cf318",12,1
"1434",1,1,269,2,2,3,"18cf318",13,1
"1534",0,1,709,6,1,3,"18cf318",14,1
"1634",1,1,262,1,1,3,"18cf318",15,1
"1734",1,1,278,6,6,3,"18cf318",16,1
"1834",0,1,191,1,5,3,"18cf318",17,1
"1934",1,1,221,4,4,3,"18cf318",18,1
"2034",0,1,293,3,1,3,"18cf318",19,1
"2147",1,0,283,2,1,3,"18cf318",20,1
"2236",0,1,203,1,4,3,"18cf318",21,1
"2334",1,1,225,3,3,3,"18cf318",22,1
"2434",1,0,279,1,2,3,"18cf318",23,1
"2534",0,1,686,5,1,3,"18cf318",24,1
"2634",0,1,311,4,1,3,"18cf318",25,1
"2734",1,1,519,6,6,3,"18cf318",26,1
"2834",1,1,192,4,4,3,"18cf318",27,1
"2934",1,1,288,1,1,3,"18cf318",28,1
"3034",1,1,300,5,5,3,"18cf318",29,1
"3147",0,1,271,1,6,3,"18cf318",30,1
"3236",0,1,279,1,3,3,"18cf318",31,1
"3334",1,1,397,3,3,3,"18cf318",32,1
"3434",1,1,518,2,2,3,"18cf318",33,1
"3534",1,1,211,6,6,3,"18cf318",34,1
"3634",1,1,557,2,2,3,"18cf318",35,1
"3734",1,1,160,1,1,3,"18cf318",36,1
"3834",0,1,213,5,1,3,"18cf318",37,1
"3934",0,1,463,1,6,3,"18cf318",38,1
"4034",1,1,482,5,5,3,"18cf318",39,1
"4147",1,1,226,4,4,3,"18cf318",40,1
"4236",0,1,100,1,3,3,"18cf318",41,1
"4334",1,1,684,3,3,3,"18cf318",42,1
"4434",0,1,293,4,1,3,"18cf318",43,1
"4534",0,1,237,1,2,3,"18cf318",44,1
"4634",1,1,842,2,2,3,"18cf318",45,1
"4734",1,0,602,5,1,3,"18cf318",46,1
"4834",1,1,263,5,5,3,"18cf318",47,1
"4934",-1,-1,0,6,1,3,"18cf318",48,1
"5034",0,1,393,3,1,3,"18cf318",49,1
"5147",1,1,257,1,1,3,"18cf318",50,1
"5236",1,1,234,3,3,3,"18cf318",51,1
"5334",1,1,36,4,4,3,"18cf318",52,1
"5434",0,1,305,2,1,3,"18cf318",53,1
"5534",0,1,342,1,4,3,"18cf318",54,1
"5634",1,1,292,6,6,3,"18cf318",55,1
"5734",0,1,626,3,1,3,"18cf318",56,1
"5834",0,1,224,6,1,3,"18cf318",57,1
"5934",0,1,135,1,5,3,"18cf318",58,1
"6034",1,1,345,4,4,3,"18cf318",59,1
"6147",1,1,332,2,2,3,"18cf318",60,1
"6236",0,1,241,1,4,3,"18cf318",61,1
"6334",1,1,569,1,1,3,"18cf318",62,1
"6434",1,1,343,6,6,3,"18cf318",63,1
"6534",0,1,214,2,1,3,"18cf318",64,1
"6634",1,1,312,3,3,3,"18cf318",65,1
"6734",1,1,604,5,5,3,"18cf318",66,1
"6834",0,0,689,1,1,3,"18cf318",67,1
"6934",1,1,248,2,2,3,"18cf318",68,1
"7034",1,1,168,6,6,3,"18cf318",69,1
"7138",0,1,282,4,1,3,"18cf318",70,1
"7235",0,1,179,1,6,3,"18cf318",71,1
"7334",1,1,258,5,5,3,"18cf318",72,1
"7434",0,1,145,1,5,3,"18cf318",73,1
"7534",1,1,247,3,3,3,"18cf318",74,1
"7634",0,1,88,2,1,3,"18cf318",75,1
"7734",1,1,211,4,4,3,"18cf318",76,1
"7834",-1,-1,0,1,3,3,"18cf318",77,1
"2148",1,1,274,4,4,1,"1c8c9ec",1,2
"3148",0,1,338,5,1,1,"1c8c9ec",2,2
"4148",0,1,233,1,4,1,"1c8c9ec",3,2
"5148",1,1,389,5,5,1,"1c8c9ec",4,2
"6148",1,1,536,6,6,1,"1c8c9ec",5,2
"7139",0,1,579,1,3,1,"1c8c9ec",6,2
"835",1,1,1176,3,3,1,"1c8c9ec",7,2
"935",-1,-1,0,2,2,1,"1c8c9ec",8,2
"1035",0,1,164,1,6,1,"1c8c9ec",9,2
"1135",0,1,873,2,1,1,"1c8c9ec",10,2
"1235",1,1,1476,1,1,1,"1c8c9ec",11,2
"1335",0,1,76,1,6,1,"1c8c9ec",12,2
"1435",1,1,378,5,5,1,"1c8c9ec",13,2
"1535",1,1,265,1,1,1,"1c8c9ec",14,2
"1635",1,1,280,6,6,1,"1c8c9ec",15,2
"1735",0,1,4,1,2,1,"1c8c9ec",16,2
"1835",1,1,542,2,2,1,"1c8c9ec",17,2
"1935",0,1,76,1,5,1,"1c8c9ec",18,2
"2035",0,1,90,1,3,1,"1c8c9ec",19,2
"2149",1,1,793,3,3,1,"1c8c9ec",20,2
"2237",1,1,630,4,4,1,"1c8c9ec",21,2
"2335",1,0,593,1,4,1,"1c8c9ec",22,2
"2435",0,1,437,1,2,1,"1c8c9ec",23,2
"2535",0,1,343,3,1,1,"1c8c9ec",24,2
"2635",1,1,460,5,5,1,"1c8c9ec",25,2
"2735",1,1,584,6,6,1,"1c8c9ec",26,2
"2835",1,1,211,4,4,1,"1c8c9ec",27,2
"2935",0,1,538,6,1,1,"1c8c9ec",28,2
"3035",1,1,247,3,3,1,"1c8c9ec",29,2
"3149",1,1,457,1,1,1,"1c8c9ec",30,2
"3237",1,1,328,2,2,1,"1c8c9ec",31,2
"3335",0,1,320,5,1,1,"1c8c9ec",32,2
"3435",0,1,286,1,4,1,"1c8c9ec",33,2
"3535",0,1,1312,4,1,1,"1c8c9ec",34,2
"3635",1,1,1527,2,2,1,"1c8c9ec",35,2
"3735",0,1,1597,2,1,1,"1c8c9ec",36,2
"3835",1,1,1467,1,1,1,"1c8c9ec",37,2
"3935",0,1,1425,1,5,1,"1c8c9ec",38,2
"4035",1,1,283,6,6,1,"1c8c9ec",39,2
"4149",0,1,467,6,1,1,"1c8c9ec",40,2
"4237",1,1,273,3,3,1,"1c8c9ec",41,2
"4335",1,1,126,5,5,1,"1c8c9ec",42,2
"4435",1,1,255,4,4,1,"1c8c9ec",43,2
"4535",0,1,196,1,3,1,"1c8c9ec",44,2
"4635",1,1,523,2,2,1,"1c8c9ec",45,2
"4735",0,1,355,1,6,1,"1c8c9ec",46,2
"4835",0,1,143,1,4,1,"1c8c9ec",47,2
"4935",1,1,989,4,4,1,"1c8c9ec",48,2
"5035",0,1,245,3,1,1,"1c8c9ec",49,2
"5149",1,1,357,5,5,1,"1c8c9ec",50,2
"5237",1,1,360,1,1,1,"1c8c9ec",51,2
"5335",1,1,49,6,6,1,"1c8c9ec",52,2
"5435",1,1,196,3,3,1,"1c8c9ec",53,2
"5535",0,1,1127,2,1,1,"1c8c9ec",54,2
"5635",0,1,366,5,1,1,"1c8c9ec",55,2
"5735",1,1,381,6,6,1,"1c8c9ec",56,2
"5835",1,1,309,2,2,1,"1c8c9ec",57,2
"5935",0,1,355,1,6,1,"1c8c9ec",58,2
"6035",0,1,315,1,2,1,"1c8c9ec",59,2
"6149",1,1,246,3,3,1,"1c8c9ec",60,2
"6237",0,1,504,4,1,1,"1c8c9ec",61,2
"6335",0,1,1239,1,5,1,"1c8c9ec",62,2
"6435",1,1,410,4,4,1,"1c8c9ec",63,2
"6535",0,1,295,3,1,1,"1c8c9ec",64,2
"6635",1,1,21,1,1,1,"1c8c9ec",65,2
"6735",1,1,768,5,5,1,"1c8c9ec",66,2
"6835",0,1,1450,2,1,1,"1c8c9ec",67,2
"6935",1,1,268,6,6,1,"1c8c9ec",68,2
"7035",1,1,514,2,2,1,"1c8c9ec",69,2
"7140",0,1,255,1,5,1,"1c8c9ec",70,2
"7236",1,1,262,4,4,1,"1c8c9ec",71,2
"7335",1,1,399,3,3,1,"1c8c9ec",72,2
"7435",1,1,402,5,5,1,"1c8c9ec",73,2
"7535",0,1,474,6,1,1,"1c8c9ec",74,2
"7635",0,1,1598,1,4,1,"1c8c9ec",75,2
"7735",1,1,558,1,1,1,"1c8c9ec",76,2
"7835",0,1,794,3,1,1,"1c8c9ec",77,2
"2150",1,1,358,4,4,2,"118dec7",1,2
"3150",1,1,212,1,1,2,"118dec7",2,2
"4150",0,1,154,1,3,2,"118dec7",3,2
"5150",0,1,91,4,1,2,"118dec7",4,2
"6150",1,1,503,5,5,2,"118dec7",5,2
"7141",0,1,1338,1,6,2,"118dec7",6,2
"836",0,1,316,1,2,2,"118dec7",7,2
"936",1,1,93,3,3,2,"118dec7",8,2
"1036",0,1,355,1,5,2,"118dec7",9,2
"1136",1,1,293,6,6,2,"118dec7",10,2
"1236",1,1,134,2,2,2,"118dec7",11,2
"1336",1,1,811,2,2,2,"118dec7",12,2
"1436",1,1,527,3,3,2,"118dec7",13,2
"1536",-1,-1,0,4,1,2,"118dec7",14,2
"1636",1,0,471,6,1,2,"118dec7",15,2
"1736",0,1,232,1,5,2,"118dec7",16,2
"1836",1,1,237,5,5,2,"118dec7",17,2
"1936",1,1,223,1,1,2,"118dec7",18,2
"2036",1,1,504,6,6,2,"118dec7",19,2
"2151",0,1,270,1,2,2,"118dec7",20,2
"2238",0,1,629,3,1,2,"118dec7",21,2
"2336",1,1,178,4,4,2,"118dec7",22,2
"2436",1,1,12,3,3,2,"118dec7",23,2
"2536",0,1,492,2,1,2,"118dec7",24,2
"2636",0,1,258,3,1,2,"118dec7",25,2
"2736",1,1,269,4,4,2,"118dec7",26,2
"2836",1,1,56,6,6,2,"118dec7",27,2
"2936",1,1,58,5,5,2,"118dec7",28,2
"3036",1,1,318,1,1,2,"118dec7",29,2
"3151",0,1,865,1,4,2,"118dec7",30,2
"3238",0,0,335,2,2,2,"118dec7",31,2
"3336",0,1,158,6,1,2,"118dec7",32,2
"3436",0,1,387,5,1,2,"118dec7",33,2
"3536",1,1,1169,3,3,2,"118dec7",34,2
"3636",0,1,502,5,1,2,"118dec7",35,2
"3736",1,1,332,5,5,2,"118dec7",36,2
