"","keys","accuracy","rt","Fimg","Simg","feature_index","subID","trialNum","run"
"2",1,1,784,4,4,1,"1cd6f2e",1,1
"3",0,1,1311,5,1,1,"1cd6f2e",2,1
"4",0,1,349,1,4,1,"1cd6f2e",3,1
"5",1,1,361,1,1,1,"1cd6f2e",4,1
"6",1,1,362,5,5,1,"1cd6f2e",5,1
"7",0,1,287,1,6,1,"1cd6f2e",6,1
"8",1,1,292,6,6,1,"1cd6f2e",7,1
"9",1,1,434,4,4,1,"1cd6f2e",8,1
"10",1,1,595,1,1,1,"1cd6f2e",9,1
"11",0,1,301,1,6,1,"1cd6f2e",10,1
"12",1,1,261,6,6,1,"1cd6f2e",11,1
"13",0,1,336,1,4,1,"1cd6f2e",12,1
"14",0,1,370,1,5,1,"1cd6f2e",13,1
"15",1,1,258,5,5,1,"1cd6f2e",14,1
"16",0,1,318,4,1,1,"1cd6f2e",15,1
"17",1,1,499,1,1,1,"1cd6f2e",16,1
"18",0,1,314,1,5,1,"1cd6f2e",17,1
"19",0,1,277,1,6,1,"1cd6f2e",18,1
"20",1,1,338,4,4,1,"1cd6f2e",19,1
"21",1,1,294,6,6,1,"1cd6f2e",20,1
"22",1,1,457,5,5,1,"1cd6f2e",21,1
"23",1,1,322,4,4,1,"1cd6f2e",22,1
"24",1,1,293,6,6,1,"1cd6f2e",23,1
"25",0,1,359,1,5,1,"1cd6f2e",24,1
"26",0,1,607,4,1,1,"1cd6f2e",25,1
"27",1,1,288,1,1,1,"1cd6f2e",26,1
"28",1,1,325,5,5,1,"1cd6f2e",27,1
"29",0,1,477,6,1,1,"1cd6f2e",28,1
"30",1,1,833,5,5,1,"1cd6f2e",29,1
"31",1,1,457,1,1,1,"1cd6f2e",30,1
"32",0,1,707,1,5,1,"1cd6f2e",31,1
"33",1,1,580,4,4,1,"1cd6f2e",32,1
"34",1,1,566,6,6,1,"1cd6f2e",33,1
"35",0,1,303,4,1,1,"1cd6f2e",34,1
"36",0,1,263,6,1,1,"1cd6f2e",35,1
"37",1,1,274,1,1,1,"1cd6f2e",36,1
"38",0,1,469,4,1,1,"1cd6f2e",37,1
"39",0,1,553,1,6,1,"1cd6f2e",38,1
"40",1,1,426,4,4,1,"1cd6f2e",39,1
"41",1,1,430,6,6,1,"1cd6f2e",40,1
"42",0,1,708,1,5,1,"1cd6f2e",41,1
"43",1,1,293,5,5,1,"1cd6f2e",42,1
"44",0,1,306,6,1,1,"1cd6f2e",43,1
"45",0,1,320,4,1,1,"1cd6f2e",44,1
"46",1,1,317,1,1,1,"1cd6f2e",45,1
"47",1,1,382,4,4,1,"1cd6f2e",46,1
"48",0,1,302,5,1,1,"1cd6f2e",47,1
"49",1,1,263,5,5,1,"1cd6f2e",48,1
"50",1,1,417,6,6,1,"1cd6f2e",49,1
"51",1,1,462,4,4,1,"1cd6f2e",50,1
"52",0,1,357,1,5,1,"1cd6f2e",51,1
"53",1,1,772,5,5,1,"1cd6f2e",52,1
"54",1,1,478,6,6,1,"1cd6f2e",53,1
"55",0,1,892,1,4,1,"1cd6f2e",54,1
"56",0,1,485,1,6,1,"1cd6f2e",55,1
"57",1,1,290,1,1,1,"1cd6f2e",56,1
"58",1,1,923,5,5,1,"1cd6f2e",57,1
"59",1,1,327,1,1,1,"1cd6f2e",58,1
"60",0,1,345,4,1,1,"1cd6f2e",59,1
"61",0,1,566,6,1,1,"1cd6f2e",60,1
"62",1,1,559,6,6,1,"1cd6f2e",61,1
"63",1,1,500,4,4,1,"1cd6f2e",62,1
"64",0,1,403,5,1,1,"1cd6f2e",63,1
"65",1,1,517,4,4,1,"1cd6f2e",64,1
"66",1,1,370,5,5,1,"1cd6f2e",65,1
"67",0,1,407,1,5,1,"1cd6f2e",66,1
"68",1,1,712,6,6,1,"1cd6f2e",67,1
"69",1,1,336,1,1,1,"1cd6f2e",68,1
"70",0,1,451,1,4,1,"1cd6f2e",69,1
"71",0,1,805,6,1,1,"1cd6f2e",70,1
"210",1,0,665,1,4,0,"113c150",1,1
"310",0,1,51,1,5,0,"113c150",2,1
"410",1,1,292,5,5,0,"113c150",3,1
"510",0,1,406,6,1,0,"113c150",4,1
"610",1,1,632,1,1,0,"113c150",5,1
"72",1,1,434,6,6,0,"113c150",6,1
"81",1,1,394,4,4,0,"113c150",7,1
"91",0,1,363,1,6,0,"113c150",8,1
"101",1,1,422,1,1,0,"113c150",9,1
"111",0,1,503,5,1,0,"113c150",10,1
"121",1,1,360,4,4,0,"113c150",11,1
"131",1,1,474,5,5,0,"113c150",12,1
"141",1,1,411,6,6,0,"113c150",13,1
"151",0,1,253,4,1,0,"113c150",14,1
"161",1,1,367,1,1,0,"113c150",15,1
"171",0,1,337,1,4,0,"113c150",16,1
"181",1,1,322,4,4,0,"113c150",17,1
"191",0,1,453,1,5,0,"113c150",18,1
"201",1,1,374,5,5,0,"113c150",19,1
"211",1,1,295,6,6,0,"113c150",20,1
"221",0,1,415,6,1,0,"113c150",21,1
"231",0,1,402,1,6,0,"113c150",22,1
"241",1,1,465,4,4,0,"113c150",23,1
"251",1,1,373,6,6,0,"113c150",24,1
"261",1,1,365,5,5,0,"113c150",25,1
"271",1,1,336,1,1,0,"113c150",26,1
"281",1,0,344,4,1,0,"113c150",27,1
"291",0,1,419,1,5,0,"113c150",28,1
"301",1,0,355,1,6,0,"113c150",29,1
"311",1,1,398,1,1,0,"113c150",30,1
"321",1,1,318,5,5,0,"113c150",31,1
"331",0,1,48,1,4,0,"113c150",32,1
"341",1,1,345,6,6,0,"113c150",33,1
"351",1,1,347,4,4,0,"113c150",34,1
"361",0,1,468,1,5,0,"113c150",35,1
"371",0,1,134,1,6,0,"113c150",36,1
"381",0,1,334,1,4,0,"113c150",37,1
"391",1,1,274,4,4,0,"113c150",38,1
"401",1,1,233,5,5,0,"113c150",39,1
"411",1,1,501,1,1,0,"113c150",40,1
"421",1,1,85,6,6,0,"113c150",41,1
"431",0,1,231,5,1,0,"113c150",42,1
"441",1,1,449,6,6,0,"113c150",43,1
"451",0,1,251,4,1,0,"113c150",44,1
"461",0,1,83,1,6,0,"113c150",45,1
"471",1,1,270,5,5,0,"113c150",46,1
"481",0,1,103,1,5,0,"113c150",47,1
"491",1,1,191,4,4,0,"113c150",48,1
"501",1,1,208,1,1,0,"113c150",49,1
"511",1,1,273,6,6,0,"113c150",50,1
"521",1,1,212,1,1,0,"113c150",51,1
"531",1,1,358,4,4,0,"113c150",52,1
"541",1,1,317,5,5,0,"113c150",53,1
"551",0,1,215,5,1,0,"113c150",54,1
"561",0,1,274,1,4,0,"113c150",55,1
"571",0,1,131,6,1,0,"113c150",56,1
"581",1,1,182,5,5,0,"113c150",57,1
"591",0,1,311,1,4,0,"113c150",58,1
"601",0,1,303,1,5,0,"113c150",59,1
"611",1,1,185,6,6,0,"113c150",60,1
"621",0,1,299,6,1,0,"113c150",61,1
"631",1,1,517,1,1,0,"113c150",62,1
"641",1,1,310,4,4,0,"113c150",63,1
"651",0,1,207,6,1,0,"113c150",64,1
"661",0,0,431,6,6,0,"113c150",65,1
"671",1,1,354,5,5,0,"113c150",66,1
"681",0,1,307,1,4,0,"113c150",67,1
"691",0,1,300,1,5,0,"113c150",68,1
"701",1,1,343,1,1,0,"113c150",69,1
"711",1,1,247,4,4,0,"113c150",70,1
"212",1,1,700,4,4,0,"1563fbc",1,1
"312",0,1,480,4,1,0,"1563fbc",2,1
"412",0,1,447,1,5,0,"1563fbc",3,1
"512",0,1,366,6,1,0,"1563fbc",4,1
"612",0,0,319,1,1,0,"1563fbc",5,1
"73",1,1,322,5,5,0,"1563fbc",6,1
"82",1,1,316,6,6,0,"1563fbc",7,1
"92",0,1,270,1,5,0,"1563fbc",8,1
"102",0,1,306,4,1,0,"1563fbc",9,1
"112",1,1,275,5,5,0,"1563fbc",10,1
"122",0,1,254,6,1,0,"1563fbc",11,1
"132",1,1,277,1,1,0,"1563fbc",12,1
"142",1,1,259,6,6,0,"1563fbc",13,1
"152",1,1,413,4,4,0,"1563fbc",14,1
"162",1,1,279,5,5,0,"1563fbc",15,1
"172",1,1,308,6,6,0,"1563fbc",16,1
"182",1,1,250,1,1,0,"1563fbc",17,1
"192",0,1,280,1,6,0,"1563fbc",18,1
"202",1,1,236,4,4,0,"1563fbc",19,1
"213",0,1,271,4,1,0,"1563fbc",20,1
"222",0,1,391,5,1,0,"1563fbc",21,1
"232",0,1,284,5,1,0,"1563fbc",22,1
"242",1,1,287,1,1,0,"1563fbc",23,1
"252",1,1,496,5,5,0,"1563fbc",24,1
"262",0,1,399,1,4,0,"1563fbc",25,1
"272",1,1,471,4,4,0,"1563fbc",26,1
"282",1,1,295,6,6,0,"1563fbc",27,1
"292",0,1,402,6,1,0,"1563fbc",28,1
"302",1,0,299,1,4,0,"1563fbc",29,1
"313",1,1,319,4,4,0,"1563fbc",30,1
"322",1,1,266,1,1,0,"1563fbc",31,1
"332",1,1,367,6,6,0,"1563fbc",32,1
"342",0,1,242,5,1,0,"1563fbc",33,1
"352",0,1,318,1,6,0,"1563fbc",34,1
"362",1,1,297,5,5,0,"1563fbc",35,1
"372",0,1,299,6,1,0,"1563fbc",36,1
"382",0,1,279,1,4,0,"1563fbc",37,1
"392",0,1,368,5,1,0,"1563fbc",38,1
"402",1,1,322,4,4,0,"1563fbc",39,1
"413",1,1,459,5,5,0,"1563fbc",40,1
"422",1,1,311,6,6,0,"1563fbc",41,1
"432",1,1,287,1,1,0,"1563fbc",42,1
"442",1,1,265,6,6,0,"1563fbc",43,1
"452",1,1,282,5,5,0,"1563fbc",44,1
"462",1,1,311,4,4,0,"1563fbc",45,1
"472",0,1,1440,1,5,0,"1563fbc",46,1
"482",0,1,300,1,4,0,"1563fbc",47,1
"492",0,1,265,1,6,0,"1563fbc",48,1
"502",1,1,277,1,1,0,"1563fbc",49,1
"513",1,1,240,5,5,0,"1563fbc",50,1
"522",1,1,282,6,6,0,"1563fbc",51,1
"532",0,1,232,5,1,0,"1563fbc",52,1
"542",0,1,333,4,1,0,"1563fbc",53,1
"552",1,1,352,4,4,0,"1563fbc",54,1
"562",1,1,308,1,1,0,"1563fbc",55,1
"572",0,1,302,6,1,0,"1563fbc",56,1
"582",1,1,260,6,6,0,"1563fbc",57,1
"592",1,1,285,5,5,0,"1563fbc",58,1
"602",0,1,241,1,4,0,"1563fbc",59,1
"613",1,1,260,4,4,0,"1563fbc",60,1
"622",0,1,402,5,1,0,"1563fbc",61,1
"632",1,1,284,1,1,0,"1563fbc",62,1
"642",0,1,238,1,6,0,"1563fbc",63,1
"652",0,1,258,4,1,0,"1563fbc",64,1
"662",1,1,288,1,1,0,"1563fbc",65,1
"672",1,1,317,5,5,0,"1563fbc",66,1
"682",1,1,263,6,6,0,"1563fbc",67,1
"692",0,1,552,1,6,0,"1563fbc",68,1
"702",0,1,706,1,5,0,"1563fbc",69,1
"712",1,1,575,4,4,0,"1563fbc",70,1
"214",1,0,557,5,1,3,"1465c18",1,1
"314",1,1,250,1,1,3,"1465c18",2,1
"414",1,0,252,6,1,3,"1465c18",3,1
"514",1,0,262,4,1,3,"1465c18",4,1
"614",1,1,235,6,6,3,"1465c18",5,1
"74",1,1,224,4,4,3,"1465c18",6,1
"83",1,1,199,5,5,3,"1465c18",7,1
"93",0,0,254,4,4,3,"1465c18",8,1
"103",1,1,117,1,1,3,"1465c18",9,1
"113",1,1,273,5,5,3,"1465c18",10,1
"123",1,0,225,1,4,3,"1465c18",11,1
"133",1,0,460,1,6,3,"1465c18",12,1
"143",0,0,274,6,6,3,"1465c18",13,1
"153",1,0,294,1,5,3,"1465c18",14,1
"163",1,1,403,5,5,3,"1465c18",15,1
"173",1,1,327,1,1,3,"1465c18",16,1
"183",0,1,275,6,1,3,"1465c18",17,1
"193",0,1,246,1,5,3,"1465c18",18,1
"203",1,1,368,6,6,3,"1465c18",19,1
"215",1,1,247,4,4,3,"1465c18",20,1
"223",0,1,1372,4,1,3,"1465c18",21,1
"233",1,1,473,1,1,3,"1465c18",22,1
"243",0,1,335,5,1,3,"1465c18",23,1
"253",0,0,392,6,6,3,"1465c18",24,1
"263",1,0,1585,1,6,3,"1465c18",25,1
"273",-1,-1,0,5,5,3,"1465c18",26,1
"283",1,1,249,4,4,3,"1465c18",27,1
"293",-1,-1,0,4,1,3,"1465c18",28,1
"303",0,0,393,5,5,3,"1465c18",29,1
"315",1,0,331,4,1,3,"1465c18",30,1
"323",0,0,384,1,1,3,"1465c18",31,1
"333",1,1,384,4,4,3,"1465c18",32,1
"343",0,0,267,6,6,3,"1465c18",33,1
"353",1,0,282,5,1,3,"1465c18",34,1
"363",0,1,1601,6,1,3,"1465c18",35,1
"373",0,1,297,5,1,3,"1465c18",36,1
"383",1,1,183,1,1,3,"1465c18",37,1
"393",0,1,502,6,1,3,"1465c18",38,1
"403",1,1,234,5,5,3,"1465c18",39,1
"415",0,1,229,4,1,3,"1465c18",40,1
"423",-1,0,380,6,6,3,"1465c18",41,1
"433",0,0,349,4,4,3,"1465c18",42,1
"443",0,1,302,1,4,3,"1465c18",43,1
"453",1,0,541,5,1,3,"1465c18",44,1
"463",0,0,1136,5,5,3,"1465c18",45,1
"473",1,0,410,1,6,3,"1465c18",46,1
"483",0,0,684,4,4,3,"1465c18",47,1
"493",1,1,384,1,1,3,"1465c18",48,1
"503",0,0,497,6,6,3,"1465c18",49,1
"515",1,1,872,1,1,3,"1465c18",50,1
"523",1,0,985,6,1,3,"1465c18",51,1
"533",0,1,332,1,4,3,"1465c18",52,1
"543",1,1,305,6,6,3,"1465c18",53,1
"553",0,0,126,5,5,3,"1465c18",54,1
"563",1,0,329,1,5,3,"1465c18",55,1
"573",0,0,410,4,4,3,"1465c18",56,1
"583",1,1,291,5,5,3,"1465c18",57,1
"593",0,1,505,5,1,3,"1465c18",58,1
"603",0,1,128,6,1,3,"1465c18",59,1
"615",0,0,276,1,1,3,"1465c18",60,1
"623",1,1,1050,4,4,3,"1465c18",61,1
"633",0,1,1256,4,1,3,"1465c18",62,1
"643",-1,-1,0,6,6,3,"1465c18",63,1
"653",1,1,665,1,1,3,"1465c18",64,1
"663",0,0,548,6,6,3,"1465c18",65,1
"673",0,1,785,1,4,3,"1465c18",66,1
"683",0,1,820,5,1,3,"1465c18",67,1
"693",1,0,1168,6,1,3,"1465c18",68,1
"703",0,0,1804,5,5,3,"1465c18",69,1
"713",1,1,1294,4,4,3,"1465c18",70,1
"216",1,1,174,4,4,3,"1e506ec",1,1
"316",1,0,262,4,1,3,"1e506ec",2,1
"416",1,1,431,6,6,3,"1e506ec",3,1
"516",1,1,48,5,5,3,"1e506ec",4,1
"616",0,1,253,5,1,3,"1e506ec",5,1
"75",1,1,99,1,1,3,"1e506ec",6,1
"84",0,1,206,1,6,3,"1e506ec",7,1
"94",0,1,251,1,4,3,"1e506ec",8,1
"104",0,1,206,1,6,3,"1e506ec",9,1
"114",1,1,227,1,1,3,"1e506ec",10,1
"124",1,1,210,5,5,3,"1e506ec",11,1
"134",1,1,116,4,4,3,"1e506ec",12,1
"144",0,1,290,5,1,3,"1e506ec",13,1
"154",1,1,328,6,6,3,"1e506ec",14,1
"164",0,1,244,1,6,3,"1e506ec",15,1
"174",1,1,173,5,5,3,"1e506ec",16,1
"184",0,1,207,1,5,3,"1e506ec",17,1
"194",0,1,221,1,4,3,"1e506ec",18,1
"204",1,1,216,1,1,3,"1e506ec",19,1
"217",1,1,202,4,4,3,"1e506ec",20,1
"224",1,1,404,6,6,3,"1e506ec",21,1
"234",1,1,416,1,1,3,"1e506ec",22,1
"244",0,1,293,1,5,3,"1e506ec",23,1
"254",0,1,303,4,1,3,"1e506ec",24,1
"264",0,0,331,4,4,3,"1e506ec",25,1
"274",0,1,223,6,1,3,"1e506ec",26,1
"284",1,1,299,6,6,3,"1e506ec",27,1
"294",1,1,345,5,5,3,"1e506ec",28,1
"304",1,1,348,5,5,3,"1e506ec",29,1
"317",0,1,275,6,1,3,"1e506ec",30,1
"324",0,0,1506,6,6,3,"1e506ec",31,1
"334",1,1,139,4,4,3,"1e506ec",32,1
"344",0,1,176,4,1,3,"1e506ec",33,1
"354",1,1,82,1,1,3,"1e506ec",34,1
"364",0,1,198,5,1,3,"1e506ec",35,1
"374",0,1,243,4,1,3,"1e506ec",36,1
"384",1,1,232,5,5,3,"1e506ec",37,1
"394",1,1,192,4,4,3,"1e506ec",38,1
"404",0,1,147,1,5,3,"1e506ec",39,1
"417",1,1,233,6,6,3,"1e506ec",40,1
"424",1,1,250,1,1,3,"1e506ec",41,1
"434",0,1,303,6,1,3,"1e506ec",42,1
"444",0,1,165,5,1,3,"1e506ec",43,1
"454",1,1,272,4,4,3,"1e506ec",44,1
"464",1,1,315,6,6,3,"1e506ec",45,1
"474",0,1,254,4,1,3,"1e506ec",46,1
"484",1,1,185,1,1,3,"1e506ec",47,1
"494",1,1,276,5,5,3,"1e506ec",48,1
"504",0,1,294,6,1,3,"1e506ec",49,1
"517",0,1,198,1,6,3,"1e506ec",50,1
"524",1,1,305,5,5,3,"1e506ec",51,1
"534",1,1,286,4,4,3,"1e506ec",52,1
"544",1,1,361,6,6,3,"1e506ec",53,1
"554",1,1,324,1,1,3,"1e506ec",54,1
"564",0,1,423,5,1,3,"1e506ec",55,1
"574",0,1,223,4,1,3,"1e506ec",56,1
"584",0,1,342,1,4,3,"1e506ec",57,1
"594",1,1,343,5,5,3,"1e506ec",58,1
"604",0,1,221,6,1,3,"1e506ec",59,1
"617",0,1,248,1,5,3,"1e506ec",60,1
"624",1,1,288,6,6,3,"1e506ec",61,1
"634",1,1,159,4,4,3,"1e506ec",62,1
"644",1,1,91,1,1,3,"1e506ec",63,1
"654",1,1,236,1,1,3,"1e506ec",64,1
"664",1,1,417,5,5,3,"1e506ec",65,1
"674",1,1,296,4,4,3,"1e506ec",66,1
"684",1,1,187,6,6,3,"1e506ec",67,1
"694",0,1,192,5,1,3,"1e506ec",68,1
"704",0,1,203,4,1,3,"1e506ec",69,1
"714",0,1,325,6,1,3,"1e506ec",70,1
"218",1,0,644,1,4,2,"1c57828",1,1
"318",1,0,359,1,6,2,"1c57828",2,1
"418",0,0,394,1,1,2,"1c57828",3,1
"518",1,1,295,5,5,2,"1c57828",4,1
"618",0,1,272,5,1,2,"1c57828",5,1
"76",0,0,298,4,4,2,"1c57828",6,1
"85",1,1,262,6,6,2,"1c57828",7,1
"95",1,1,218,5,5,2,"1c57828",8,1
"105",1,1,272,1,1,2,"1c57828",9,1
"115",0,1,258,1,4,2,"1c57828",10,1
"125",1,1,234,4,4,2,"1c57828",11,1
"135",1,0,220,1,5,2,"1c57828",12,1
"145",0,1,363,6,1,2,"1c57828",13,1
"155",0,0,279,6,6,2,"1c57828",14,1
"165",0,0,238,1,1,2,"1c57828",15,1
"175",1,1,254,5,5,2,"1c57828",16,1
"185",1,1,297,6,6,2,"1c57828",17,1
"195",0,1,315,4,1,2,"1c57828",18,1
"205",1,0,227,5,1,2,"1c57828",19,1
"219",0,0,300,4,4,2,"1c57828",20,1
"225",1,0,429,1,6,2,"1c57828",21,1
"235",1,1,234,1,1,2,"1c57828",22,1
"245",1,0,412,1,5,2,"1c57828",23,1
"255",1,1,247,5,5,2,"1c57828",24,1
"265",0,1,297,1,6,2,"1c57828",25,1
"275",0,0,214,4,4,2,"1c57828",26,1
"285",0,0,267,6,6,2,"1c57828",27,1
"295",1,0,211,1,4,2,"1c57828",28,1
"305",1,0,258,1,5,2,"1c57828",29,1
"319",1,0,253,1,6,2,"1c57828",30,1
"325",1,1,323,4,4,2,"1c57828",31,1
"335",1,1,317,1,1,2,"1c57828",32,1
"345",1,0,246,4,1,2,"1c57828",33,1
"355",0,0,232,6,6,2,"1c57828",34,1
"365",1,1,266,5,5,2,"1c57828",35,1
"375",1,1,267,1,1,2,"1c57828",36,1
"385",1,1,209,5,5,2,"1c57828",37,1
"395",1,0,304,1,4,2,"1c57828",38,1
"405",1,1,222,4,4,2,"1c57828",39,1
"419",1,0,248,1,6,2,"1c57828",40,1
"425",1,0,225,1,5,2,"1c57828",41,1
"435",0,0,220,6,6,2,"1c57828",42,1
"445",1,1,220,4,4,2,"1c57828",43,1
"455",1,0,226,1,6,2,"1c57828",44,1
"465",1,1,280,5,5,2,"1c57828",45,1
"475",1,1,433,6,6,2,"1c57828",46,1
"485",1,1,227,1,1,2,"1c57828",47,1
"495",1,0,218,1,4,2,"1c57828",48,1
"505",1,0,294,1,5,2,"1c57828",49,1
"519",1,1,211,6,6,2,"1c57828",50,1
"525",0,1,254,4,1,2,"1c57828",51,1
"535",0,0,235,5,5,2,"1c57828",52,1
"545",0,1,237,5,1,2,"1c57828",53,1
"555",1,1,274,4,4,2,"1c57828",54,1
"565",1,0,293,6,1,2,"1c57828",55,1
"575",1,1,224,1,1,2,"1c57828",56,1
"585",1,1,258,4,4,2,"1c57828",57,1
"595",0,1,223,1,4,2,"1c57828",58,1
"605",1,1,276,5,5,2,"1c57828",59,1
"619",1,0,238,1,5,2,"1c57828",60,1
"625",1,1,260,6,6,2,"1c57828",61,1
"635",1,0,201,6,1,2,"1c57828",62,1
"645",1,1,232,1,1,2,"1c57828",63,1
"655",1,1,389,1,1,2,"1c57828",64,1
"665",1,1,218,5,5,2,"1c57828",65,1
"675",0,0,307,4,4,2,"1c57828",66,1
"685",1,1,453,6,6,2,"1c57828",67,1
"695",1,0,297,4,1,2,"1c57828",68,1
"705",1,0,298,6,1,2,"1c57828",69,1
"715",1,0,228,1,5,2,"1c57828",70,1
"220",1,0,974,5,1,3,"1d349a8",1,1
"320",1,1,592,6,6,3,"1d349a8",2,1
"420",1,0,1572,4,1,3,"1d349a8",3,1
"520",1,0,448,1,6,3,"1d349a8",4,1
"620",1,1,560,1,1,3,"1d349a8",5,1
"77",0,0,472,5,5,3,"1d349a8",6,1
"86",0,0,551,4,4,3,"1d349a8",7,1
"96",1,1,454,4,4,3,"1d349a8",8,1
"106",0,0,518,1,1,3,"1d349a8",9,1
"116",1,1,517,6,6,3,"1d349a8",10,1
"126",1,0,689,4,1,3,"1d349a8",11,1
"136",0,0,584,5,5,3,"1d349a8",12,1
"146",0,1,856,1,6,3,"1d349a8",13,1
"156",1,0,686,1,5,3,"1d349a8",14,1
"166",1,1,694,6,6,3,"1d349a8",15,1
"176",0,1,593,6,1,3,"1d349a8",16,1
"186",0,1,481,5,1,3,"1d349a8",17,1
"196",1,1,543,5,5,3,"1d349a8",18,1
"206",1,1,714,1,1,3,"1d349a8",19,1
"2110",1,1,566,4,4,3,"1d349a8",20,1
"226",0,1,557,1,4,3,"1d349a8",21,1
"236",0,1,991,1,6,3,"1d349a8",22,1
"246",1,1,762,6,6,3,"1d349a8",23,1
"256",0,1,513,4,1,3,"1d349a8",24,1
"266",1,1,522,5,5,3,"1d349a8",25,1
"276",1,1,575,1,1,3,"1d349a8",26,1
"286",1,1,648,4,4,3,"1d349a8",27,1
"296",0,1,571,5,1,3,"1d349a8",28,1
"306",0,1,524,4,1,3,"1d349a8",29,1
"3110",1,1,524,5,5,3,"1d349a8",30,1
"326",0,1,548,1,6,3,"1d349a8",31,1
"336",0,1,1057,5,1,3,"1d349a8",32,1
"346",1,1,439,4,4,3,"1d349a8",33,1
"356",1,1,442,1,1,3,"1d349a8",34,1
"366",1,1,524,6,6,3,"1d349a8",35,1
"376",0,1,529,1,5,3,"1d349a8",36,1
"386",0,1,447,4,1,3,"1d349a8",37,1
"396",1,1,532,5,5,3,"1d349a8",38,1
"406",1,1,504,4,4,3,"1d349a8",39,1
"4110",0,1,356,6,1,3,"1d349a8",40,1
"426",1,1,478,1,1,3,"1d349a8",41,1
"436",1,1,450,6,6,3,"1d349a8",42,1
"446",1,1,471,6,6,3,"1d349a8",43,1
"456",1,1,543,1,1,3,"1d349a8",44,1
"466",0,1,401,5,1,3,"1d349a8",45,1
"476",1,1,512,4,4,3,"1d349a8",46,1
"486",1,1,403,5,5,3,"1d349a8",47,1
"496",0,1,525,1,4,3,"1d349a8",48,1
"506",0,1,575,6,1,3,"1d349a8",49,1
"5110",1,1,488,5,5,3,"1d349a8",50,1
"526",0,1,385,1,4,3,"1d349a8",51,1
"536",1,1,475,4,4,3,"1d349a8",52,1
"546",1,1,485,1,1,3,"1d349a8",53,1
"556",0,1,434,5,1,3,"1d349a8",54,1
"566",1,1,545,6,6,3,"1d349a8",55,1
"576",0,1,387,6,1,3,"1d349a8",56,1
"586",0,1,512,1,5,3,"1d349a8",57,1
"596",0,1,383,1,4,3,"1d349a8",58,1
"606",1,1,522,4,4,3,"1d349a8",59,1
"6110",1,1,1766,1,1,3,"1d349a8",60,1
"626",0,1,384,1,6,3,"1d349a8",61,1
"636",1,1,466,6,6,3,"1d349a8",62,1
"646",1,1,701,5,5,3,"1d349a8",63,1
"656",0,1,515,4,1,3,"1d349a8",64,1
"666",0,1,353,1,5,3,"1d349a8",65,1
"676",1,1,402,5,5,3,"1d349a8",66,1
"686",1,1,486,1,1,3,"1d349a8",67,1
"696",1,1,516,6,6,3,"1d349a8",68,1
"706",0,1,605,1,6,3,"1d349a8",69,1
"716",1,1,467,4,4,3,"1d349a8",70,1
"227",0,1,809,4,1,1,"17e1ad1",1,1
"327",1,1,607,5,5,1,"17e1ad1",2,1
"427",1,1,295,4,4,1,"17e1ad1",3,1
"527",1,1,380,1,1,1,"17e1ad1",4,1
"627",0,1,350,1,6,1,"17e1ad1",5,1
"78",0,1,538,5,1,1,"17e1ad1",6,1
"87",0,0,453,6,6,1,"17e1ad1",7,1
"97",0,1,527,1,5,1,"17e1ad1",8,1
"107",1,1,532,6,6,1,"17e1ad1",9,1
"117",1,1,327,4,4,1,"17e1ad1",10,1
"127",1,1,597,5,5,1,"17e1ad1",11,1
"137",0,1,537,1,6,1,"17e1ad1",12,1
"147",1,1,357,1,1,1,"17e1ad1",13,1
"157",0,1,356,1,4,1,"17e1ad1",14,1
"167",1,1,334,1,1,1,"17e1ad1",15,1
"177",0,1,514,1,6,1,"17e1ad1",16,1
"187",1,1,561,4,4,1,"17e1ad1",17,1
"197",1,1,431,6,6,1,"17e1ad1",18,1
"207",1,1,582,5,5,1,"17e1ad1",19,1
"2111",0,1,274,5,1,1,"17e1ad1",20,1
"228",0,1,343,1,4,1,"17e1ad1",21,1
"237",0,1,503,1,6,1,"17e1ad1",22,1
"247",1,1,521,5,5,1,"17e1ad1",23,1
"257",1,1,562,4,4,1,"17e1ad1",24,1
"267",0,1,375,4,1,1,"17e1ad1",25,1
"277",1,1,415,1,1,1,"17e1ad1",26,1
"287",1,1,302,6,6,1,"17e1ad1",27,1
"297",0,1,385,1,5,1,"17e1ad1",28,1
"307",-1,-1,0,4,4,1,"17e1ad1",29,1
"3111",0,1,261,1,4,1,"17e1ad1",30,1
"328",1,1,316,6,6,1,"17e1ad1",31,1
"337",1,1,92,5,5,1,"17e1ad1",32,1
"347",0,1,114,1,6,1,"17e1ad1",33,1
"357",0,1,577,1,5,1,"17e1ad1",34,1
"367",1,1,492,1,1,1,"17e1ad1",35,1
"377",1,1,476,6,6,1,"17e1ad1",36,1
"387",1,1,60,5,5,1,"17e1ad1",37,1
"397",0,1,330,6,1,1,"17e1ad1",38,1
"407",0,1,348,1,4,1,"17e1ad1",39,1
"4111",1,1,1370,1,1,1,"17e1ad1",40,1
"428",1,1,53,4,4,1,"17e1ad1",41,1
"437",0,1,11,1,5,1,"17e1ad1",42,1
"447",1,0,12,4,1,1,"17e1ad1",43,1
"457",0,1,34,1,6,1,"17e1ad1",44,1
"467",1,1,837,6,6,1,"17e1ad1",45,1
"477",1,1,31,5,5,1,"17e1ad1",46,1
"487",1,1,121,4,4,1,"17e1ad1",47,1
"497",0,1,394,1,5,1,"17e1ad1",48,1
"507",1,1,232,1,1,1,"17e1ad1",49,1
"5111",0,1,220,1,4,1,"17e1ad1",50,1
"528",0,1,97,1,6,1,"17e1ad1",51,1
"537",1,1,192,5,5,1,"17e1ad1",52,1
"547",1,1,205,1,1,1,"17e1ad1",53,1
"557",1,1,256,6,6,1,"17e1ad1",54,1
"567",1,1,243,4,4,1,"17e1ad1",55,1
"577",0,1,436,5,1,1,"17e1ad1",56,1
"587",1,1,510,5,5,1,"17e1ad1",57,1
"597",1,1,364,1,1,1,"17e1ad1",58,1
"607",0,1,303,1,4,1,"17e1ad1",59,1
"6111",1,1,1060,4,4,1,"17e1ad1",60,1
"628",1,0,549,1,6,1,"17e1ad1",61,1
"637",0,1,422,1,5,1,"17e1ad1",62,1
"647",1,1,222,6,6,1,"17e1ad1",63,1
"657",1,1,233,5,5,1,"17e1ad1",64,1
"667",1,1,229,6,6,1,"17e1ad1",65,1
"677",1,1,358,1,1,1,"17e1ad1",66,1
"687",1,1,281,4,4,1,"17e1ad1",67,1
"697",0,1,267,1,4,1,"17e1ad1",68,1
"707",0,1,327,5,1,1,"17e1ad1",69,1
"717",1,0,254,6,1,1,"17e1ad1",70,1
"229",0,1,930,5,1,0,"1ff7d88",1,1
"329",0,1,371,6,1,0,"1ff7d88",2,1
"429",1,1,349,5,5,0,"1ff7d88",3,1
"529",0,1,359,4,1,0,"1ff7d88",4,1
"629",1,1,354,6,6,0,"1ff7d88",5,1
"79",1,1,302,1,1,0,"1ff7d88",6,1
"88",1,1,308,4,4,0,"1ff7d88",7,1
"98",1,1,617,1,1,0,"1ff7d88",8,1
"108",0,1,337,1,6,0,"1ff7d88",9,1
"118",1,1,428,5,5,0,"1ff7d88",10,1
"128",0,1,334,1,5,0,"1ff7d88",11,1
"138",1,1,371,6,6,0,"1ff7d88",12,1
"148",1,1,458,4,4,0,"1ff7d88",13,1
"158",0,1,404,1,4,0,"1ff7d88",14,1
"168",1,1,377,4,4,0,"1ff7d88",15,1
"178",0,1,676,4,1,0,"1ff7d88",16,1
"188",1,1,421,5,5,0,"1ff7d88",17,1
"198",1,1,487,6,6,0,"1ff7d88",18,1
"208",0,1,428,5,1,0,"1ff7d88",19,1
"2112",0,1,359,6,1,0,"1ff7d88",20,1
"2210",1,1,326,1,1,0,"1ff7d88",21,1
"238",0,1,544,5,1,0,"1ff7d88",22,1
"248",1,1,299,5,5,0,"1ff7d88",23,1
"258",1,1,463,6,6,0,"1ff7d88",24,1
"268",1,1,379,1,1,0,"1ff7d88",25,1
"278",1,1,611,4,4,0,"1ff7d88",26,1
"288",0,1,456,4,1,0,"1ff7d88",27,1
"298",0,1,362,1,6,0,"1ff7d88",28,1
"308",1,1,507,6,6,0,"1ff7d88",29,1
"3112",0,1,443,4,1,0,"1ff7d88",30,1
"3210",1,1,307,4,4,0,"1ff7d88",31,1
"338",0,1,404,5,1,0,"1ff7d88",32,1
"348",1,1,335,1,1,0,"1ff7d88",33,1
"358",0,1,463,6,1,0,"1ff7d88",34,1
"368",1,1,544,5,5,0,"1ff7d88",35,1
"378",1,1,401,1,1,0,"1ff7d88",36,1
"388",1,1,354,5,5,0,"1ff7d88",37,1
"398",0,1,890,6,1,0,"1ff7d88",38,1
"408",1,1,500,4,4,0,"1ff7d88",39,1
"4112",0,1,511,5,1,0,"1ff7d88",40,1
"4210",1,1,345,6,6,0,"1ff7d88",41,1
"438",0,1,560,4,1,0,"1ff7d88",42,1
"448",1,1,645,4,4,0,"1ff7d88",43,1
"458",0,1,322,4,1,0,"1ff7d88",44,1
"468",1,1,709,5,5,0,"1ff7d88",45,1
"478",1,1,529,6,6,0,"1ff7d88",46,1
"488",1,1,362,1,1,0,"1ff7d88",47,1
"498",0,1,450,1,6,0,"1ff7d88",48,1
"508",0,1,442,1,5,0,"1ff7d88",49,1
"5112",1,1,336,1,1,0,"1ff7d88",50,1
"5210",1,1,350,6,6,0,"1ff7d88",51,1
"538",0,1,305,4,1,0,"1ff7d88",52,1
"548",1,1,317,5,5,0,"1ff7d88",53,1
"558",0,1,356,5,1,0,"1ff7d88",54,1
"568",0,1,406,1,6,0,"1ff7d88",55,1
"578",1,1,431,4,4,0,"1ff7d88",56,1
"588",1,1,1285,6,6,0,"1ff7d88",57,1
"598",0,1,672,1,5,0,"1ff7d88",58,1
"608",0,1,879,1,6,0,"1ff7d88",59,1
"6112",1,1,337,1,1,0,"1ff7d88",60,1
"6210",1,1,782,4,4,0,"1ff7d88",61,1
"638",1,1,383,5,5,0,"1ff7d88",62,1
"648",0,1,362,4,1,0,"1ff7d88",63,1
"658",1,1,400,5,5,0,"1ff7d88",64,1
"668",1,1,1075,1,1,0,"1ff7d88",65,1
"678",1,1,934,6,6,0,"1ff7d88",66,1
"688",0,1,650,5,1,0,"1ff7d88",67,1
"698",0,1,1040,1,6,0,"1ff7d88",68,1
"708",0,1,309,1,4,0,"1ff7d88",69,1
"718",1,1,224,4,4,0,"1ff7d88",70,1
"230",1,0,525,5,1,1,"14fa68e",1,1
"330",1,1,401,4,4,1,"14fa68e",2,1
"430",1,1,235,1,1,1,"14fa68e",3,1
"530",0,1,82,1,6,1,"14fa68e",4,1
"630",1,1,85,6,6,1,"14fa68e",5,1
"710",1,1,414,5,5,1,"14fa68e",6,1
"89",0,1,592,4,1,1,"14fa68e",7,1
"99",1,1,503,5,5,1,"14fa68e",8,1
"109",1,1,253,1,1,1,"14fa68e",9,1
"119",0,1,620,1,4,1,"14fa68e",10,1
"129",1,1,417,6,6,1,"14fa68e",11,1
"139",0,1,536,6,1,1,"14fa68e",12,1
"149",1,1,107,4,4,1,"14fa68e",13,1
"159",0,1,780,5,1,1,"14fa68e",14,1
"169",1,1,288,5,5,1,"14fa68e",15,1
"179",1,1,455,4,4,1,"14fa68e",16,1
"189",0,1,358,1,5,1,"14fa68e",17,1
"199",0,1,1729,6,1,1,"14fa68e",18,1
"209",1,1,355,1,1,1,"14fa68e",19,1
"2113",0,1,1829,4,1,1,"14fa68e",20,1
"2211",1,1,530,6,6,1,"14fa68e",21,1
"239",1,1,373,1,1,1,"14fa68e",22,1
"249",1,1,828,6,6,1,"14fa68e",23,1
"259",0,1,599,4,1,1,"14fa68e",24,1
"269",0,1,805,5,1,1,"14fa68e",25,1
"279",0,1,465,6,1,1,"14fa68e",26,1
"289",1,1,451,5,5,1,"14fa68e",27,1
"299",1,1,97,4,4,1,"14fa68e",28,1
"309",0,1,650,6,1,1,"14fa68e",29,1
"3113",1,1,280,1,1,1,"14fa68e",30,1
"3211",1,1,247,6,6,1,"14fa68e",31,1
"339",1,1,415,4,4,1,"14fa68e",32,1
"349",1,1,241,5,5,1,"14fa68e",33,1
"359",0,1,122,5,1,1,"14fa68e",34,1
"369",0,1,127,4,1,1,"14fa68e",35,1
"379",1,1,331,6,6,1,"14fa68e",36,1
"389",0,1,912,4,1,1,"14fa68e",37,1
"399",1,1,136,5,5,1,"14fa68e",38,1
"409",0,1,815,6,1,1,"14fa68e",39,1
"4113",1,1,215,1,1,1,"14fa68e",40,1
"4211",0,1,617,5,1,1,"14fa68e",41,1
"439",1,1,397,4,4,1,"14fa68e",42,1
"449",1,1,892,6,6,1,"14fa68e",43,1
"459",1,1,785,4,4,1,"14fa68e",44,1
"469",0,1,781,1,4,1,"14fa68e",45,1
"479",0,1,640,1,6,1,"14fa68e",46,1
"489",1,1,886,5,5,1,"14fa68e",47,1
"499",0,1,475,1,5,1,"14fa68e",48,1
"509",1,1,1320,1,1,1,"14fa68e",49,1
"5113",0,1,811,1,4,1,"14fa68e",50,1
"5211",1,1,766,6,6,1,"14fa68e",51,1
"539",0,1,598,1,6,1,"14fa68e",52,1
"549",1,1,926,5,5,1,"14fa68e",53,1
"559",1,1,960,1,1,1,"14fa68e",54,1
"569",1,1,1285,4,4,1,"14fa68e",55,1
"579",0,1,809,5,1,1,"14fa68e",56,1
"589",0,1,1465,5,1,1,"14fa68e",57,1
"599",0,1,757,1,4,1,"14fa68e",58,1
"609",1,1,1919,6,6,1,"14fa68e",59,1
"6113",0,1,1696,6,1,1,"14fa68e",60,1
"6211",1,1,1987,5,5,1,"14fa68e",61,1
"639",1,1,1996,1,1,1,"14fa68e",62,1
"649",1,1,440,4,4,1,"14fa68e",63,1
"659",0,1,623,1,4,1,"14fa68e",64,1
"669",0,1,1181,1,5,1,"14fa68e",65,1
"679",0,1,1412,6,1,1,"14fa68e",66,1
"689",1,1,1731,6,6,1,"14fa68e",67,1
"699",1,1,785,5,5,1,"14fa68e",68,1
"709",1,1,993,1,1,1,"14fa68e",69,1
"719",1,1,1976,4,4,1,"14fa68e",70,1
"240",1,1,769,1,1,3,"1f75812",1,1
"340",1,0,460,1,5,3,"1f75812",2,1
"440",1,1,280,6,6,3,"1f75812",3,1
"540",0,0,316,4,4,3,"1f75812",4,1
"640",1,1,326,5,5,3,"1f75812",5,1
"720",1,0,562,6,1,3,"1f75812",6,1
"810",1,0,445,4,1,3,"1f75812",7,1
"910",1,0,541,5,1,3,"1f75812",8,1
"1010",0,1,484,1,6,3,"1f75812",9,1
"1110",1,1,411,6,6,3,"1f75812",10,1
"1210",1,0,283,4,1,3,"1f75812",11,1
"1310",0,0,445,4,4,3,"1f75812",12,1
"1410",1,1,515,1,1,3,"1f75812",13,1
"1510",0,0,672,5,5,3,"1f75812",14,1
"1610",1,1,393,6,6,3,"1f75812",15,1
"1710",1,0,267,1,6,3,"1f75812",16,1
"1810",0,0,474,4,4,3,"1f75812",17,1
"1910",1,0,222,1,5,3,"1f75812",18,1
"2010",1,0,275,1,4,3,"1f75812",19,1
"2114",0,0,457,1,1,3,"1f75812",20,1
"2212",1,1,327,5,5,3,"1f75812",21,1
"2310",1,1,371,5,5,3,"1f75812",22,1
"2410",1,0,286,5,1,3,"1f75812",23,1
"2510",0,0,513,1,1,3,"1f75812",24,1
"2610",0,0,463,6,6,3,"1f75812",25,1
"2710",0,1,411,1,6,3,"1f75812",26,1
"2810",0,1,538,4,1,3,"1f75812",27,1
"2910",1,1,462,4,4,3,"1f75812",28,1
"3010",1,1,568,4,4,3,"1f75812",29,1
"3114",1,1,292,6,6,3,"1f75812",30,1
"3212",1,0,401,6,1,3,"1f75812",31,1
"3310",1,1,7,5,5,3,"1f75812",32,1
"3410",1,1,354,1,1,3,"1f75812",33,1
"3510",0,1,437,1,4,3,"1f75812",34,1
"3610",0,1,422,1,5,3,"1f75812",35,1
"3710",1,1,259,1,1,3,"1f75812",36,1
"3810",1,1,406,4,4,3,"1f75812",37,1
"3910",0,1,456,1,6,3,"1f75812",38,1
"4010",0,1,311,1,4,3,"1f75812",39,1
"4114",0,1,343,1,5,3,"1f75812",40,1
"4212",1,1,494,6,6,3,"1f75812",41,1
"4310",1,1,553,5,5,3,"1f75812",42,1
"4410",0,1,424,1,4,3,"1f75812",43,1
"4510",1,1,467,5,5,3,"1f75812",44,1
"4610",0,1,480,6,1,3,"1f75812",45,1
"4710",0,0,324,1,1,3,"1f75812",46,1
"4810",1,1,272,4,4,3,"1f75812",47,1
"4910",1,1,323,6,6,3,"1f75812",48,1
"5010",0,1,475,1,5,3,"1f75812",49,1
"5114",1,1,274,5,5,3,"1f75812",50,1
"5212",1,1,396,1,1,3,"1f75812",51,1
"5310",0,1,248,1,5,3,"1f75812",52,1
"5410",1,1,477,6,6,3,"1f75812",53,1
"5510",1,1,406,4,4,3,"1f75812",54,1
"5610",0,1,426,1,6,3,"1f75812",55,1
"5710",0,1,447,1,4,3,"1f75812",56,1
"5810",1,1,397,4,4,3,"1f75812",57,1
"5910",0,1,225,1,6,3,"1f75812",58,1
"6010",1,0,255,4,1,3,"1f75812",59,1
"6114",1,1,283,5,5,3,"1f75812",60,1
"6212",1,1,299,6,6,3,"1f75812",61,1
"6310",1,1,406,1,1,3,"1f75812",62,1
"6410",0,1,307,1,5,3,"1f75812",63,1
"6510",1,1,457,4,4,3,"1f75812",64,1
"6610",1,1,468,5,5,3,"1f75812",65,1
"6710",0,1,410,4,1,3,"1f75812",66,1
"6810",1,1,313,1,1,3,"1f75812",67,1
"6910",0,1,586,5,1,3,"1f75812",68,1
"7010",1,1,187,6,6,3,"1f75812",69,1
"7110",0,1,376,1,6,3,"1f75812",70,1
"250",1,0,463,5,1,0,"151240e",1,1
"350",1,1,441,4,4,0,"151240e",2,1
"450",1,1,379,6,6,0,"151240e",3,1
"550",1,1,345,5,5,0,"151240e",4,1
"650",0,1,492,1,6,0,"151240e",5,1
"721",0,1,429,4,1,0,"151240e",6,1
"811",1,1,291,1,1,0,"151240e",7,1
"911",1,1,523,6,6,0,"151240e",8,1
"1011",0,1,370,5,1,0,"151240e",9,1
"1111",1,1,374,5,5,0,"151240e",10,1
"1211",1,1,312,1,1,0,"151240e",11,1
"1311",0,1,339,6,1,0,"151240e",12,1
"1411",1,1,370,4,4,0,"151240e",13,1
"1511",0,1,431,1,4,0,"151240e",14,1
"1611",0,1,497,4,1,0,"151240e",15,1
"1711",1,1,335,4,4,0,"151240e",16,1
"1811",1,1,309,1,1,0,"151240e",17,1
"1911",1,1,278,6,6,0,"151240e",18,1
"2011",0,1,323,5,1,0,"151240e",19,1
"2115",0,1,317,1,6,0,"151240e",20,1
"2213",1,1,336,5,5,0,"151240e",21,1
"2311",0,1,338,6,1,0,"151240e",22,1
"2411",1,1,318,4,4,0,"151240e",23,1
"2511",0,1,283,5,1,0,"151240e",24,1
"2611",1,1,448,6,6,0,"151240e",25,1
"2711",1,1,326,5,5,0,"151240e",26,1
"2811",1,1,445,1,1,0,"151240e",27,1
"2911",0,1,618,1,4,0,"151240e",28,1
"3011",0,1,328,1,6,0,"151240e",29,1
"3115",1,1,330,6,6,0,"151240e",30,1
"3213",1,1,517,4,4,0,"151240e",31,1
"3311",0,1,365,4,1,0,"151240e",32,1
"3411",1,1,298,1,1,0,"151240e",33,1
"3511",0,1,420,1,5,0,"151240e",34,1
"3611",1,1,366,5,5,0,"151240e",35,1
"3711",0,1,544,5,1,0,"151240e",36,1
"3811",0,0,546,6,6,0,"151240e",37,1
"3911",1,1,332,4,4,0,"151240e",38,1
"4011",1,1,343,1,1,0,"151240e",39,1
"4115",0,1,530,4,1,0,"151240e",40,1
"4213",0,1,406,6,1,0,"151240e",41,1
"4311",1,1,306,5,5,0,"151240e",42,1
"4411",0,1,446,1,6,0,"151240e",43,1
"4511",1,1,392,6,6,0,"151240e",44,1
"4611",0,1,314,1,4,0,"151240e",45,1
"4711",1,1,330,1,1,0,"151240e",46,1
"4811",1,1,297,5,5,0,"151240e",47,1
"4911",0,1,482,1,5,0,"151240e",48,1
"5011",1,1,344,4,4,0,"151240e",49,1
"5115",1,1,338,4,4,0,"151240e",50,1
"5213",0,1,338,4,1,0,"151240e",51,1
"5311",0,1,337,6,1,0,"151240e",52,1
"5411",1,1,291,6,6,0,"151240e",53,1
"5511",0,1,612,5,1,0,"151240e",54,1
"5611",1,1,279,1,1,0,"151240e",55,1
"5711",1,1,245,5,5,0,"151240e",56,1
"5811",0,1,274,4,1,0,"151240e",57,1
"5911",1,1,314,1,1,0,"151240e",58,1
"6011",1,1,286,6,6,0,"151240e",59,1
"6115",1,1,504,5,5,0,"151240e",60,1
"6213",0,1,326,1,6,0,"151240e",61,1
"6311",1,1,279,4,4,0,"151240e",62,1
"6411",0,1,301,1,5,0,"151240e",63,1
"6511",1,1,309,5,5,0,"151240e",64,1
"6611",0,1,315,6,1,0,"151240e",65,1
"6711",0,1,381,4,1,0,"151240e",66,1
"6811",1,1,318,4,4,0,"151240e",67,1
"6911",1,1,309,1,1,0,"151240e",68,1
"7011",1,1,1566,6,6,0,"151240e",69,1
"7111",0,1,581,1,5,0,"151240e",70,1
"260",1,1,596,1,1,2,"1f758f0",1,1
"360",1,1,388,5,5,2,"1f758f0",2,1
"460",1,0,341,4,1,2,"1f758f0",3,1
"560",1,1,336,6,6,2,"1f758f0",4,1
"660",0,1,295,1,5,2,"1f758f0",5,1
"722",1,1,317,4,4,2,"1f758f0",6,1
"812",0,1,341,6,1,2,"1f758f0",7,1
"912",1,1,431,1,1,2,"1f758f0",8,1
"1012",1,1,312,6,6,2,"1f758f0",9,1
"1112",0,1,369,1,4,2,"1f758f0",10,1
"1212",1,1,377,5,5,2,"1f758f0",11,1
"1312",0,1,424,5,1,2,"1f758f0",12,1
"1412",0,1,302,1,6,2,"1f758f0",13,1
"1512",1,1,472,4,4,2,"1f758f0",14,1
"1612",0,1,376,1,6,2,"1f758f0",15,1
"1712",1,1,511,4,4,2,"1f758f0",16,1
"1812",1,1,384,5,5,2,"1f758f0",17,1
"1912",1,1,1313,1,1,2,"1f758f0",18,1
"2012",0,1,1088,1,5,2,"1f758f0",19,1
"2116",1,1,440,6,6,2,"1f758f0",20,1
"2214",0,1,81,4,1,2,"1f758f0",21,1
"2312",1,1,336,5,5,2,"1f758f0",22,1
"2412",1,1,1283,4,4,2,"1f758f0",23,1
"2512",1,1,291,6,6,2,"1f758f0",24,1
"2612",0,1,626,1,4,2,"1f758f0",25,1
"2712",0,1,282,5,1,2,"1f758f0",26,1
"2812",1,1,355,1,1,2,"1f758f0",27,1
"2912",0,1,642,6,1,2,"1f758f0",28,1
"3012",0,1,571,1,5,2,"1f758f0",29,1
"3116",1,1,248,4,4,2,"1f758f0",30,1
"3214",1,1,351,1,1,2,"1f758f0",31,1
"3312",0,1,898,6,1,2,"1f758f0",32,1
"3412",0,1,714,1,4,2,"1f758f0",33,1
"3512",1,1,402,5,5,2,"1f758f0",34,1
"3612",1,1,530,6,6,2,"1f758f0",35,1
"3712",1,1,289,6,6,2,"1f758f0",36,1
"3812",1,1,250,5,5,2,"1f758f0",37,1
"3912",0,1,348,1,6,2,"1f758f0",38,1
"4012",1,1,374,4,4,2,"1f758f0",39,1
"4116",0,1,294,1,4,2,"1f758f0",40,1
"4214",-1,-1,0,1,1,2,"1f758f0",41,1
"4312",0,1,346,1,5,2,"1f758f0",42,1
"4412",0,1,264,6,1,2,"1f758f0",43,1
"4512",1,1,392,5,5,2,"1f758f0",44,1
"4612",1,1,331,6,6,2,"1f758f0",45,1
"4712",1,1,491,4,4,2,"1f758f0",46,1
"4812",0,1,24,1,4,2,"1f758f0",47,1
"4912",1,1,298,1,1,2,"1f758f0",48,1
"5012",0,1,364,5,1,2,"1f758f0",49,1
"5116",1,1,53,1,1,2,"1f758f0",50,1
"5214",0,1,270,1,6,2,"1f758f0",51,1
"5312",0,0,587,6,6,2,"1f758f0",52,1
"5412",1,1,278,4,4,2,"1f758f0",53,1
"5512",0,1,243,1,4,2,"1f758f0",54,1
"5612",1,1,246,5,5,2,"1f758f0",55,1
"5712",0,1,295,1,5,2,"1f758f0",56,1
"5812",0,1,317,6,1,2,"1f758f0",57,1
"5912",1,1,292,5,5,2,"1f758f0",58,1
"6012",1,1,262,6,6,2,"1f758f0",59,1
"6116",0,1,313,5,1,2,"1f758f0",60,1
"6214",0,1,270,1,4,2,"1f758f0",61,1
"6312",1,1,271,4,4,2,"1f758f0",62,1
"6412",1,1,311,1,1,2,"1f758f0",63,1
"6512",0,0,402,4,4,2,"1f758f0",64,1
"6612",1,1,403,1,1,2,"1f758f0",65,1
"6712",0,1,250,4,1,2,"1f758f0",66,1
"6812",0,1,244,1,5,2,"1f758f0",67,1
"6912",1,1,105,5,5,2,"1f758f0",68,1
"7012",0,1,588,1,6,2,"1f758f0",69,1
"7112",1,1,1003,6,6,2,"1f758f0",70,1
"270",1,1,414,1,1,1,"198e48e",1,1
"370",0,0,452,5,5,1,"198e48e",2,1
"470",0,1,343,1,4,1,"198e48e",3,1
"570",1,1,333,6,6,1,"198e48e",4,1
"670",0,1,662,1,6,1,"198e48e",5,1
"723",0,1,403,1,5,1,"198e48e",6,1
"813",1,1,319,4,4,1,"198e48e",7,1
"913",0,1,324,1,5,1,"198e48e",8,1
"1013",0,1,339,1,4,1,"198e48e",9,1
"1113",0,0,609,4,4,1,"198e48e",10,1
"1213",0,1,422,6,1,1,"198e48e",11,1
"1313",1,1,568,1,1,1,"198e48e",12,1
"1413",1,1,328,6,6,1,"198e48e",13,1
"1513",1,1,952,5,5,1,"198e48e",14,1
"1613",1,1,425,4,4,1,"198e48e",15,1
"1713",0,1,442,1,6,1,"198e48e",16,1
"1813",1,1,397,6,6,1,"198e48e",17,1
"1913",0,0,361,1,1,1,"198e48e",18,1
"2013",1,0,319,4,1,1,"198e48e",19,1
"2117",0,1,474,1,5,1,"198e48e",20,1
"2215",0,0,364,5,5,1,"198e48e",21,1
"2313",1,0,310,4,1,1,"198e48e",22,1
"2413",1,1,339,1,1,1,"198e48e",23,1
"2513",0,1,336,1,5,1,"198e48e",24,1
"2613",0,0,475,6,6,1,"198e48e",25,1
"2713",1,1,279,5,5,1,"198e48e",26,1
"2813",1,0,311,6,1,1,"198e48e",27,1
"2913",0,0,368,4,4,1,"198e48e",28,1
"3013",1,1,410,1,1,1,"198e48e",29,1
"3117",1,1,971,6,6,1,"198e48e",30,1
"3215",1,0,516,1,5,1,"198e48e",31,1
"3313",0,1,1130,1,6,1,"198e48e",32,1
"3413",0,0,462,4,4,1,"198e48e",33,1
"3513",1,0,374,4,1,1,"198e48e",34,1
"3613",0,0,602,5,5,1,"198e48e",35,1
"3713",0,0,852,6,6,1,"198e48e",36,1
"3813",0,1,438,5,1,1,"198e48e",37,1
"3913",1,1,674,5,5,1,"198e48e",38,1
"4013",0,1,310,1,6,1,"198e48e",39,1
"4117",1,1,313,1,1,1,"198e48e",40,1
"4215",1,0,307,4,1,1,"198e48e",41,1
"4313",1,1,335,4,4,1,"198e48e",42,1
"4413",1,1,515,4,4,1,"198e48e",43,1
"4513",1,1,338,6,6,1,"198e48e",44,1
"4613",0,0,380,5,5,1,"198e48e",45,1
"4713",0,1,633,6,1,1,"198e48e",46,1
"4813",0,1,458,5,1,1,"198e48e",47,1
"4913",1,0,553,4,1,1,"198e48e",48,1
"5013",0,0,650,1,1,1,"198e48e",49,1
"5117",0,1,303,1,6,1,"198e48e",50,1
"5215",1,1,466,4,4,1,"198e48e",51,1
"5313",0,0,576,1,1,1,"198e48e",52,1
"5413",1,1,1383,6,6,1,"198e48e",53,1
"5513",1,1,559,5,5,1,"198e48e",54,1
"5613",0,1,996,5,1,1,"198e48e",55,1
"5713",0,1,671,4,1,1,"198e48e",56,1
"5813",1,1,375,6,6,1,"198e48e",57,1
"5913",0,1,504,6,1,1,"198e48e",58,1
"6013",0,1,473,4,1,1,"198e48e",59,1
"6117",1,1,621,1,1,1,"198e48e",60,1
"6215",1,1,489,4,4,1,"198e48e",61,1
"6313",1,1,601,5,5,1,"198e48e",62,1
"6413",0,1,412,5,1,1,"198e48e",63,1
"6513",1,1,475,4,4,1,"198e48e",64,1
"6613",1,1,549,5,5,1,"198e48e",65,1
"6713",0,1,522,1,6,1,"198e48e",66,1
"6813",1,1,339,6,6,1,"198e48e",67,1
"6913",0,1,500,1,4,1,"198e48e",68,1
"7013",0,1,769,1,5,1,"198e48e",69,1
"7113",1,1,869,1,1,1,"198e48e",70,1
"280",1,0,775,1,6,1,"1c06873",1,1
"380",1,1,591,1,1,1,"1c06873",2,1
"480",1,0,556,1,5,1,"1c06873",3,1
"580",0,1,541,4,1,1,"1c06873",4,1
"680",0,0,562,6,6,1,"1c06873",5,1
"724",1,1,792,4,4,1,"1c06873",6,1
"814",1,1,447,5,5,1,"1c06873",7,1
"914",0,1,422,4,1,1,"1c06873",8,1
"1014",0,1,469,1,6,1,"1c06873",9,1
"1114",1,1,515,1,1,1,"1c06873",10,1
"1214",0,0,391,5,5,1,"1c06873",11,1
"1314",1,1,587,6,6,1,"1c06873",12,1
"1414",0,1,494,5,1,1,"1c06873",13,1
"1514",1,1,1035,4,4,1,"1c06873",14,1
"1614",0,0,440,4,4,1,"1c06873",15,1
"1714",1,0,501,4,1,1,"1c06873",16,1
"1814",0,1,469,1,5,1,"1c06873",17,1
"1914",1,1,381,1,1,1,"1c06873",18,1
"2014",1,1,709,6,6,1,"1c06873",19,1
"2118",0,0,412,5,5,1,"1c06873",20,1
"2216",0,1,468,1,6,1,"1c06873",21,1
"2314",0,1,551,1,6,1,"1c06873",22,1
"2414",1,1,558,4,4,1,"1c06873",23,1
"2514",1,1,525,5,5,1,"1c06873",24,1
"2614",0,1,410,1,5,1,"1c06873",25,1
"2714",1,1,477,6,6,1,"1c06873",26,1
"2814",0,1,705,1,4,1,"1c06873",27,1
"2914",1,1,606,1,1,1,"1c06873",28,1
"3014",1,1,432,5,5,1,"1c06873",29,1
"3118",0,1,704,4,1,1,"1c06873",30,1
"3216",1,1,532,6,6,1,"1c06873",31,1
"3314",0,1,456,6,1,1,"1c06873",32,1
"3414",1,1,459,4,4,1,"1c06873",33,1
"3514",0,1,417,1,5,1,"1c06873",34,1
"3614",1,1,408,1,1,1,"1c06873",35,1
"3714",0,1,422,5,1,1,"1c06873",36,1
"3814",0,1,391,1,4,1,"1c06873",37,1
"3914",1,1,815,1,1,1,"1c06873",38,1
"4014",0,1,406,1,6,1,"1c06873",39,1
"4118",1,1,912,4,4,1,"1c06873",40,1
"4216",1,1,665,5,5,1,"1c06873",41,1
"4314",1,1,464,6,6,1,"1c06873",42,1
"4414",0,1,629,6,1,1,"1c06873",43,1
"4514",1,1,666,1,1,1,"1c06873",44,1
"4614",1,1,594,5,5,1,"1c06873",45,1
"4714",0,1,350,5,1,1,"1c06873",46,1
"4814",1,1,465,4,4,1,"1c06873",47,1
"4914",0,1,402,1,4,1,"1c06873",48,1
"5014",1,1,372,6,6,1,"1c06873",49,1
"5118",0,1,608,1,6,1,"1c06873",50,1
"5216",0,1,580,1,5,1,"1c06873",51,1
"5314",1,1,674,6,6,1,"1c06873",52,1
"5414",1,1,619,1,1,1,"1c06873",53,1
"5514",1,1,507,5,5,1,"1c06873",54,1
"5614",0,1,636,4,1,1,"1c06873",55,1
"5714",1,1,687,4,4,1,"1c06873",56,1
"5814",1,1,496,4,4,1,"1c06873",57,1
"5914",0,1,682,5,1,1,"1c06873",58,1
"6014",1,1,798,5,5,1,"1c06873",59,1
"6118",1,1,599,1,1,1,"1c06873",60,1
"6216",1,0,495,4,1,1,"1c06873",61,1
"6314",0,1,446,6,1,1,"1c06873",62,1
"6414",1,1,549,6,6,1,"1c06873",63,1
"6514",1,1,528,5,5,1,"1c06873",64,1
"6614",1,1,463,4,4,1,"1c06873",65,1
"6714",1,1,674,1,1,1,"1c06873",66,1
"6814",0,1,571,5,1,1,"1c06873",67,1
"6914",1,1,767,6,6,1,"1c06873",68,1
"7014",0,1,565,1,4,1,"1c06873",69,1
"7114",0,1,543,6,1,1,"1c06873",70,1
"290",1,0,956,4,1,0,"1b9b5cf",1,1
"390",1,1,1100,6,6,0,"1b9b5cf",2,1
"490",1,0,582,5,1,0,"1b9b5cf",3,1
"590",1,1,491,1,1,0,"1b9b5cf",4,1
"690",0,1,932,1,6,0,"1b9b5cf",5,1
"725",1,1,393,4,4,0,"1b9b5cf",6,1
"815",1,1,776,5,5,0,"1b9b5cf",7,1
"915",0,0,417,5,5,0,"1b9b5cf",8,1
"1015",1,0,267,1,4,0,"1b9b5cf",9,1
"1115",1,1,456,1,1,0,"1b9b5cf",10,1
"1215",0,1,545,5,1,0,"1b9b5cf",11,1
"1315",0,0,567,6,6,0,"1b9b5cf",12,1
"1415",1,1,275,4,4,0,"1b9b5cf",13,1
"1515",0,1,540,6,1,0,"1b9b5cf",14,1
"1615",0,0,403,4,4,0,"1b9b5cf",15,1
"1715",0,1,313,6,1,0,"1b9b5cf",16,1
"1815",1,1,254,6,6,0,"1b9b5cf",17,1
"1915",0,0,266,1,1,0,"1b9b5cf",18,1
"2015",0,0,230,5,5,0,"1b9b5cf",19,1
"2119",0,1,280,1,5,0,"1b9b5cf",20,1
"2217",0,1,356,4,1,0,"1b9b5cf",21,1
"2315",1,1,292,1,1,0,"1b9b5cf",22,1
"2415",1,1,182,6,6,0,"1b9b5cf",23,1
"2515",0,1,412,4,1,0,"1b9b5cf",24,1
"2615",1,1,350,4,4,0,"1b9b5cf",25,1
"2715",0,1,320,1,5,0,"1b9b5cf",26,1
"2815",0,0,351,5,5,0,"1b9b5cf",27,1
"2915",0,1,423,6,1,0,"1b9b5cf",28,1
"3015",0,1,378,1,5,0,"1b9b5cf",29,1
"3119",0,1,454,1,4,0,"1b9b5cf",30,1
"3217",1,1,297,4,4,0,"1b9b5cf",31,1
"3315",1,1,945,6,6,0,"1b9b5cf",32,1
"3415",0,1,325,1,6,0,"1b9b5cf",33,1
"3515",1,1,510,5,5,0,"1b9b5cf",34,1
"3615",1,1,346,1,1,0,"1b9b5cf",35,1
"3715",1,1,400,5,5,0,"1b9b5cf",36,1
"3815",1,1,452,6,6,0,"1b9b5cf",37,1
"3915",0,1,391,6,1,0,"1b9b5cf",38,1
"4015",1,0,253,1,5,0,"1b9b5cf",39,1
"4119",0,1,450,1,4,0,"1b9b5cf",40,1
"4217",1,1,283,1,1,0,"1b9b5cf",41,1
"4315",1,1,340,4,4,0,"1b9b5cf",42,1
"4415",0,0,187,6,6,0,"1b9b5cf",43,1
"4515",0,1,932,4,1,0,"1b9b5cf",44,1
"4615",0,1,567,1,5,0,"1b9b5cf",45,1
"4715",0,0,278,1,1,0,"1b9b5cf",46,1
"4815",1,1,1110,5,5,0,"1b9b5cf",47,1
"4915",0,1,1808,6,1,0,"1b9b5cf",48,1
"5015",0,0,459,4,4,0,"1b9b5cf",49,1
"5119",1,1,369,4,4,0,"1b9b5cf",50,1
"5217",0,0,363,5,5,0,"1b9b5cf",51,1
"5315",0,1,721,1,5,0,"1b9b5cf",52,1
"5415",0,0,560,6,6,0,"1b9b5cf",53,1
"5515",1,0,715,4,1,0,"1b9b5cf",54,1
"5615",0,1,789,6,1,0,"1b9b5cf",55,1
"5715",1,1,502,1,1,0,"1b9b5cf",56,1
"5815",0,0,302,6,6,0,"1b9b5cf",57,1
"5915",1,0,500,1,4,0,"1b9b5cf",58,1
"6015",0,0,970,1,1,0,"1b9b5cf",59,1
"6119",1,0,1965,5,1,0,"1b9b5cf",60,1
"6217",0,0,1813,5,5,0,"1b9b5cf",61,1
"6315",1,0,1121,1,6,0,"1b9b5cf",62,1
"6415",1,1,120,4,4,0,"1b9b5cf",63,1
"6515",1,0,876,1,6,0,"1b9b5cf",64,1
"6615",0,1,800,5,1,0,"1b9b5cf",65,1
"6715",0,1,1238,1,4,0,"1b9b5cf",66,1
"6815",1,1,458,4,4,0,"1b9b5cf",67,1
"6915",1,1,1868,1,1,0,"1b9b5cf",68,1
"7015",1,1,171,6,6,0,"1b9b5cf",69,1
"7115",1,1,1082,5,5,0,"1b9b5cf",70,1
"2100",1,1,401,1,1,0,"11033a7",1,1
"3100",0,0,175,6,6,0,"11033a7",2,1
"4100",1,1,212,4,4,0,"11033a7",3,1
"5100",1,0,276,1,6,0,"11033a7",4,1
"6100",1,0,219,4,1,0,"11033a7",5,1
"726",1,1,190,5,5,0,"11033a7",6,1
"816",0,1,80,1,5,0,"11033a7",7,1
"916",0,1,230,1,4,0,"11033a7",8,1
"1016",1,1,234,6,6,0,"11033a7",9,1
"1116",1,1,170,5,5,0,"11033a7",10,1
"1216",1,1,114,1,1,0,"11033a7",11,1
"1316",0,1,112,6,1,0,"11033a7",12,1
"1416",0,1,212,5,1,0,"11033a7",13,1
"1516",1,1,183,4,4,0,"11033a7",14,1
"1616",0,1,228,5,1,0,"11033a7",15,1
"1716",0,1,179,1,4,0,"11033a7",16,1
"1816",0,1,230,1,6,0,"11033a7",17,1
"1916",1,1,219,1,1,0,"11033a7",18,1
"2016",1,1,186,5,5,0,"11033a7",19,1
"2120",1,1,154,6,6,0,"11033a7",20,1
"2218",1,1,193,4,4,0,"11033a7",21,1
"2316",1,1,153,1,1,0,"11033a7",22,1
"2416",0,1,0,1,6,0,"11033a7",23,1
"2516",1,1,49,5,5,0,"11033a7",24,1
"2616",1,1,201,4,4,0,"11033a7",25,1
"2716",1,1,234,6,6,0,"11033a7",26,1
"2816",0,1,153,5,1,0,"11033a7",27,1
"2916",0,1,167,4,1,0,"11033a7",28,1
"3016",1,1,104,5,5,0,"11033a7",29,1
"3120",0,1,364,1,5,0,"11033a7",30,1
"3218",1,1,87,1,1,0,"11033a7",31,1
"3316",0,1,167,1,6,0,"11033a7",32,1
"3416",1,1,187,6,6,0,"11033a7",33,1
"3516",1,0,161,4,1,0,"11033a7",34,1
"3616",1,1,158,4,4,0,"11033a7",35,1
"3716",1,1,131,5,5,0,"11033a7",36,1
"3816",1,1,100,1,1,0,"11033a7",37,1
"3916",1,1,162,4,4,0,"11033a7",38,1
"4016",0,1,58,1,4,0,"11033a7",39,1
"4120",0,1,69,1,5,0,"11033a7",40,1
"4218",1,1,250,6,6,0,"11033a7",41,1
"4316",0,1,173,1,6,0,"11033a7",42,1
"4416",1,1,150,5,5,0,"11033a7",43,1
"4516",0,1,190,1,5,0,"11033a7",44,1
"4616",0,1,84,4,1,0,"11033a7",45,1
"4716",1,1,170,6,6,0,"11033a7",46,1
"4816",0,1,108,1,6,0,"11033a7",47,1
"4916",1,1,45,4,4,0,"11033a7",48,1
"5016",1,1,129,1,1,0,"11033a7",49,1
"5120",0,1,193,1,4,0,"11033a7",50,1
"5218",1,1,91,5,5,0,"11033a7",51,1
"5316",0,1,48,5,1,0,"11033a7",52,1
"5416",1,1,536,1,1,0,"11033a7",53,1
"5516",1,1,58,4,4,0,"11033a7",54,1
"5616",0,1,268,1,6,0,"11033a7",55,1
"5716",1,1,316,6,6,0,"11033a7",56,1
"5816",1,1,333,4,4,0,"11033a7",57,1
"5916",1,1,193,5,5,0,"11033a7",58,1
"6016",1,1,228,1,1,0,"11033a7",59,1
"6120",0,1,147,1,5,0,"11033a7",60,1
"6218",0,1,192,1,4,0,"11033a7",61,1
"6316",0,1,8,6,1,0,"11033a7",62,1
"6416",1,1,192,6,6,0,"11033a7",63,1
"6516",1,1,256,6,6,0,"11033a7",64,1
"6616",0,1,93,5,1,0,"11033a7",65,1
"6716",1,1,249,4,4,0,"11033a7",66,1
"6816",1,1,166,1,1,0,"11033a7",67,1
"6916",0,1,306,6,1,0,"11033a7",68,1
"7016",0,1,119,1,4,0,"11033a7",69,1
"7116",1,1,267,5,5,0,"11033a7",70,1
"2101",1,0,557,1,5,2,"10593eb",1,1
"3101",1,1,416,1,1,2,"10593eb",2,1
"4101",0,0,435,6,6,2,"10593eb",3,1
"5101",0,1,366,6,1,2,"10593eb",4,1
"6101",0,1,451,1,4,2,"10593eb",5,1
"727",0,0,352,4,4,2,"10593eb",6,1
"817",0,0,358,5,5,2,"10593eb",7,1
"917",0,0,394,4,4,2,"10593eb",8,1
"1017",0,0,383,6,6,2,"10593eb",9,1
"1117",0,1,380,1,6,2,"10593eb",10,1
"1217",0,1,476,1,4,2,"10593eb",11,1
"1317",0,1,656,5,1,2,"10593eb",12,1
"1417",0,0,1625,5,5,2,"10593eb",13,1
"1517",0,0,342,1,1,2,"10593eb",14,1
"1617",0,1,446,6,1,2,"10593eb",15,1
"1717",1,1,439,5,5,2,"10593eb",16,1
"1817",0,1,401,1,4,2,"10593eb",17,1
"1917",1,1,341,4,4,2,"10593eb",18,1
"2017",0,1,339,1,5,2,"10593eb",19,1
"2121",1,1,434,6,6,2,"10593eb",20,1
"2219",0,0,358,1,1,2,"10593eb",21,1
"2317",1,1,386,4,4,2,"10593eb",22,1
"2417",1,1,435,6,6,2,"10593eb",23,1
"2517",0,1,315,5,1,2,"10593eb",24,1
"2617",0,1,509,1,6,2,"10593eb",25,1
"2717",1,1,453,5,5,2,"10593eb",26,1
"2817",1,1,388,1,1,2,"10593eb",27,1
"2917",1,0,367,1,4,2,"10593eb",28,1
"3017",1,1,570,1,1,2,"10593eb",29,1
"3121",0,1,433,6,1,2,"10593eb",30,1
"3219",0,1,384,1,4,2,"10593eb",31,1
"3317",1,1,450,4,4,2,"10593eb",32,1
"3417",1,1,417,6,6,2,"10593eb",33,1
"3517",1,1,1061,5,5,2,"10593eb",34,1
"3617",1,0,411,1,5,2,"10593eb",35,1
"3717",0,1,380,1,5,2,"10593eb",36,1
"3817",0,1,607,4,1,2,"10593eb",37,1
"3917",0,1,351,6,1,2,"10593eb",38,1
"4017",1,1,433,1,1,2,"10593eb",39,1
"4121",0,0,298,5,5,2,"10593eb",40,1
"4219",1,1,383,4,4,2,"10593eb",41,1
"4317",1,1,394,6,6,2,"10593eb",42,1
"4417",0,1,355,6,1,2,"10593eb",43,1
"4517",1,1,369,5,5,2,"10593eb",44,1
"4617",0,1,501,1,5,2,"10593eb",45,1
"4717",0,1,384,1,4,2,"10593eb",46,1
"4817",1,1,438,4,4,2,"10593eb",47,1
"4917",1,1,496,6,6,2,"10593eb",48,1
"5017",1,1,493,1,1,2,"10593eb",49,1
"5121",1,1,399,5,5,2,"10593eb",50,1
"5219",0,0,375,1,1,2,"10593eb",51,1
"5317",0,1,345,5,1,2,"10593eb",52,1
"5417",0,1,472,6,1,2,"10593eb",53,1
"5517",0,1,361,1,4,2,"10593eb",54,1
"5617",1,1,411,6,6,2,"10593eb",55,1
"5717",1,1,308,4,4,2,"10593eb",56,1
"5817",1,1,320,4,4,2,"10593eb",57,1
"5917",1,1,396,5,5,2,"10593eb",58,1
"6017",0,1,397,4,1,2,"10593eb",59,1
"6121",0,1,439,6,1,2,"10593eb",60,1
"6219",0,1,390,5,1,2,"10593eb",61,1
"6317",1,1,374,6,6,2,"10593eb",62,1
"6417",0,0,345,1,1,2,"10593eb",63,1
"6517",1,1,368,5,5,2,"10593eb",64,1
"6617",0,1,340,1,5,2,"10593eb",65,1
"6717",0,1,459,1,4,2,"10593eb",66,1
"6817",1,1,367,4,4,2,"10593eb",67,1
"6917",1,1,555,6,6,2,"10593eb",68,1
"7017",0,1,550,6,1,2,"10593eb",69,1
"7117",1,1,501,1,1,2,"10593eb",70,1
"2102",1,0,1749,6,1,2,"1c744db",1,1
"3102",1,0,613,1,4,2,"1c744db",2,1
"4102",0,0,375,5,5,2,"1c744db",3,1
"5102",1,1,619,1,1,2,"1c744db",4,1
"6102",1,1,476,6,6,2,"1c744db",5,1
"728",1,0,533,1,5,2,"1c744db",6,1
"818",1,1,676,4,4,2,"1c744db",7,1
"918",0,1,468,5,1,2,"1c744db",8,1
"1018",0,0,649,6,6,2,"1c744db",9,1
"1118",1,0,431,1,4,2,"1c744db",10,1
"1218",1,1,637,5,5,2,"1c744db",11,1
"1318",1,1,394,4,4,2,"1c744db",12,1
"1418",0,0,454,1,1,2,"1c744db",13,1
"1518",1,0,585,6,1,2,"1c744db",14,1
"1618",0,0,408,5,5,2,"1c744db",15,1
"1718",1,1,595,4,4,2,"1c744db",16,1
"1818",1,0,526,4,1,2,"1c744db",17,1
"1918",0,1,558,1,5,2,"1c744db",18,1
"2018",0,0,368,6,6,2,"1c744db",19,1
"2122",1,0,532,1,6,2,"1c744db",20,1
"2220",1,1,626,1,1,2,"1c744db",21,1
"2318",1,0,500,1,6,2,"1c744db",22,1
"2418",0,1,383,1,5,2,"1c744db",23,1
"2518",0,1,914,1,4,2,"1c744db",24,1
"2618",1,1,499,6,6,2,"1c744db",25,1
"2718",1,1,647,4,4,2,"1c744db",26,1
"2818",1,1,422,1,1,2,"1c744db",27,1
"2918",0,0,526,5,5,2,"1c744db",28,1
"3018",1,0,415,1,4,2,"1c744db",29,1
"3122",1,0,412,1,5,2,"1c744db",30,1
"3220",1,0,653,1,6,2,"1c744db",31,1
"3318",1,1,475,6,6,2,"1c744db",32,1
"3418",0,0,448,1,1,2,"1c744db",33,1
"3518",1,1,756,5,5,2,"1c744db",34,1
"3618",0,0,718,4,4,2,"1c744db",35,1
"3718",1,1,1389,5,5,2,"1c744db",36,1
"3818",0,1,668,1,6,2,"1c744db",37,1
"3918",1,1,507,6,6,2,"1c744db",38,1
"4018",0,1,976,1,4,2,"1c744db",39,1
"4122",0,1,433,1,5,2,"1c744db",40,1
"4220",1,1,442,4,4,2,"1c744db",41,1
"4318",1,1,530,1,1,2,"1c744db",42,1
"4418",1,1,376,1,1,2,"1c744db",43,1
"4518",0,1,502,4,1,2,"1c744db",44,1
"4618",0,1,898,5,1,2,"1c744db",45,1
"4718",1,1,944,5,5,2,"1c744db",46,1
"4818",1,1,430,4,4,2,"1c744db",47,1
"4918",1,1,444,6,6,2,"1c744db",48,1
"5018",0,1,487,1,6,2,"1c744db",49,1
"5122",0,1,529,1,5,2,"1c744db",50,1
"5220",1,1,582,5,5,2,"1c744db",51,1
"5318",1,1,483,6,6,2,"1c744db",52,1
"5418",0,1,940,4,1,2,"1c744db",53,1
"5518",1,1,922,4,4,2,"1c744db",54,1
"5618",1,1,514,1,1,2,"1c744db",55,1
"5718",0,1,396,6,1,2,"1c744db",56,1
"5818",1,1,472,1,1,2,"1c744db",57,1
"5918",1,1,440,4,4,2,"1c744db",58,1
"6018",-1,-1,0,5,1,2,"1c744db",59,1
"6122",0,1,487,6,1,2,"1c744db",60,1
"6220",1,1,1219,5,5,2,"1c744db",61,1
"6318",0,1,422,1,4,2,"1c744db",62,1
"6418",1,1,498,6,6,2,"1c744db",63,1
"6518",0,1,1703,5,1,2,"1c744db",64,1
"6618",1,1,798,4,4,2,"1c744db",65,1
"6718",1,1,550,6,6,2,"1c744db",66,1
"6818",1,1,486,5,5,2,"1c744db",67,1
"6918",1,1,359,1,1,2,"1c744db",68,1
"7018",0,1,380,6,1,2,"1c744db",69,1
"7118",0,1,411,4,1,2,"1c744db",70,1
"2103",1,0,1537,1,6,1,"1aa6a0d",1,1
"3103",1,1,380,4,4,1,"1aa6a0d",2,1
"4103",0,1,443,5,1,1,"1aa6a0d",3,1
"5103",0,1,270,1,4,1,"1aa6a0d",4,1
"6103",0,0,276,1,1,1,"1aa6a0d",5,1
"729",1,1,286,5,5,1,"1aa6a0d",6,1
"819",1,1,377,6,6,1,"1aa6a0d",7,1
"919",0,1,365,5,1,1,"1aa6a0d",8,1
"1019",1,1,177,1,1,1,"1aa6a0d",9,1
"1119",0,1,143,4,1,1,"1aa6a0d",10,1
"1219",0,0,242,5,5,1,"1aa6a0d",11,1
"1319",1,1,64,4,4,1,"1aa6a0d",12,1
"1419",0,1,327,6,1,1,"1aa6a0d",13,1
"1519",-1,-1,0,6,6,1,"1aa6a0d",14,1
"1619",-1,-1,0,6,1,1,"1aa6a0d",15,1
"1719",-1,-1,0,1,1,1,"1aa6a0d",16,1
"1819",-1,-1,0,4,4,1,"1aa6a0d",17,1
"1919",0,1,192,4,1,1,"1aa6a0d",18,1
"2019",0,1,984,1,5,1,"1aa6a0d",19,1
"2123",1,1,174,5,5,1,"1aa6a0d",20,1
"2221",1,1,9,6,6,1,"1aa6a0d",21,1
"2319",1,1,25,1,1,1,"1aa6a0d",22,1
"2419",0,1,93,1,6,1,"1aa6a0d",23,1
"2519",1,1,537,4,4,1,"1aa6a0d",24,1
"2619",1,1,346,5,5,1,"1aa6a0d",25,1
"2719",1,1,238,6,6,1,"1aa6a0d",26,1
"2819",0,1,336,5,1,1,"1aa6a0d",27,1
"2919",0,1,74,1,4,1,"1aa6a0d",28,1
"3019",1,1,558,1,1,1,"1aa6a0d",29,1
"3123",1,1,127,6,6,1,"1aa6a0d",30,1
"3221",1,1,1807,5,5,1,"1aa6a0d",31,1
"3319",0,1,381,4,1,1,"1aa6a0d",32,1
"3419",1,1,336,4,4,1,"1aa6a0d",33,1
"3519",0,1,201,6,1,1,"1aa6a0d",34,1
"3619",0,1,155,1,5,1,"1aa6a0d",35,1
"3719",0,1,697,1,4,1,"1aa6a0d",36,1
"3819",1,1,1853,6,6,1,"1aa6a0d",37,1
"3919",1,1,505,1,1,1,"1aa6a0d",38,1
"4019",0,1,691,1,6,1,"1aa6a0d",39,1
"4123",0,0,531,4,4,1,"1aa6a0d",40,1
"4221",0,1,259,5,1,1,"1aa6a0d",41,1
"4319",1,1,287,5,5,1,"1aa6a0d",42,1
"4419",0,1,23,6,1,1,"1aa6a0d",43,1
"4519",0,1,458,4,1,1,"1aa6a0d",44,1
"4619",1,1,1249,4,4,1,"1aa6a0d",45,1
"4719",1,1,1019,6,6,1,"1aa6a0d",46,1
"4819",0,1,568,1,5,1,"1aa6a0d",47,1
"4919",1,1,1979,1,1,1,"1aa6a0d",48,1
"5019",1,1,1153,5,5,1,"1aa6a0d",49,1
"5123",1,1,299,1,1,1,"1aa6a0d",50,1
"5221",1,1,46,5,5,1,"1aa6a0d",51,1
"5319",0,1,279,6,1,1,"1aa6a0d",52,1
"5419",0,1,224,4,1,1,"1aa6a0d",53,1
"5519",1,1,71,4,4,1,"1aa6a0d",54,1
"5619",0,1,238,1,5,1,"1aa6a0d",55,1
"5719",1,1,343,6,6,1,"1aa6a0d",56,1
"5819",1,1,385,1,1,1,"1aa6a0d",57,1
"5919",0,1,994,1,4,1,"1aa6a0d",58,1
"6019",0,1,226,1,6,1,"1aa6a0d",59,1
"6123",-1,0,1540,4,4,1,"1aa6a0d",60,1
"6221",1,1,287,5,5,1,"1aa6a0d",61,1
"6319",1,1,1517,6,6,1,"1aa6a0d",62,1
"6419",0,1,325,1,5,1,"1aa6a0d",63,1
"6519",1,1,622,6,6,1,"1aa6a0d",64,1
"6619",1,1,370,5,5,1,"1aa6a0d",65,1
"6719",0,1,713,6,1,1,"1aa6a0d",66,1
"6819",0,1,66,5,1,1,"1aa6a0d",67,1
"6919",0,0,770,1,1,1,"1aa6a0d",68,1
"7019",0,1,272,1,4,1,"1aa6a0d",69,1
"7119",1,1,317,4,4,1,"1aa6a0d",70,1
"2104",0,0,266,5,5,2,"1d6393b",1,1
"3104",1,0,279,1,6,2,"1d6393b",2,1
"4104",0,1,392,1,4,2,"1d6393b",3,1
"5104",1,0,414,1,5,2,"1d6393b",4,1
"6104",1,1,895,1,1,2,"1d6393b",5,1
"730",1,1,296,6,6,2,"1d6393b",6,1
"820",1,1,680,4,4,2,"1d6393b",7,1
"920",0,1,346,1,6,2,"1d6393b",8,1
"1020",1,0,302,1,4,2,"1d6393b",9,1
"1120",1,1,302,4,4,2,"1d6393b",10,1
"1220",0,0,247,5,5,2,"1d6393b",11,1
"1320",0,0,328,1,1,2,"1d6393b",12,1
"1420",1,1,318,6,6,2,"1d6393b",13,1
"1520",0,1,294,1,5,2,"1d6393b",14,1
"1620",1,0,317,5,1,2,"1d6393b",15,1
"1720",0,0,252,6,6,2,"1d6393b",16,1
"1820",1,1,258,4,4,2,"1d6393b",17,1
"1920",1,0,675,4,1,2,"1d6393b",18,1
"2020",1,1,610,1,1,2,"1d6393b",19,1
"2124",0,1,312,1,6,2,"1d6393b",20,1
"2222",1,1,383,5,5,2,"1d6393b",21,1
"2320",0,0,319,6,6,2,"1d6393b",22,1
"2420",0,1,382,1,6,2,"1d6393b",23,1
"2520",1,1,270,4,4,2,"1d6393b",24,1
"2620",0,1,452,1,4,2,"1d6393b",25,1
"2720",0,1,365,5,1,2,"1d6393b",26,1
"2820",1,1,260,1,1,2,"1d6393b",27,1
"2920",1,1,285,5,5,2,"1d6393b",28,1
"3020",1,1,420,4,4,2,"1d6393b",29,1
"3124",1,1,288,5,5,2,"1d6393b",30,1
"3222",1,1,243,6,6,2,"1d6393b",31,1
"3320",1,1,269,1,1,2,"1d6393b",32,1
"3420",0,1,299,1,4,2,"1d6393b",33,1
"3520",1,0,244,5,1,2,"1d6393b",34,1
"3620",0,1,316,1,6,2,"1d6393b",35,1
"3720",0,1,356,1,6,2,"1d6393b",36,1
"3820",1,1,268,5,5,2,"1d6393b",37,1
"3920",0,1,307,1,4,2,"1d6393b",38,1
"4020",0,1,292,5,1,2,"1d6393b",39,1
"4124",1,1,308,4,4,2,"1d6393b",40,1
"4222",1,1,476,1,1,2,"1d6393b",41,1
"4320",1,1,355,6,6,2,"1d6393b",42,1
"4420",0,1,248,1,4,2,"1d6393b",43,1
"4520",1,1,392,5,5,2,"1d6393b",44,1
"4620",0,1,344,6,1,2,"1d6393b",45,1
"4720",1,1,457,6,6,2,"1d6393b",46,1
"4820",1,1,793,1,1,2,"1d6393b",47,1
"4920",1,1,361,4,4,2,"1d6393b",48,1
"5020",0,1,278,1,5,2,"1d6393b",49,1
"5124",0,1,400,4,1,2,"1d6393b",50,1
"5222",1,1,295,5,5,2,"1d6393b",51,1
"5320",0,1,346,5,1,2,"1d6393b",52,1
"5420",1,1,304,4,4,2,"1d6393b",53,1
"5520",0,1,407,1,6,2,"1d6393b",54,1
"5620",1,1,278,6,6,2,"1d6393b",55,1
"5720",1,1,240,1,1,2,"1d6393b",56,1
"5820",1,1,317,6,6,2,"1d6393b",57,1
"5920",0,1,423,6,1,2,"1d6393b",58,1
"6020",0,1,319,5,1,2,"1d6393b",59,1
"6124",1,1,289,5,5,2,"1d6393b",60,1
"6222",1,1,314,4,4,2,"1d6393b",61,1
"6320",1,1,375,1,1,2,"1d6393b",62,1
"6420",0,1,333,4,1,2,"1d6393b",63,1
"6520",0,1,556,5,1,2,"1d6393b",64,1
"6620",1,1,395,4,4,2,"1d6393b",65,1
"6720",0,1,268,4,1,2,"1d6393b",66,1
"6820",0,1,282,6,1,2,"1d6393b",67,1
"6920",1,1,275,5,5,2,"1d6393b",68,1
"7020",1,1,370,6,6,2,"1d6393b",69,1
"7120",1,1,388,1,1,2,"1d6393b",70,1
"2105",1,0,819,1,6,0,"1b83177",1,1
"3105",1,0,679,4,1,0,"1b83177",2,1
"4105",1,1,677,5,5,0,"1b83177",3,1
"5105",1,1,618,4,4,0,"1b83177",4,1
"6105",1,1,1697,1,1,0,"1b83177",5,1
"731",1,0,467,1,5,0,"1b83177",6,1
"821",1,1,412,6,6,0,"1b83177",7,1
"921",0,1,458,4,1,0,"1b83177",8,1
"1021",1,1,458,1,1,0,"1b83177",9,1
"1121",0,1,509,6,1,0,"1b83177",10,1
"1221",1,1,463,5,5,0,"1b83177",11,1
"1321",0,1,536,5,1,0,"1b83177",12,1
"1421",1,1,705,4,4,0,"1b83177",13,1
"1521",1,1,378,6,6,0,"1b83177",14,1
"1621",0,1,396,1,4,0,"1b83177",15,1
"1721",1,1,365,1,1,0,"1b83177",16,1
"1821",0,1,482,6,1,0,"1b83177",17,1
"1921",1,1,395,5,5,0,"1b83177",18,1
"2021",1,1,1152,6,6,0,"1b83177",19,1
"2125",1,1,339,4,4,0,"1b83177",20,1
"2223",0,1,522,1,5,0,"1b83177",21,1
"2321",1,1,671,1,1,0,"1b83177",22,1
"2421",0,1,398,1,5,0,"1b83177",23,1
"2521",1,1,337,6,6,0,"1b83177",24,1
"2621",1,1,412,5,5,0,"1b83177",25,1
"2721",0,1,578,1,4,0,"1b83177",26,1
"2821",0,1,847,1,6,0,"1b83177",27,1
"2921",1,1,449,4,4,0,"1b83177",28,1
"3021",1,1,360,5,5,0,"1b83177",29,1
"3125",0,1,643,1,5,0,"1b83177",30,1
"3223",1,1,408,1,1,0,"1b83177",31,1
"3321",1,1,355,4,4,0,"1b83177",32,1
"3421",1,1,432,6,6,0,"1b83177",33,1
"3521",1,0,327,1,4,0,"1b83177",34,1
"3621",0,1,348,6,1,0,"1b83177",35,1
"3721",-1,-1,0,5,1,0,"1b83177",36,1
"3821",0,1,318,1,6,0,"1b83177",37,1
"3921",1,1,289,1,1,0,"1b83177",38,1
"4021",1,1,460,4,4,0,"1b83177",39,1
"4125",1,1,336,5,5,0,"1b83177",40,1
"4223",0,1,469,4,1,0,"1b83177",41,1
"4321",1,1,412,6,6,0,"1b83177",42,1
"4421",1,1,442,6,6,0,"1b83177",43,1
"4521",1,1,322,1,1,0,"1b83177",44,1
"4621",1,0,133,4,1,0,"1b83177",45,1
"4721",0,1,418,6,1,0,"1b83177",46,1
"4821",1,1,332,5,5,0,"1b83177",47,1
"4921",0,1,539,1,5,0,"1b83177",48,1
"5021",1,1,341,4,4,0,"1b83177",49,1
"5125",1,1,510,1,1,0,"1b83177",50,1
"5223",0,1,585,1,6,0,"1b83177",51,1
"5321",0,1,427,1,5,0,"1b83177",52,1
"5421",1,1,532,5,5,0,"1b83177",53,1
"5521",1,1,488,4,4,0,"1b83177",54,1
"5621",1,1,354,6,6,0,"1b83177",55,1
"5721",1,0,339,1,4,0,"1b83177",56,1
"5821",1,1,319,1,1,0,"1b83177",57,1
"5921",1,1,410,6,6,0,"1b83177",58,1
"6021",0,1,428,1,5,0,"1b83177",59,1
"6125",1,1,388,4,4,0,"1b83177",60,1
"6223",1,1,480,5,5,0,"1b83177",61,1
"6321",0,1,329,1,4,0,"1b83177",62,1
"6421",0,1,1425,1,6,0,"1b83177",63,1
"6521",0,1,384,5,1,0,"1b83177",64,1
"6621",1,1,474,1,1,0,"1b83177",65,1
"6721",1,1,369,4,4,0,"1b83177",66,1
"6821",0,1,306,1,6,0,"1b83177",67,1
"6921",1,1,420,5,5,0,"1b83177",68,1
"7021",1,1,481,6,6,0,"1b83177",69,1
"7121",0,1,581,4,1,0,"1b83177",70,1
"2106",1,1,374,6,6,3,"1a389f3",1,1
"3106",1,0,458,1,6,3,"1a389f3",2,1
"4106",1,1,779,4,4,3,"1a389f3",3,1
"5106",1,1,650,5,5,3,"1a389f3",4,1
"6106",0,1,790,5,1,3,"1a389f3",5,1
"732",1,1,659,1,1,3,"1a389f3",6,1
"822",1,0,639,1,4,3,"1a389f3",7,1
"922",0,1,799,1,6,3,"1a389f3",8,1
"1022",1,1,471,6,6,3,"1a389f3",9,1
"1122",1,1,373,5,5,3,"1a389f3",10,1
"1222",0,1,399,5,1,3,"1a389f3",11,1
"1322",0,1,442,4,1,3,"1a389f3",12,1
"1422",1,1,380,1,1,3,"1a389f3",13,1
"1522",1,1,440,4,4,3,"1a389f3",14,1
"1622",0,1,374,6,1,3,"1a389f3",15,1
"1722",1,1,427,5,5,3,"1a389f3",16,1
"1822",1,1,341,6,6,3,"1a389f3",17,1
"1922",0,1,360,1,5,3,"1a389f3",18,1
"2022",1,0,359,1,4,3,"1a389f3",19,1
"2126",1,1,744,4,4,3,"1a389f3",20,1
"2224",1,1,738,1,1,3,"1a389f3",21,1
"2322",1,0,422,4,1,3,"1a389f3",22,1
"2422",1,1,301,5,5,3,"1a389f3",23,1
"2522",0,1,486,6,1,3,"1a389f3",24,1
"2622",1,1,524,4,4,3,"1a389f3",25,1
"2722",1,1,361,6,6,3,"1a389f3",26,1
"2822",0,1,337,1,5,3,"1a389f3",27,1
"2922",1,1,725,1,1,3,"1a389f3",28,1
"3022",1,1,284,1,1,3,"1a389f3",29,1
"3126",1,1,347,4,4,3,"1a389f3",30,1
"3224",0,1,352,1,4,3,"1a389f3",31,1
"3322",1,1,395,5,5,3,"1a389f3",32,1
"3422",1,1,405,6,6,3,"1a389f3",33,1
"3522",0,1,327,1,5,3,"1a389f3",34,1
"3622",0,1,304,1,6,3,"1a389f3",35,1
"3722",0,1,259,6,1,3,"1a389f3",36,1
"3822",1,1,470,5,5,3,"1a389f3",37,1
"3922",1,1,437,4,4,3,"1a389f3",38,1
"4022",1,1,541,1,1,3,"1a389f3",39,1
"4126",0,1,547,5,1,3,"1a389f3",40,1
"4224",0,1,285,4,1,3,"1a389f3",41,1
"4322",1,1,254,6,6,3,"1a389f3",42,1
"4422",0,1,323,1,6,3,"1a389f3",43,1
"4522",0,1,275,1,5,3,"1a389f3",44,1
"4622",1,1,288,1,1,3,"1a389f3",45,1
"4722",0,1,351,4,1,3,"1a389f3",46,1
"4822",1,1,307,6,6,3,"1a389f3",47,1
"4922",1,1,434,5,5,3,"1a389f3",48,1
"5022",1,1,278,4,4,3,"1a389f3",49,1
"5126",1,1,373,1,1,3,"1a389f3",50,1
"5224",1,1,272,4,4,3,"1a389f3",51,1
"5322",0,1,36,1,5,3,"1a389f3",52,1
"5422",0,1,397,1,4,3,"1a389f3",53,1
"5522",0,0,375,5,5,3,"1a389f3",54,1
"5622",0,1,297,1,6,3,"1a389f3",55,1
"5722",1,1,477,6,6,3,"1a389f3",56,1
"5822",1,1,290,5,5,3,"1a389f3",57,1
"5922",0,1,407,1,4,3,"1a389f3",58,1
"6022",1,1,343,6,6,3,"1a389f3",59,1
"6126",0,1,367,5,1,3,"1a389f3",60,1
"6224",0,1,534,1,6,3,"1a389f3",61,1
"6322",1,1,460,4,4,3,"1a389f3",62,1
"6422",1,1,464,1,1,3,"1a389f3",63,1
"6522",0,0,633,5,5,3,"1a389f3",64,1
"6622",0,1,447,1,5,3,"1a389f3",65,1
"6722",0,1,331,1,6,3,"1a389f3",66,1
"6822",1,1,276,1,1,3,"1a389f3",67,1
"6922",1,1,343,6,6,3,"1a389f3",68,1
"7022",0,1,311,1,4,3,"1a389f3",69,1
"7122",1,1,282,4,4,3,"1a389f3",70,1
"2107",0,1,412,6,1,3,"198e48e",1,1
"3107",1,1,281,1,1,3,"198e48e",2,1
"4107",0,1,1030,5,1,3,"198e48e",3,1
"5107",1,1,321,6,6,3,"198e48e",4,1
"6107",0,1,645,4,1,3,"198e48e",5,1
"733",1,1,783,4,4,3,"198e48e",6,1
"823",1,1,269,5,5,3,"198e48e",7,1
"923",1,1,761,1,1,3,"198e48e",8,1
"1023",0,1,838,4,1,3,"198e48e",9,1
"1123",1,1,743,4,4,3,"198e48e",10,1
"1223",0,1,277,1,5,3,"198e48e",11,1
"1323",0,1,329,1,6,3,"198e48e",12,1
"1423",1,1,284,5,5,3,"198e48e",13,1
"1523",1,1,316,6,6,3,"198e48e",14,1
"1623",0,1,246,6,1,3,"198e48e",15,1
"1723",1,1,765,4,4,3,"198e48e",16,1
"1823",1,1,349,5,5,3,"198e48e",17,1
"1923",0,1,270,1,4,3,"198e48e",18,1
"2023",1,1,287,1,1,3,"198e48e",19,1
"2127",1,1,617,6,6,3,"198e48e",20,1
"2225",0,1,114,5,1,3,"198e48e",21,1
"2323",1,1,990,4,4,3,"198e48e",22,1
"2423",1,1,254,6,6,3,"198e48e",23,1
"2523",0,1,174,1,6,3,"198e48e",24,1
"2623",0,1,163,1,4,3,"198e48e",25,1
"2723",0,1,376,1,5,3,"198e48e",26,1
"2823",1,1,306,1,1,3,"198e48e",27,1
"2923",1,1,247,5,5,3,"198e48e",28,1
"3023",1,1,336,4,4,3,"198e48e",29,1
"3127",0,1,174,1,4,3,"198e48e",30,1
"3225",1,1,924,6,6,3,"198e48e",31,1
"3323",1,1,192,1,1,3,"198e48e",32,1
"3423",0,1,194,1,6,3,"198e48e",33,1
"3523",0,1,31,5,1,3,"198e48e",34,1
"3623",1,1,788,5,5,3,"198e48e",35,1
"3723",0,1,358,1,5,3,"198e48e",36,1
"3823",1,1,234,1,1,3,"198e48e",37,1
"3923",0,1,235,4,1,3,"198e48e",38,1
"4023",0,1,183,1,6,3,"198e48e",39,1
"4127",1,1,240,4,4,3,"198e48e",40,1
"4225",1,1,271,5,5,3,"198e48e",41,1
"4323",1,1,280,6,6,3,"198e48e",42,1
"4423",1,1,246,6,6,3,"198e48e",43,1
"4523",1,1,249,4,4,3,"198e48e",44,1
"4623",1,1,159,1,1,3,"198e48e",45,1
"4723",0,1,946,5,1,3,"198e48e",46,1
"4823",0,1,255,6,1,3,"198e48e",47,1
"4923",1,1,42,5,5,3,"198e48e",48,1
"5023",0,1,425,4,1,3,"198e48e",49,1
"5127",1,1,12,6,6,3,"198e48e",50,1
"5225",0,1,270,1,4,3,"198e48e",51,1
"5323",0,1,298,6,1,3,"198e48e",52,1
"5423",1,1,375,4,4,3,"198e48e",53,1
"5523",1,1,374,1,1,3,"198e48e",54,1
"5623",0,1,278,5,1,3,"198e48e",55,1
"5723",1,1,295,5,5,3,"198e48e",56,1
"5823",0,1,495,4,1,3,"198e48e",57,1
"5923",0,1,329,1,6,3,"198e48e",58,1
"6023",1,1,308,5,5,3,"198e48e",59,1
"6127",0,1,272,5,1,3,"198e48e",60,1
"6225",1,1,304,4,4,3,"198e48e",61,1
"6323",1,1,419,6,6,3,"198e48e",62,1
"6423",1,1,311,1,1,3,"198e48e",63,1
"6523",0,1,407,5,1,3,"198e48e",64,1
"6623",0,1,344,1,6,3,"198e48e",65,1
"6723",1,1,354,4,4,3,"198e48e",66,1
"6823",1,1,314,1,1,3,"198e48e",67,1
"6923",0,1,272,4,1,3,"198e48e",68,1
"7023",1,1,326,5,5,3,"198e48e",69,1
"7123",1,1,295,6,6,3,"198e48e",70,1
"2108",1,1,1366,1,1,3,"16637d9",1,1
"3108",1,1,449,4,4,3,"16637d9",2,1
"4108",1,1,498,5,5,3,"16637d9",3,1
"5108",1,1,350,6,6,3,"16637d9",4,1
"6108",0,1,637,5,1,3,"16637d9",5,1
"734",0,1,522,4,1,3,"16637d9",6,1
"824",0,1,1880,6,1,3,"16637d9",7,1
"924",0,1,1145,4,1,3,"16637d9",8,1
"1024",1,1,606,1,1,3,"16637d9",9,1
"1124",0,1,360,1,6,3,"16637d9",10,1
"1224",1,1,372,5,5,3,"16637d9",11,1
"1324",0,1,556,1,5,3,"16637d9",12,1
"1424",1,1,1244,4,4,3,"16637d9",13,1
"1524",1,1,1141,6,6,3,"16637d9",14,1
"1624",0,1,349,5,1,3,"16637d9",15,1
"1724",1,1,377,1,1,3,"16637d9",16,1
"1824",0,1,475,6,1,3,"16637d9",17,1
"1924",1,1,1020,4,4,3,"16637d9",18,1
"2024",1,1,401,6,6,3,"16637d9",19,1
"2128",0,1,372,1,4,3,"16637d9",20,1
"2226",1,1,478,5,5,3,"16637d9",21,1
"2324",1,1,350,6,6,3,"16637d9",22,1
"2424",1,1,356,1,1,3,"16637d9",23,1
"2524",0,1,1054,1,5,3,"16637d9",24,1
"2624",1,1,513,5,5,3,"16637d9",25,1
"2724",0,1,324,1,6,3,"16637d9",26,1
"2824",0,1,1657,4,1,3,"16637d9",27,1
"2924",-1,-1,0,4,4,3,"16637d9",28,1
"3024",1,1,155,4,4,3,"16637d9",29,1
"3128",1,1,753,5,5,3,"16637d9",30,1
"3226",0,1,1225,4,1,3,"16637d9",31,1
"3324",1,1,387,1,1,3,"16637d9",32,1
"3424",1,1,438,6,6,3,"16637d9",33,1
"3524",0,1,683,5,1,3,"16637d9",34,1
"3624",0,1,891,1,6,3,"16637d9",35,1
"3724",0,1,1033,1,4,3,"16637d9",36,1
"3824",-1,-1,0,6,6,3,"16637d9",37,1
"3924",1,1,1389,4,4,3,"16637d9",38,1
"4024",0,1,1222,6,1,3,"16637d9",39,1
"4128",0,1,969,5,1,3,"16637d9",40,1
"4226",1,1,260,5,5,3,"16637d9",41,1
"4324",1,1,245,1,1,3,"16637d9",42,1
"4424",1,1,377,5,5,3,"16637d9",43,1
"4524",1,1,394,1,1,3,"16637d9",44,1
"4624",0,1,1435,1,5,3,"16637d9",45,1
"4724",1,1,821,6,6,3,"16637d9",46,1
"4824",0,1,1132,6,1,3,"16637d9",47,1
"4924",1,1,435,4,4,3,"16637d9",48,1
"5024",0,1,1318,4,1,3,"16637d9",49,1
"5128",1,1,282,1,1,3,"16637d9",50,1
"5226",1,1,1419,4,4,3,"16637d9",51,1
"5324",0,1,761,5,1,3,"16637d9",52,1
"5424",1,1,662,5,5,3,"16637d9",53,1
"5524",0,1,1626,6,1,3,"16637d9",54,1
"5624",0,1,1588,4,1,3,"16637d9",55,1
"5724",-1,-1,0,6,6,3,"16637d9",56,1
"5824",0,1,1737,5,1,3,"16637d9",57,1
"5924",-1,-1,0,4,4,3,"16637d9",58,1
"6024",-1,-1,0,1,6,3,"16637d9",59,1
"6128",1,1,1389,6,6,3,"16637d9",60,1
"6226",1,1,1653,5,5,3,"16637d9",61,1
"6324",0,1,989,1,4,3,"16637d9",62,1
"6424",1,1,548,1,1,3,"16637d9",63,1
"6524",1,1,444,5,5,3,"16637d9",64,1
"6624",1,1,753,1,1,3,"16637d9",65,1
"6724",0,1,867,4,1,3,"16637d9",66,1
"6824",0,1,829,1,6,3,"16637d9",67,1
"6924",1,1,360,4,4,3,"16637d9",68,1
"7024",1,1,507,6,6,3,"16637d9",69,1
"7124",0,1,864,5,1,3,"16637d9",70,1
"2109",1,1,697,6,6,2,"1867049",1,1
"3109",1,1,419,1,1,2,"1867049",2,1
"4109",1,1,404,4,4,2,"1867049",3,1
"5109",1,0,476,1,5,2,"1867049",4,1
"6109",0,1,382,1,4,2,"1867049",5,1
"735",1,1,372,5,5,2,"1867049",6,1
"825",0,1,448,6,1,2,"1867049",7,1
"925",0,1,421,1,4,2,"1867049",8,1
"1025",1,1,372,6,6,2,"1867049",9,1
"1125",1,1,381,1,1,2,"1867049",10,1
"1225",1,1,342,5,5,2,"1867049",11,1
"1325",1,1,447,4,4,2,"1867049",12,1
"1425",0,1,457,1,5,2,"1867049",13,1
"1525",0,1,335,1,6,2,"1867049",14,1
"1625",1,1,302,4,4,2,"1867049",15,1
"1725",0,1,327,4,1,2,"1867049",16,1
"1825",1,1,344,6,6,2,"1867049",17,1
"1925",1,1,310,5,5,2,"1867049",18,1
"2025",0,1,477,5,1,2,"1867049",19,1
"2129",1,1,326,1,1,2,"1867049",20,1
"2227",0,1,384,6,1,2,"1867049",21,1
"2325",0,1,351,1,4,2,"1867049",22,1
"2425",1,1,287,5,5,2,"1867049",23,1
"2525",1,1,309,4,4,2,"1867049",24,1
"2625",0,1,363,5,1,2,"1867049",25,1
"2725",0,1,413,6,1,2,"1867049",26,1
"2825",1,1,347,1,1,2,"1867049",27,1
"2925",1,1,279,6,6,2,"1867049",28,1
"3025",0,1,380,5,1,2,"1867049",29,1
"3129",0,1,309,1,4,2,"1867049",30,1
"3227",1,1,371,1,1,2,"1867049",31,1
"3325",1,1,320,6,6,2,"1867049",32,1
"3425",1,1,397,5,5,2,"1867049",33,1
"3525",0,1,530,1,6,2,"1867049",34,1
"3625",1,1,365,4,4,2,"1867049",35,1
"3725",0,1,303,1,5,2,"1867049",36,1
"3825",1,1,305,1,1,2,"1867049",37,1
"3925",1,1,517,5,5,2,"1867049",38,1
"4025",1,1,254,6,6,2,"1867049",39,1
"4129",1,1,301,4,4,2,"1867049",40,1
"4227",0,1,383,6,1,2,"1867049",41,1
"4325",0,1,286,1,4,2,"1867049",42,1
"4425",1,1,284,5,5,2,"1867049",43,1
"4525",0,1,247,1,4,2,"1867049",44,1
"4625",1,1,290,1,1,2,"1867049",45,1
"4725",1,1,319,6,6,2,"1867049",46,1
"4825",0,1,617,1,5,2,"1867049",47,1
"4925",0,1,383,6,1,2,"1867049",48,1
"5025",1,1,287,4,4,2,"1867049",49,1
"5129",1,1,241,1,1,2,"1867049",50,1
"5227",0,1,362,1,5,2,"1867049",51,1
"5325",1,1,285,5,5,2,"1867049",52,1
"5425",1,1,37,6,6,2,"1867049",53,1
"5525",1,1,226,4,4,2,"1867049",54,1
"5625",0,1,311,1,6,2,"1867049",55,1
"5725",0,1,300,1,4,2,"1867049",56,1
"5825",0,1,346,1,5,2,"1867049",57,1
"5925",1,1,407,5,5,2,"1867049",58,1
"6025",1,1,755,1,1,2,"1867049",59,1
"6129",1,1,398,6,6,2,"1867049",60,1
"6227",0,1,386,4,1,2,"1867049",61,1
"6325",0,1,487,1,6,2,"1867049",62,1
"6425",1,1,266,4,4,2,"1867049",63,1
"6525",0,1,504,6,1,2,"1867049",64,1
"6625",0,1,296,1,4,2,"1867049",65,1
"6725",1,1,315,6,6,2,"1867049",66,1
"6825",0,1,434,1,5,2,"1867049",67,1
"6925",1,1,265,1,1,2,"1867049",68,1
"7025",1,1,314,5,5,2,"1867049",69,1
"7125",1,1,278,4,4,2,"1867049",70,1
"2130",1,0,758,1,5,0,"1cefadc",1,1
"3130",0,0,311,4,4,0,"1cefadc",2,1
"4130",0,1,460,6,1,0,"1cefadc",3,1
"5130",1,1,277,6,6,0,"1cefadc",4,1
"6130",0,0,708,1,1,0,"1cefadc",5,1
"736",1,1,327,5,5,0,"1cefadc",6,1
"826",0,1,495,1,4,0,"1cefadc",7,1
"926",1,1,356,1,1,0,"1cefadc",8,1
"1026",1,1,283,6,6,0,"1cefadc",9,1
"1126",1,0,437,4,1,0,"1cefadc",10,1
"1226",0,0,496,5,5,0,"1cefadc",11,1
"1326",1,0,345,1,5,0,"1cefadc",12,1
"1426",0,1,281,1,6,0,"1cefadc",13,1
"1526",1,1,397,4,4,0,"1cefadc",14,1
"1626",0,1,342,4,1,0,"1cefadc",15,1
"1726",0,0,293,6,6,0,"1cefadc",16,1
"1826",0,0,258,5,5,0,"1cefadc",17,1
"1926",0,1,310,1,6,0,"1cefadc",18,1
"2026",0,1,295,1,5,0,"1cefadc",19,1
"2131",0,0,652,1,1,0,"1cefadc",20,1
"2228",1,1,351,4,4,0,"1cefadc",21,1
"2326",0,1,324,4,1,0,"1cefadc",22,1
"2426",0,1,568,1,5,0,"1cefadc",23,1
"2526",0,1,329,1,6,0,"1cefadc",24,1
"2626",1,1,316,4,4,0,"1cefadc",25,1
"2726",1,1,328,5,5,0,"1cefadc",26,1
"2826",1,1,257,1,1,0,"1cefadc",27,1
"2926",0,0,313,6,6,0,"1cefadc",28,1
"3026",0,1,327,6,1,0,"1cefadc",29,1
"3131",1,1,1312,5,5,0,"1cefadc",30,1
"3228",1,1,934,4,4,0,"1cefadc",31,1
"3326",1,1,306,6,6,0,"1cefadc",32,1
"3426",0,1,283,1,5,0,"1cefadc",33,1
"3526",0,1,406,4,1,0,"1cefadc",34,1
"3626",0,0,317,1,1,0,"1cefadc",35,1
"3726",0,1,336,4,1,0,"1cefadc",36,1
"3826",1,1,490,6,6,0,"1cefadc",37,1
"3926",1,1,605,4,4,0,"1cefadc",38,1
"4026",0,1,611,5,1,0,"1cefadc",39,1
"4131",1,1,302,1,1,0,"1cefadc",40,1
"4228",0,1,314,1,6,0,"1cefadc",41,1
"4326",0,0,17,5,5,0,"1cefadc",42,1
"4426",0,1,325,4,1,0,"1cefadc",43,1
"4526",0,0,278,4,4,0,"1cefadc",44,1
"4626",0,0,503,6,6,0,"1cefadc",45,1
"4726",0,0,313,1,1,0,"1cefadc",46,1
"4826",0,0,574,5,5,0,"1cefadc",47,1
"4926",0,1,963,5,1,0,"1cefadc",48,1
"5026",1,0,305,6,1,0,"1cefadc",49,1
"5131",1,1,303,6,6,0,"1cefadc",50,1
"5228",1,1,270,4,4,0,"1cefadc",51,1
"5326",1,0,566,1,4,0,"1cefadc",52,1
"5426",1,0,435,1,6,0,"1cefadc",53,1
"5526",0,0,1121,1,1,0,"1cefadc",54,1
"5626",0,1,230,1,5,0,"1cefadc",55,1
"5726",1,1,356,5,5,0,"1cefadc",56,1
"5826",0,1,1111,1,5,0,"1cefadc",57,1
"5926",1,1,896,1,1,0,"1cefadc",58,1
"6026",0,0,465,6,6,0,"1cefadc",59,1
"6131",0,1,293,6,1,0,"1cefadc",60,1
"6228",0,1,343,4,1,0,"1cefadc",61,1
"6326",0,0,724,4,4,0,"1cefadc",62,1
"6426",1,1,175,5,5,0,"1cefadc",63,1
"6526",0,1,316,5,1,0,"1cefadc",64,1
"6626",1,1,396,5,5,0,"1cefadc",65,1
"6726",1,1,309,1,1,0,"1cefadc",66,1
"6826",1,1,340,6,6,0,"1cefadc",67,1
"6926",1,1,270,4,4,0,"1cefadc",68,1
"7026",0,1,1271,1,6,0,"1cefadc",69,1
"7126",0,1,304,1,4,0,"1cefadc",70,1
"2132",1,0,988,5,1,0,"1de7a7b",1,1
"3132",0,1,324,6,1,0,"1de7a7b",2,1
"4132",1,1,312,4,4,0,"1de7a7b",3,1
"5132",1,1,280,6,6,0,"1de7a7b",4,1
"6132",1,1,408,5,5,0,"1de7a7b",5,1
"737",0,1,419,1,4,0,"1de7a7b",6,1
"827",1,1,486,1,1,0,"1de7a7b",7,1
"927",0,1,299,4,1,0,"1de7a7b",8,1
"1027",1,1,351,5,5,0,"1de7a7b",9,1
"1127",0,1,342,5,1,0,"1de7a7b",10,1
"1227",0,1,408,6,1,0,"1de7a7b",11,1
"1327",1,1,368,6,6,0,"1de7a7b",12,1
"1427",1,1,365,1,1,0,"1de7a7b",13,1
"1527",1,1,358,4,4,0,"1de7a7b",14,1
"1627",0,1,339,4,1,0,"1de7a7b",15,1
"1727",0,1,346,6,1,0,"1de7a7b",16,1
"1827",1,1,307,6,6,0,"1de7a7b",17,1
"1927",0,1,368,5,1,0,"1de7a7b",18,1
"2027",1,1,362,4,4,0,"1de7a7b",19,1
"2133",1,1,366,5,5,0,"1de7a7b",20,1
"2229",1,1,369,1,1,0,"1de7a7b",21,1
"2327",0,1,350,1,4,0,"1de7a7b",22,1
"2427",1,1,353,4,4,0,"1de7a7b",23,1
"2527",0,1,433,1,5,0,"1de7a7b",24,1
"2627",0,1,341,6,1,0,"1de7a7b",25,1
"2727",1,1,299,6,6,0,"1de7a7b",26,1
"2827",1,1,1101,5,5,0,"1de7a7b",27,1
"2927",1,1,347,1,1,0,"1de7a7b",28,1
"3027",1,1,350,6,6,0,"1de7a7b",29,1
"3133",1,1,782,4,4,0,"1de7a7b",30,1
"3229",0,1,322,1,5,0,"1de7a7b",31,1
"3327",1,1,448,1,1,0,"1de7a7b",32,1
"3427",1,1,400,5,5,0,"1de7a7b",33,1
"3527",1,0,433,1,6,0,"1de7a7b",34,1
"3627",0,1,334,4,1,0,"1de7a7b",35,1
"3727",0,1,425,1,6,0,"1de7a7b",36,1
"3827",1,0,1956,5,1,0,"1de7a7b",37,1
"3927",1,1,382,1,1,0,"1de7a7b",38,1
"4027",1,1,388,5,5,0,"1de7a7b",39,1
"4133",1,1,811,6,6,0,"1de7a7b",40,1
"4229",1,1,354,4,4,0,"1de7a7b",41,1
"4327",0,1,363,1,4,0,"1de7a7b",42,1
"4427",1,1,395,1,1,0,"1de7a7b",43,1
"4527",0,1,352,1,5,0,"1de7a7b",44,1
"4627",0,1,324,1,6,0,"1de7a7b",45,1
"4727",0,1,302,4,1,0,"1de7a7b",46,1
"4827",1,1,304,5,5,0,"1de7a7b",47,1
"4927",1,1,328,6,6,0,"1de7a7b",48,1
"5027",1,1,326,4,4,0,"1de7a7b",49,1
"5133",1,1,362,5,5,0,"1de7a7b",50,1
"5229",1,1,347,6,6,0,"1de7a7b",51,1
"5327",0,1,438,6,1,0,"1de7a7b",52,1
"5427",0,1,318,5,1,0,"1de7a7b",53,1
"5527",0,1,354,4,1,0,"1de7a7b",54,1
"5627",1,1,340,4,4,0,"1de7a7b",55,1
"5727",1,1,399,1,1,0,"1de7a7b",56,1
"5827",1,1,358,4,4,0,"1de7a7b",57,1
"5927",0,1,336,1,6,0,"1de7a7b",58,1
"6027",1,1,501,1,1,0,"1de7a7b",59,1
"6133",0,1,349,4,1,0,"1de7a7b",60,1
"6229",0,1,429,5,1,0,"1de7a7b",61,1
"6327",1,1,381,5,5,0,"1de7a7b",62,1
"6427",1,1,363,6,6,0,"1de7a7b",63,1
"6527",0,1,376,5,1,0,"1de7a7b",64,1
"6627",0,1,349,4,1,0,"1de7a7b",65,1
"6727",1,1,426,5,5,0,"1de7a7b",66,1
"6827",0,1,335,1,6,0,"1de7a7b",67,1
"6927",1,1,469,4,4,0,"1de7a7b",68,1
"7027",1,1,360,1,1,0,"1de7a7b",69,1
"7127",1,1,556,6,6,0,"1de7a7b",70,1
"2134",1,0,685,4,1,0,"10ea86e",1,1
"3134",1,1,400,1,1,0,"10ea86e",2,1
"4134",1,1,281,6,6,0,"10ea86e",3,1
"5134",1,1,284,5,5,0,"10ea86e",4,1
"6134",1,0,285,6,1,0,"10ea86e",5,1
"738",1,1,235,4,4,0,"10ea86e",6,1
"828",0,1,316,5,1,0,"10ea86e",7,1
"928",1,1,303,5,5,0,"10ea86e",8,1
"1028",1,1,251,1,1,0,"10ea86e",9,1
"1128",1,1,205,4,4,0,"10ea86e",10,1
"1228",0,1,239,4,1,0,"10ea86e",11,1
"1328",1,1,241,6,6,0,"10ea86e",12,1
"1428",0,1,191,1,6,0,"10ea86e",13,1
"1528",0,1,216,5,1,0,"10ea86e",14,1
"1628",1,1,214,1,1,0,"10ea86e",15,1
"1728",1,1,178,5,5,0,"10ea86e",16,1
"1828",0,1,144,1,4,0,"10ea86e",17,1
"1928",0,1,306,1,5,0,"10ea86e",18,1
"2028",1,1,189,6,6,0,"10ea86e",19,1
"2135",0,1,240,6,1,0,"10ea86e",20,1
"2230",1,1,179,4,4,0,"10ea86e",21,1
"2328",1,1,218,1,1,0,"10ea86e",22,1
"2428",0,1,236,6,1,0,"10ea86e",23,1
"2528",1,1,220,4,4,0,"10ea86e",24,1
"2628",1,1,143,6,6,0,"10ea86e",25,1
"2728",0,1,336,1,5,0,"10ea86e",26,1
"2828",0,1,217,1,4,0,"10ea86e",27,1
"2928",1,1,166,5,5,0,"10ea86e",28,1
"3028",0,1,146,1,4,0,"10ea86e",29,1
"3135",0,1,229,5,1,0,"10ea86e",30,1
"3230",1,1,211,4,4,0,"10ea86e",31,1
"3328",1,1,114,1,1,0,"10ea86e",32,1
"3428",1,1,120,6,6,0,"10ea86e",33,1
"3528",1,1,291,5,5,0,"10ea86e",34,1
"3628",0,1,197,1,6,0,"10ea86e",35,1
"3728",1,1,205,4,4,0,"10ea86e",36,1
"3828",1,1,83,5,5,0,"10ea86e",37,1
"3928",0,1,167,1,5,0,"10ea86e",38,1
"4028",0,1,538,4,1,0,"10ea86e",39,1
"4135",1,1,635,1,1,0,"10ea86e",40,1
"4230",1,1,220,6,6,0,"10ea86e",41,1
"4328",0,1,211,1,6,0,"10ea86e",42,1
"4428",1,1,401,1,1,0,"10ea86e",43,1
"4528",0,1,378,1,4,0,"10ea86e",44,1
"4628",1,1,201,5,5,0,"10ea86e",45,1
"4728",1,1,363,4,4,0,"10ea86e",46,1
"4828",1,1,201,6,6,0,"10ea86e",47,1
"4928",0,1,241,6,1,0,"10ea86e",48,1
"5028",0,1,186,1,5,0,"10ea86e",49,1
"5135",0,1,320,1,6,0,"10ea86e",50,1
"5230",1,1,1003,4,4,0,"10ea86e",51,1
"5328",0,1,226,5,1,0,"10ea86e",52,1
"5428",1,1,185,6,6,0,"10ea86e",53,1
"5528",1,1,236,1,1,0,"10ea86e",54,1
"5628",0,1,15,4,1,0,"10ea86e",55,1
"5728",1,1,265,5,5,0,"10ea86e",56,1
"5828",1,1,110,6,6,0,"10ea86e",57,1
"5928",1,1,163,5,5,0,"10ea86e",58,1
"6028",1,1,233,1,1,0,"10ea86e",59,1
"6135",1,1,201,4,4,0,"10ea86e",60,1
"6230",1,0,180,1,4,0,"10ea86e",61,1
"6328",0,1,49,5,1,0,"10ea86e",62,1
"6428",0,1,126,6,1,0,"10ea86e",63,1
"6528",1,1,268,5,5,0,"10ea86e",64,1
"6628",0,1,252,1,4,0,"10ea86e",65,1
"6728",1,1,184,4,4,0,"10ea86e",66,1
"6828",1,1,195,1,1,0,"10ea86e",67,1
"6928",0,1,110,5,1,0,"10ea86e",68,1
"7028",0,1,53,6,1,0,"10ea86e",69,1
"7128",1,1,104,6,6,0,"10ea86e",70,1
"2136",1,0,1180,1,4,2,"19982b6",1,1
"3136",1,1,407,1,1,2,"19982b6",2,1
"4136",1,1,443,6,6,2,"19982b6",3,1
"5136",0,1,321,1,5,2,"19982b6",4,1
"6136",0,1,172,1,6,2,"19982b6",5,1
"739",1,1,127,4,4,2,"19982b6",6,1
"829",0,0,14,5,5,2,"19982b6",7,1
"929",0,1,21,1,6,2,"19982b6",8,1
"1029",0,1,74,1,4,2,"19982b6",9,1
"1129",1,1,160,6,6,2,"19982b6",10,1
"1229",1,1,195,1,1,2,"19982b6",11,1
"1329",0,1,56,5,1,2,"19982b6",12,1
"1429",1,1,62,5,5,2,"19982b6",13,1
"1529",1,1,262,4,4,2,"19982b6",14,1
"1629",1,1,94,4,4,2,"19982b6",15,1
"1729",0,1,213,1,6,2,"19982b6",16,1
"1829",1,1,198,5,5,2,"19982b6",17,1
"1929",1,1,408,1,1,2,"19982b6",18,1
"2029",0,1,32,1,4,2,"19982b6",19,1
"2137",1,1,347,6,6,2,"19982b6",20,1
"2231",0,1,44,1,5,2,"19982b6",21,1
"2329",1,1,26,1,1,2,"19982b6",22,1
"2429",1,1,132,6,6,2,"19982b6",23,1
"2529",0,1,135,1,5,2,"19982b6",24,1
"2629",0,1,216,1,6,2,"19982b6",25,1
"2729",0,1,1120,1,4,2,"19982b6",26,1
"2829",1,1,15,4,4,2,"19982b6",27,1
"2929",1,1,653,5,5,2,"19982b6",28,1
"3029",1,1,118,6,6,2,"19982b6",29,1
"3137",0,1,237,5,1,2,"19982b6",30,1
"3231",1,1,326,4,4,2,"19982b6",31,1
"3329",1,1,116,1,1,2,"19982b6",32,1
"3429",0,1,33,1,4,2,"19982b6",33,1
"3529",1,0,735,1,6,2,"19982b6",34,1
"3629",1,1,78,5,5,2,"19982b6",35,1
"3729",1,1,299,1,1,2,"19982b6",36,1
"3829",1,0,8,4,1,2,"19982b6",37,1
"3929",1,1,107,5,5,2,"19982b6",38,1
"4029",1,1,155,4,4,2,"19982b6",39,1
"4137",0,0,415,6,6,2,"19982b6",40,1
"4231",0,1,158,1,5,2,"19982b6",41,1
"4329",0,1,685,6,1,2,"19982b6",42,1
"4429",0,1,241,1,6,2,"19982b6",43,1
"4529",1,1,1120,4,4,2,"19982b6",44,1
"4629",1,1,461,6,6,2,"19982b6",45,1
"4729",1,1,6,1,1,2,"19982b6",46,1
"4829",0,1,226,5,1,2,"19982b6",47,1
"4929",1,1,87,5,5,2,"19982b6",48,1
"5029",0,1,441,4,1,2,"19982b6",49,1
"5137",0,1,450,1,5,2,"19982b6",50,1
"5231",1,1,222,4,4,2,"19982b6",51,1
"5329",1,1,290,5,5,2,"19982b6",52,1
"5429",1,1,212,1,1,2,"19982b6",53,1
"5529",0,1,197,4,1,2,"19982b6",54,1
"5629",0,1,75,6,1,2,"19982b6",55,1
"5729",1,1,871,6,6,2,"19982b6",56,1
"5829",1,1,173,6,6,2,"19982b6",57,1
"5929",1,1,91,5,5,2,"19982b6",58,1
"6029",1,1,126,4,4,2,"19982b6",59,1
"6137",0,1,1082,4,1,2,"19982b6",60,1
"6231",0,1,165,6,1,2,"19982b6",61,1
"6329",1,1,189,1,1,2,"19982b6",62,1
"6429",0,1,101,5,1,2,"19982b6",63,1
"6529",1,1,516,4,4,2,"19982b6",64,1
"6629",0,1,602,5,1,2,"19982b6",65,1
"6729",1,1,1547,5,5,2,"19982b6",66,1
"6829",1,1,157,6,6,2,"19982b6",67,1
"6929",0,1,81,1,6,2,"19982b6",68,1
"7029",0,1,160,4,1,2,"19982b6",69,1
"7129",1,1,318,1,1,2,"19982b6",70,1
"2138",0,1,1293,1,4,0,"bd2d4eb",1,1
"3138",0,1,1205,5,1,0,"bd2d4eb",2,1
"4138",0,0,969,1,1,0,"bd2d4eb",3,1
"5138",1,1,843,5,5,0,"bd2d4eb",4,1
"6138",1,1,716,4,4,0,"bd2d4eb",5,1
"740",0,1,682,6,1,0,"bd2d4eb",6,1
"830",1,1,1548,6,6,0,"bd2d4eb",7,1
"930",1,1,602,6,6,0,"bd2d4eb",8,1
"1030",0,1,730,6,1,0,"bd2d4eb",9,1
"1130",0,1,483,1,4,0,"bd2d4eb",10,1
"1230",1,1,559,4,4,0,"bd2d4eb",11,1
"1330",1,1,730,1,1,0,"bd2d4eb",12,1
"1430",0,1,558,5,1,0,"bd2d4eb",13,1
"1530",1,1,640,5,5,0,"bd2d4eb",14,1
"1630",0,1,697,4,1,0,"bd2d4eb",15,1
"1730",0,1,558,5,1,0,"bd2d4eb",16,1
"1830",1,1,632,5,5,0,"bd2d4eb",17,1
"1930",0,1,585,6,1,0,"bd2d4eb",18,1
"2030",1,1,412,1,1,0,"bd2d4eb",19,1
"2139",1,1,502,4,4,0,"bd2d4eb",20,1
"2232",1,1,404,6,6,0,"bd2d4eb",21,1
"2330",1,1,405,5,5,0,"bd2d4eb",22,1
"2430",0,1,383,1,5,0,"bd2d4eb",23,1
"2530",0,1,556,4,1,0,"bd2d4eb",24,1
"2630",0,1,584,1,6,0,"bd2d4eb",25,1
"2730",1,1,500,4,4,0,"bd2d4eb",26,1
"2830",1,1,567,6,6,0,"bd2d4eb",27,1
"2930",1,1,380,1,1,0,"bd2d4eb",28,1
"3030",1,1,368,4,4,0,"bd2d4eb",29,1
"3139",1,1,400,6,6,0,"bd2d4eb",30,1
"3232",0,1,483,1,5,0,"bd2d4eb",31,1
"3330",1,1,693,1,1,0,"bd2d4eb",32,1
"3430",0,1,386,1,6,0,"bd2d4eb",33,1
"3530",0,1,323,4,1,0,"bd2d4eb",34,1
"3630",1,1,342,5,5,0,"bd2d4eb",35,1
"3730",1,1,341,6,6,0,"bd2d4eb",36,1
"3830",0,1,394,4,1,0,"bd2d4eb",37,1
"3930",0,1,405,5,1,0,"bd2d4eb",38,1
"4030",1,1,364,5,5,0,"bd2d4eb",39,1
"4139",0,1,456,6,1,0,"bd2d4eb",40,1
"4232",1,1,385,4,4,0,"bd2d4eb",41,1
"4330",1,1,481,1,1,0,"bd2d4eb",42,1
"4430",1,1,365,6,6,0,"bd2d4eb",43,1
"4530",0,1,409,1,5,0,"bd2d4eb",44,1
"4630",1,1,343,4,4,0,"bd2d4eb",45,1
"4730",1,1,654,5,5,0,"bd2d4eb",46,1
"4830",1,1,284,1,1,0,"bd2d4eb",47,1
"4930",0,1,406,1,4,0,"bd2d4eb",48,1
"5030",0,1,429,6,1,0,"bd2d4eb",49,1
"5139",0,1,413,4,1,0,"bd2d4eb",50,1
"5232",0,1,621,6,1,0,"bd2d4eb",51,1
"5330",1,1,1205,4,4,0,"bd2d4eb",52,1
"5430",1,1,582,6,6,0,"bd2d4eb",53,1
"5530",1,1,560,1,1,0,"bd2d4eb",54,1
"5630",1,1,419,5,5,0,"bd2d4eb",55,1
"5730",-1,-1,0,5,1,0,"bd2d4eb",56,1
"5830",0,1,344,1,6,0,"bd2d4eb",57,1
"5930",0,1,427,4,1,0,"bd2d4eb",58,1
"6030",0,1,639,5,1,0,"bd2d4eb",59,1
"6139",1,1,674,1,1,0,"bd2d4eb",60,1
"6232",1,1,372,5,5,0,"bd2d4eb",61,1
"6330",1,1,483,6,6,0,"bd2d4eb",62,1
"6430",1,1,417,4,4,0,"bd2d4eb",63,1
"6530",0,1,529,1,5,0,"bd2d4eb",64,1
"6630",1,1,553,6,6,0,"bd2d4eb",65,1
"6730",1,1,758,4,4,0,"bd2d4eb",66,1
"6830",1,1,541,1,1,0,"bd2d4eb",67,1
"6930",0,1,506,6,1,0,"bd2d4eb",68,1
"7030",1,1,617,5,5,0,"bd2d4eb",69,1
"7130",0,1,484,1,4,0,"bd2d4eb",70,1
"2140",1,1,267,1,1,2,"13e0298",1,1
"3140",1,1,152,5,5,2,"13e0298",2,1
"4140",1,1,236,4,4,2,"13e0298",3,1
"5140",1,1,206,6,6,2,"13e0298",4,1
"6140",1,0,242,6,1,2,"13e0298",5,1
"741",1,0,198,5,1,2,"13e0298",6,1
"831",1,0,160,1,4,2,"13e0298",7,1
"931",1,1,11,4,4,2,"13e0298",8,1
"1031",1,1,188,1,1,2,"13e0298",9,1
"1131",0,1,231,6,1,2,"13e0298",10,1
"1231",0,1,208,1,5,2,"13e0298",11,1
"1331",1,1,223,5,5,2,"13e0298",12,1
"1431",1,1,248,6,6,2,"13e0298",13,1
"1531",0,1,250,4,1,2,"13e0298",14,1
"1631",1,1,238,5,5,2,"13e0298",15,1
"1731",0,1,286,5,1,2,"13e0298",16,1
"1831",1,1,427,6,6,2,"13e0298",17,1
"1931",0,1,297,1,4,2,"13e0298",18,1
"2031",1,1,229,4,4,2,"13e0298",19,1
"2141",0,1,241,6,1,2,"13e0298",20,1
"2233",1,1,140,1,1,2,"13e0298",21,1
"2331",0,1,261,6,1,2,"13e0298",22,1
"2431",1,1,270,6,6,2,"13e0298",23,1
"2531",1,1,225,5,5,2,"13e0298",24,1
"2631",1,1,214,4,4,2,"13e0298",25,1
"2731",0,1,229,1,4,2,"13e0298",26,1
"2831",1,1,194,1,1,2,"13e0298",27,1
"2931",0,1,201,5,1,2,"13e0298",28,1
"3031",1,1,213,1,1,2,"13e0298",29,1
"3141",1,1,213,6,6,2,"13e0298",30,1
"3233",0,1,231,1,4,2,"13e0298",31,1
"3331",1,1,247,4,4,2,"13e0298",32,1
"3431",0,1,211,5,1,2,"13e0298",33,1
"3531",1,1,247,5,5,2,"13e0298",34,1
"3631",0,1,275,6,1,2,"13e0298",35,1
"3731",0,1,215,4,1,2,"13e0298",36,1
"3831",1,1,189,4,4,2,"13e0298",37,1
"3931",1,1,126,1,1,2,"13e0298",38,1
"4031",1,1,186,6,6,2,"13e0298",39,1
"4141",0,1,199,6,1,2,"13e0298",40,1
"4233",0,1,172,1,5,2,"13e0298",41,1
"4331",1,1,63,5,5,2,"13e0298",42,1
"4431",1,1,885,1,1,2,"13e0298",43,1
"4531",0,1,216,1,5,2,"13e0298",44,1
"4631",1,1,216,4,4,2,"13e0298",45,1
"4731",0,1,60,1,4,2,"13e0298",46,1
"4831",1,1,259,6,6,2,"13e0298",47,1
"4931",0,1,221,1,6,2,"13e0298",48,1
"5031",1,1,91,5,5,2,"13e0298",49,1
"5141",0,1,229,6,1,2,"13e0298",50,1
"5233",0,1,137,5,1,2,"13e0298",51,1
"5331",0,1,220,1,4,2,"13e0298",52,1
"5431",1,1,233,1,1,2,"13e0298",53,1
"5531",1,1,132,4,4,2,"13e0298",54,1
"5631",1,1,197,6,6,2,"13e0298",55,1
"5731",1,1,251,5,5,2,"13e0298",56,1
"5831",0,1,314,4,1,2,"13e0298",57,1
"5931",1,1,413,4,4,2,"13e0298",58,1
"6031",1,1,229,5,5,2,"13e0298",59,1
"6141",1,1,270,6,6,2,"13e0298",60,1
"6233",1,1,121,1,1,2,"13e0298",61,1
"6331",0,1,135,5,1,2,"13e0298",62,1
"6431",0,1,149,1,6,2,"13e0298",63,1
"6531",1,1,177,1,1,2,"13e0298",64,1
"6631",0,1,243,6,1,2,"13e0298",65,1
"6731",1,1,175,5,5,2,"13e0298",66,1
"6831",1,1,38,4,4,2,"13e0298",67,1
"6931",0,1,111,1,5,2,"13e0298",68,1
"7031",0,1,218,1,4,2,"13e0298",69,1
"7131",1,1,128,6,6,2,"13e0298",70,1
"2142",1,1,575,4,4,1,"22ce30a",1,1
"3142",1,1,302,1,1,1,"22ce30a",2,1
"4142",1,0,321,5,1,1,"22ce30a",3,1
"5142",0,1,242,4,1,1,"22ce30a",4,1
"6142",1,1,336,6,6,1,"22ce30a",5,1
"742",0,1,258,1,6,1,"22ce30a",6,1
"832",1,1,244,5,5,1,"22ce30a",7,1
"932",0,0,275,6,6,1,"22ce30a",8,1
"1032",0,1,253,6,1,1,"22ce30a",9,1
"1132",1,1,271,5,5,1,"22ce30a",10,1
"1232",1,1,177,4,4,1,"22ce30a",11,1
"1332",1,1,308,1,1,1,"22ce30a",12,1
"1432",0,1,226,1,4,1,"22ce30a",13,1
"1532",0,1,378,1,5,1,"22ce30a",14,1
"1632",1,1,1475,5,5,1,"22ce30a",15,1
"1732",1,1,257,1,1,1,"22ce30a",16,1
"1832",0,1,220,1,6,1,"22ce30a",17,1
"1932",1,1,254,4,4,1,"22ce30a",18,1
"2032",1,1,279,6,6,1,"22ce30a",19,1
"2143",0,1,182,1,5,1,"22ce30a",20,1
"2234",0,1,399,1,4,1,"22ce30a",21,1
"2332",1,1,320,1,1,1,"22ce30a",22,1
"2432",1,1,185,4,4,1,"22ce30a",23,1
"2532",1,1,238,5,5,1,"22ce30a",24,1
"2632",0,1,248,1,4,1,"22ce30a",25,1
"2732",0,1,264,1,6,1,"22ce30a",26,1
"2832",0,1,18,1,5,1,"22ce30a",27,1
"2932",1,1,275,6,6,1,"22ce30a",28,1
"3032",0,1,275,1,4,1,"22ce30a",29,1
"3143",1,1,451,1,1,1,"22ce30a",30,1
"3234",1,1,237,5,5,1,"22ce30a",31,1
"3332",1,1,377,4,4,1,"22ce30a",32,1
"3432",1,1,86,6,6,1,"22ce30a",33,1
"3532",0,1,637,6,1,1,"22ce30a",34,1
"3632",0,1,15,1,5,1,"22ce30a",35,1
"3732",1,0,293,1,5,1,"22ce30a",36,1
"3832",1,1,388,1,1,1,"22ce30a",37,1
"3932",0,1,351,6,1,1,"22ce30a",38,1
"4032",1,1,308,4,4,1,"22ce30a",39,1
"4143",1,1,393,5,5,1,"22ce30a",40,1
"4234",-1,-1,0,1,4,1,"22ce30a",41,1
"4332",0,0,653,6,6,1,"22ce30a",42,1
"4432",1,1,1043,4,4,1,"22ce30a",43,1
"4532",0,1,693,1,5,1,"22ce30a",44,1
"4632",0,0,614,6,6,1,"22ce30a",45,1
"4732",1,1,370,5,5,1,"22ce30a",46,1
"4832",-1,-1,0,1,1,1,"22ce30a",47,1
"4932",1,0,955,4,1,1,"22ce30a",48,1
"5032",0,1,458,1,6,1,"22ce30a",49,1
"5143",0,1,326,5,1,1,"22ce30a",50,1
"5234",0,1,549,1,6,1,"22ce30a",51,1
"5332",1,1,509,1,1,1,"22ce30a",52,1
"5432",1,1,1568,5,5,1,"22ce30a",53,1
"5532",0,0,427,6,6,1,"22ce30a",54,1
"5632",0,1,254,4,1,1,"22ce30a",55,1
"5732",0,0,582,4,4,1,"22ce30a",56,1
"5832",1,0,351,5,1,1,"22ce30a",57,1
"5932",0,1,295,1,4,1,"22ce30a",58,1
"6032",0,0,374,6,6,1,"22ce30a",59,1
"6143",1,1,286,5,5,1,"22ce30a",60,1
"6234",0,1,347,1,6,1,"22ce30a",61,1
"6332",0,0,666,4,4,1,"22ce30a",62,1
"6432",1,1,389,1,1,1,"22ce30a",63,1
"6532",1,1,275,1,1,1,"22ce30a",64,1
"6632",1,1,275,5,5,1,"22ce30a",65,1
"6732",0,1,291,4,1,1,"22ce30a",66,1
"6832",1,1,308,4,4,1,"22ce30a",67,1
"6932",1,1,1622,6,6,1,"22ce30a",68,1
"7032",1,0,698,6,1,1,"22ce30a",69,1
"7132",0,1,468,1,5,1,"22ce30a",70,1
"2144",-1,-1,0,5,1,1,"d0fc35c",1,1
"3144",1,1,1572,4,4,1,"d0fc35c",2,1
"4144",1,0,434,6,1,1,"d0fc35c",3,1
"5144",1,1,997,1,1,1,"d0fc35c",4,1
"6144",1,1,810,6,6,1,"d0fc35c",5,1
"743",1,0,875,4,1,1,"d0fc35c",6,1
"833",1,1,666,5,5,1,"d0fc35c",7,1
"933",1,1,440,6,6,1,"d0fc35c",8,1
"1033",1,1,779,1,1,1,"d0fc35c",9,1
"1133",1,0,667,1,4,1,"d0fc35c",10,1
"1233",1,1,798,4,4,1,"d0fc35c",11,1
"1333",0,0,676,5,5,1,"d0fc35c",12,1
"1433",1,0,628,1,6,1,"d0fc35c",13,1
"1533",1,0,664,1,5,1,"d0fc35c",14,1
"1633",1,0,732,4,1,1,"d0fc35c",15,1
"1733",1,1,620,1,1,1,"d0fc35c",16,1
"1833",1,0,868,1,6,1,"d0fc35c",17,1
"1933",1,1,933,5,5,1,"d0fc35c",18,1
"2033",1,1,717,6,6,1,"d0fc35c",19,1
"2145",0,0,715,4,4,1,"d0fc35c",20,1
"2235",0,1,1133,1,5,1,"d0fc35c",21,1
"2333",0,0,617,6,6,1,"d0fc35c",22,1
"2433",0,1,529,1,5,1,"d0fc35c",23,1
"2533",0,0,244,5,5,1,"d0fc35c",24,1
"2633",0,1,822,6,1,1,"d0fc35c",25,1
"2733",1,1,395,1,1,1,"d0fc35c",26,1
"2833",1,0,603,4,1,1,"d0fc35c",27,1
"2933",1,1,488,4,4,1,"d0fc35c",28,1
"3033",1,1,917,4,4,1,"d0fc35c",29,1
"3145",1,1,772,1,1,1,"d0fc35c",30,1
"3235",1,0,541,1,4,1,"d0fc35c",31,1
"3333",0,0,422,5,5,1,"d0fc35c",32,1
"3433",0,1,521,6,1,1,"d0fc35c",33,1
"3533",1,1,1447,6,6,1,"d0fc35c",34,1
"3633",1,0,1230,5,1,1,"d0fc35c",35,1
"3733",0,1,585,1,6,1,"d0fc35c",36,1
"3833",0,0,941,5,5,1,"d0fc35c",37,1
"3933",1,1,694,6,6,1,"d0fc35c",38,1
"4033",1,0,702,1,5,1,"d0fc35c",39,1
"4145",1,1,680,1,1,1,"d0fc35c",40,1
"4235",1,0,491,1,4,1,"d0fc35c",41,1
"4333",1,1,549,4,4,1,"d0fc35c",42,1
"4433",1,1,580,1,1,1,"d0fc35c",43,1
"4533",1,1,552,6,6,1,"d0fc35c",44,1
"4633",1,0,1443,1,6,1,"d0fc35c",45,1
"4733",1,1,1666,4,4,1,"d0fc35c",46,1
"4833",1,0,673,1,4,1,"d0fc35c",47,1
"4933",0,0,711,5,5,1,"d0fc35c",48,1
"5033",0,1,393,1,5,1,"d0fc35c",49,1
"5145",0,1,479,5,1,1,"d0fc35c",50,1
"5235",1,1,373,1,1,1,"d0fc35c",51,1
"5333",1,1,496,5,5,1,"d0fc35c",52,1
"5433",1,1,383,4,4,1,"d0fc35c",53,1
"5533",1,0,645,4,1,1,"d0fc35c",54,1
"5633",0,1,470,6,1,1,"d0fc35c",55,1
"5733",0,0,708,6,6,1,"d0fc35c",56,1
"5833",0,1,633,1,6,1,"d0fc35c",57,1
"5933",0,1,694,1,4,1,"d0fc35c",58,1
"6033",0,0,764,1,1,1,"d0fc35c",59,1
"6145",1,0,763,1,5,1,"d0fc35c",60,1
"6235",1,1,677,6,6,1,"d0fc35c",61,1
"6333",1,1,366,4,4,1,"d0fc35c",62,1
"6433",1,1,572,5,5,1,"d0fc35c",63,1
"6533",1,1,730,5,5,1,"d0fc35c",64,1
"6633",0,1,706,6,1,1,"d0fc35c",65,1
"6733",0,0,1274,6,6,1,"d0fc35c",66,1
"6833",1,0,1663,4,1,1,"d0fc35c",67,1
"6933",0,1,1683,5,1,1,"d0fc35c",68,1
"7033",0,0,896,1,1,1,"d0fc35c",69,1
"7133",1,1,476,4,4,1,"d0fc35c",70,1
"2146",1,1,449,1,1,0,"10608f0",1,1
"3146",1,1,297,6,6,0,"10608f0",2,1
"4146",1,0,271,1,5,0,"10608f0",3,1
"5146",0,0,272,5,5,0,"10608f0",4,1
"6146",1,0,208,1,6,0,"10608f0",5,1
"744",0,1,107,4,1,0,"10608f0",6,1
"834",1,1,235,4,4,0,"10608f0",7,1
"934",1,1,222,6,6,0,"10608f0",8,1
"1034",1,0,256,1,4,0,"10608f0",9,1
"1134",1,1,228,5,5,0,"10608f0",10,1
"1234",1,0,247,1,5,0,"10608f0",11,1
"1334",0,1,235,1,6,0,"10608f0",12,1
"1434",1,1,238,4,4,0,"10608f0",13,1
"1534",1,1,264,1,1,0,"10608f0",14,1
"1634",1,1,132,1,1,0,"10608f0",15,1
"1734",0,1,258,1,5,0,"10608f0",16,1
"1834",0,1,244,4,1,0,"10608f0",17,1
"1934",1,1,251,4,4,0,"10608f0",18,1
"2034",1,1,197,6,6,0,"10608f0",19,1
"2147",0,1,223,6,1,0,"10608f0",20,1
"2236",1,1,199,5,5,0,"10608f0",21,1
"2334",1,1,232,5,5,0,"10608f0",22,1
"2434",1,1,283,1,1,0,"10608f0",23,1
"2534",0,1,259,1,6,0,"10608f0",24,1
"2634",0,1,222,4,1,0,"10608f0",25,1
"2734",1,1,78,4,4,0,"10608f0",26,1
"2834",0,1,138,5,1,0,"10608f0",27,1
"2934",1,1,70,6,6,0,"10608f0",28,1
"3034",1,1,246,4,4,0,"10608f0",29,1
"3147",1,1,215,5,5,0,"10608f0",30,1
"3236",0,1,234,5,1,0,"10608f0",31,1
"3334",1,1,150,6,6,0,"10608f0",32,1
"3434",0,1,108,6,1,0,"10608f0",33,1
"3534",0,1,92,1,4,0,"10608f0",34,1
"3634",1,1,161,1,1,0,"10608f0",35,1
"3734",1,1,167,5,5,0,"10608f0",36,1
"3834",1,1,131,4,4,0,"10608f0",37,1
"3934",0,1,49,1,6,0,"10608f0",38,1
"4034",0,1,172,4,1,0,"10608f0",39,1
"4147",1,1,257,6,6,0,"10608f0",40,1
"4236",0,1,34,5,1,0,"10608f0",41,1
"4334",1,1,83,1,1,0,"10608f0",42,1
"4434",0,0,238,5,5,0,"10608f0",43,1
"4534",0,1,202,1,6,0,"10608f0",44,1
"4634",0,1,202,4,1,0,"10608f0",45,1
"4734",1,1,236,4,4,0,"10608f0",46,1
"4834",1,1,189,1,1,0,"10608f0",47,1
"4934",0,1,249,1,5,0,"10608f0",48,1
"5034",1,1,574,6,6,0,"10608f0",49,1
"5147",1,1,285,5,5,0,"10608f0",50,1
"5236",0,1,337,1,6,0,"10608f0",51,1
"5334",0,1,45,1,4,0,"10608f0",52,1
"5434",1,1,267,4,4,0,"10608f0",53,1
"5534",1,1,200,1,1,0,"10608f0",54,1
"5634",1,1,229,6,6,0,"10608f0",55,1
"5734",0,1,84,1,5,0,"10608f0",56,1
"5834",1,1,120,4,4,0,"10608f0",57,1
"5934",1,1,178,1,1,0,"10608f0",58,1
"6034",1,1,56,5,5,0,"10608f0",59,1
"6147",0,1,161,4,1,0,"10608f0",60,1
"6236",0,1,232,1,5,0,"10608f0",61,1
"6334",1,1,131,6,6,0,"10608f0",62,1
"6434",0,1,50,1,6,0,"10608f0",63,1
"6534",0,1,112,6,1,0,"10608f0",64,1
"6634",1,1,45,1,1,0,"10608f0",65,1
"6734",0,1,99,5,1,0,"10608f0",66,1
"6834",1,1,137,6,6,0,"10608f0",67,1
"6934",1,1,252,5,5,0,"10608f0",68,1
"7034",1,1,111,4,4,0,"10608f0",69,1
"7134",0,1,92,1,4,0,"10608f0",70,1
"2148",-1,-1,0,1,5,2,"19f91cd",1,1
"3148",-1,-1,0,5,5,2,"19f91cd",2,1
"4148",-1,-1,0,6,1,2,"19f91cd",3,1
"5148",-1,-1,0,1,1,2,"19f91cd",4,1
"6148",-1,-1,0,4,1,2,"19f91cd",5,1
"745",-1,-1,0,4,4,2,"19f91cd",6,1
"835",-1,-1,0,6,6,2,"19f91cd",7,1
"935",-1,-1,0,1,5,2,"19f91cd",8,1
"1035",-1,-1,0,1,1,2,"19f91cd",9,1
"1135",-1,-1,0,5,5,2,"19f91cd",10,1
"1235",-1,-1,0,4,1,2,"19f91cd",11,1
"1335",-1,-1,0,4,4,2,"19f91cd",12,1
"1435",-1,-1,0,6,6,2,"19f91cd",13,1
"1535",-1,-1,0,1,6,2,"19f91cd",14,1
"1635",-1,-1,0,1,6,2,"19f91cd",15,1
"1735",-1,-1,0,5,5,2,"19f91cd",16,1
"1835",-1,-1,0,1,1,2,"19f91cd",17,1
"1935",-1,-1,0,6,6,2,"19f91cd",18,1
"2035",-1,-1,0,4,1,2,"19f91cd",19,1
"2149",-1,-1,0,1,5,2,"19f91cd",20,1
"2237",-1,-1,0,4,4,2,"19f91cd",21,1
"2335",-1,-1,0,4,1,2,"19f91cd",22,1
"2435",-1,-1,0,6,1,2,"19f91cd",23,1
"2535",-1,-1,0,5,5,2,"19f91cd",24,1
"2635",-1,-1,0,6,6,2,"19f91cd",25,1
"2735",-1,-1,0,1,5,2,"19f91cd",26,1
"2835",-1,-1,0,4,4,2,"19f91cd",27,1
"2935",-1,-1,0,1,1,2,"19f91cd",28,1
"3035",-1,-1,0,4,4,2,"19f91cd",29,1
"3149",-1,-1,0,5,5,2,"19f91cd",30,1
"3237",-1,-1,0,1,5,2,"19f91cd",31,1
"3335",-1,-1,0,1,6,2,"19f91cd",32,1
"3435",-1,-1,0,6,6,2,"19f91cd",33,1
"3535",-1,-1,0,4,1,2,"19f91cd",34,1
"3635",-1,-1,0,1,1,2,"19f91cd",35,1
"3735",-1,-1,0,1,1,2,"19f91cd",36,1
"3835",-1,-1,0,6,6,2,"19f91cd",37,1
"3935",-1,-1,0,5,1,2,"19f91cd",38,1
"4035",-1,-1,0,1,4,2,"19f91cd",39,1
"4149",-1,-1,0,5,5,2,"19f91cd",40,1
"4237",-1,-1,0,4,4,2,"19f91cd",41,1
"4335",-1,-1,0,1,6,2,"19f91cd",42,1
"4435",-1,-1,0,4,1,2,"19f91cd",43,1
"4535",-1,-1,0,6,6,2,"19f91cd",44,1
"4635",-1,-1,0,1,1,2,"19f91cd",45,1
"4735",-1,-1,0,5,1,2,"19f91cd",46,1
"4835",-1,-1,0,5,5,2,"19f91cd",47,1
"4935",-1,-1,0,6,1,2,"19f91cd",48,1
"5035",-1,-1,0,4,4,2,"19f91cd",49,1
"5149",-1,-1,0,5,1,2,"19f91cd",50,1
"5237",-1,-1,0,1,4,2,"19f91cd",51,1
"5335",-1,-1,0,1,1,2,"19f91cd",52,1
"5435",-1,-1,0,6,6,2,"19f91cd",53,1
"5535",-1,-1,0,4,4,2,"19f91cd",54,1
"5635",0,0,622,5,5,2,"19f91cd",55,1
"5735",-1,-1,0,1,6,2,"19f91cd",56,1
"5835",-1,-1,0,1,1,2,"19f91cd",57,1
"5935",-1,-1,0,5,5,2,"19f91cd",58,1
"6035",-1,-1,0,6,6,2,"19f91cd",59,1
"6149",-1,-1,0,4,4,2,"19f91cd",60,1
"6237",-1,-1,0,4,1,2,"19f91cd",61,1
"6335",-1,-1,0,1,5,2,"19f91cd",62,1
"6435",-1,-1,0,1,6,2,"19f91cd",63,1
"6535",-1,-1,0,6,1,2,"19f91cd",64,1
"6635",-1,-1,0,6,6,2,"19f91cd",65,1
"6735",-1,-1,0,5,5,2,"19f91cd",66,1
"6835",-1,-1,0,1,5,2,"19f91cd",67,1
"6935",-1,-1,0,1,1,2,"19f91cd",68,1
"7035",-1,-1,0,4,1,2,"19f91cd",69,1
"7135",-1,-1,0,4,4,2,"19f91cd",70,1
"2150",1,1,311,4,4,2,"1cd6f2e",1,1
"3150",1,1,273,1,1,2,"1cd6f2e",2,1
"4150",1,1,169,5,5,2,"1cd6f2e",3,1
"5150",1,1,220,6,6,2,"1cd6f2e",4,1
"6150",0,1,284,1,6,2,"1cd6f2e",5,1
"746",0,1,330,5,1,2,"1cd6f2e",6,1
"836",0,1,513,1,4,2,"1cd6f2e",7,1
"936",1,1,296,6,6,2,"1cd6f2e",8,1
"1036",1,1,459,4,4,2,"1cd6f2e",9,1
"1136",0,1,364,5,1,2,"1cd6f2e",10,1
"1236",1,1,339,5,5,2,"1cd6f2e",11,1
"1336",1,1,381,1,1,2,"1cd6f2e",12,1
"1436",0,1,310,1,4,2,"1cd6f2e",13,1
"1536",0,1,530,1,6,2,"1cd6f2e",14,1
"1636",0,1,441,1,4,2,"1cd6f2e",15,1
"1736",1,1,289,5,5,2,"1cd6f2e",16,1
"1836",1,1,1501,4,4,2,"1cd6f2e",17,1
"1936",-1,-1,0,1,1,2,"1cd6f2e",18,1
"2036",1,1,288,6,6,2,"1cd6f2e",19,1
"2151",0,1,304,1,5,2,"1cd6f2e",20,1
"2238",0,1,489,1,6,2,"1cd6f2e",21,1
"2336",0,1,282,1,6,2,"1cd6f2e",22,1
"2436",1,1,1202,6,6,2,"1cd6f2e",23,1
"2536",1,1,1979,5,5,2,"1cd6f2e",24,1
"2636",1,1,575,1,1,2,"1cd6f2e",25,1
"2736",0,1,353,1,4,2,"1cd6f2e",26,1
"2836",0,1,901,1,5,2,"1cd6f2e",27,1
"2936",1,1,474,4,4,2,"1cd6f2e",28,1
"3036",1,1,352,4,4,2,"1cd6f2e",29,1
"3151",1,1,274,6,6,2,"1cd6f2e",30,1
"3238",0,1,665,1,5,2,"1cd6f2e",31,1
"3336",1,1,606,5,5,2,"1cd6f2e",32,1
"3436",0,1,287,1,6,2,"1cd6f2e",33,1
"3536",1,1,1065,1,1,2,"1cd6f2e",34,1
"3636",0,1,349,4,1,2,"1cd6f2e",35,1
"3736",1,1,345,4,4,2,"1cd6f2e",36,1
"3836",1,1,786,5,5,2,"1cd6f2e",37,1
"3936",1,1,249,6,6,2,"1cd6f2e",38,1
"4036",0,1,453,6,1,2,"1cd6f2e",39,1
"4151",1,1,405,1,1,2,"1cd6f2e",40,1
"4238",0,1,455,1,4,2,"1cd6f2e",41,1
"4336",0,1,455,1,5,2,"1cd6f2e",42,1
"4436",1,1,1489,1,1,2,"1cd6f2e",43,1
"4536",0,1,273,6,1,2,"1cd6f2e",44,1
"4636",1,1,43,6,6,2,"1cd6f2e",45,1
"4736",1,1,133,4,4,2,"1cd6f2e",46,1
"4836",1,1,583,5,5,2,"1cd6f2e",47,1
"4936",0,1,597,5,1,2,"1cd6f2e",48,1
"5036",0,1,230,1,4,2,"1cd6f2e",49,1
"5151",1,1,467,4,4,2,"1cd6f2e",50,1
"5238",0,1,274,1,6,2,"1cd6f2e",51,1
"5336",1,1,333,5,5,2,"1cd6f2e",52,1
"5436",1,1,414,6,6,2,"1cd6f2e",53,1
"5536",0,1,257,4,1,2,"1cd6f2e",54,1
"5636",1,1,343,1,1,2,"1cd6f2e",55,1
"5736",0,1,309,1,5,2,"1cd6f2e",56,1
"5836",1,1,226,5,5,2,"1cd6f2e",57,1
"5936",1,1,218,4,4,2,"1cd6f2e",58,1
"6036",1,1,304,1,1,2,"1cd6f2e",59,1
"6151",0,1,163,6,1,2,"1cd6f2e",60,1
"6238",0,1,7,1,5,2,"1cd6f2e",61,1
"6336",0,1,297,1,4,2,"1cd6f2e",62,1
"6436",1,1,137,6,6,2,"1cd6f2e",63,1
"6536",0,1,639,4,1,2,"1cd6f2e",64,1
"6636",0,1,607,5,1,2,"1cd6f2e",65,1
"6736",1,1,957,1,1,2,"1cd6f2e",66,1
"6836",1,1,355,4,4,2,"1cd6f2e",67,1
"6936",1,1,293,6,6,2,"1cd6f2e",68,1
"7036",0,1,218,1,6,2,"1cd6f2e",69,1
"7136",1,1,451,5,5,2,"1cd6f2e",70,1
"2152",1,0,558,5,1,1,"15ae44c",1,1
"3152",1,1,619,5,5,1,"15ae44c",2,1
"4152",1,1,825,6,6,1,"15ae44c",3,1
"5152",1,1,642,1,1,1,"15ae44c",4,1
"6152",1,0,395,6,1,1,"15ae44c",5,1
"747",0,1,910,1,4,1,"15ae44c",6,1
"837",1,1,469,4,4,1,"15ae44c",7,1
"937",0,1,513,6,1,1,"15ae44c",8,1
"1037",1,1,345,4,4,1,"15ae44c",9,1
"1137",0,0,443,5,5,1,"15ae44c",10,1
"1237",0,1,383,1,4,1,"15ae44c",11,1
"1337",1,1,308,6,6,1,"15ae44c",12,1
"1437",1,1,251,1,1,1,"15ae44c",13,1
"1537",0,1,433,1,5,1,"15ae44c",14,1
"1637",0,1,508,1,5,1,"15ae44c",15,1
"1737",1,1,345,6,6,1,"15ae44c",16,1
"1837",0,1,556,4,1,1,"15ae44c",17,1
"1937",0,1,341,1,6,1,"15ae44c",18,1
"2037",1,1,263,1,1,1,"15ae44c",19,1
"2153",1,1,256,5,5,1,"15ae44c",20,1
"2239",1,1,333,4,4,1,"15ae44c",21,1
"2337",1,1,327,1,1,1,"15ae44c",22,1
"2437",1,1,317,5,5,1,"15ae44c",23,1
"2537",1,1,695,4,4,1,"15ae44c",24,1
"2637",0,1,262,1,6,1,"15ae44c",25,1
"2737",1,1,365,6,6,1,"15ae44c",26,1
"2837",0,1,1645,1,4,1,"15ae44c",27,1
"2937",0,1,430,5,1,1,"15ae44c",28,1
"3037",0,1,356,1,6,1,"15ae44c",29,1
"3153",1,1,919,4,4,1,"15ae44c",30,1
"3239",1,1,440,1,1,1,"15ae44c",31,1
"3337",1,1,388,5,5,1,"15ae44c",32,1
"3437",0,1,262,5,1,1,"15ae44c",33,1
"3537",1,1,251,6,6,1,"15ae44c",34,1
"3637",0,1,241,1,4,1,"15ae44c",35,1
"3737",0,1,294,4,1,1,"15ae44c",36,1
"3837",1,1,408,6,6,1,"15ae44c",37,1
"3937",1,1,280,5,5,1,"15ae44c",38,1
"4037",0,1,899,5,1,1,"15ae44c",39,1
"4153",0,1,269,6,1,1,"15ae44c",40,1
"4239",1,1,335,1,1,1,"15ae44c",41,1
"4337",1,1,331,4,4,1,"15ae44c",42,1
"4437",0,1,351,6,1,1,"15ae44c",43,1
"4537",1,1,236,6,6,1,"15ae44c",44,1
"4637",0,1,405,1,5,1,"15ae44c",45,1
"4737",1,1,396,5,5,1,"15ae44c",46,1
"4837",1,1,564,1,1,1,"15ae44c",47,1
"4937",0,1,241,4,1,1,"15ae44c",48,1
"5037",1,1,57,4,4,1,"15ae44c",49,1
"5153",1,1,295,1,1,1,"15ae44c",50,1
"5239",1,1,201,6,6,1,"15ae44c",51,1
"5337",1,1,119,5,5,1,"15ae44c",52,1
"5437",0,1,236,6,1,1,"15ae44c",53,1
"5537",1,1,293,4,4,1,"15ae44c",54,1
"5637",0,1,235,5,1,1,"15ae44c",55,1
"5737",0,1,455,1,4,1,"15ae44c",56,1
"5837",1,1,307,1,1,1,"15ae44c",57,1
"5937",0,1,265,1,5,1,"15ae44c",58,1
"6037",1,1,313,5,5,1,"15ae44c",59,1
"6153",0,1,478,1,4,1,"15ae44c",60,1
"6239",0,1,260,6,1,1,"15ae44c",61,1
"6337",1,1,365,6,6,1,"15ae44c",62,1
"6437",1,1,513,4,4,1,"15ae44c",63,1
"6537",1,1,1512,5,5,1,"15ae44c",64,1
"6637",0,1,413,1,5,1,"15ae44c",65,1
"6737",0,1,451,1,4,1,"15ae44c",66,1
"6837",0,1,300,1,6,1,"15ae44c",67,1
"6937",1,1,466,6,6,1,"15ae44c",68,1
"7037",1,1,303,4,4,1,"15ae44c",69,1
"7137",1,1,388,1,1,1,"15ae44c",70,1
"2154",0,1,580,5,1,0,"1624e57",1,1
"3154",0,1,466,1,6,0,"1624e57",2,1
"4154",0,1,402,1,4,0,"1624e57",3,1
"5154",1,1,371,6,6,0,"1624e57",4,1
"6154",1,1,375,4,4,0,"1624e57",5,1
"748",1,1,358,1,1,0,"1624e57",6,1
"838",1,1,331,5,5,0,"1624e57",7,1
"938",1,1,430,6,6,0,"1624e57",8,1
"1038",0,1,385,1,5,0,"1624e57",9,1
"1138",1,1,296,1,1,0,"1624e57",10,1
"1238",0,1,325,4,1,0,"1624e57",11,1
"1338",1,1,278,4,4,0,"1624e57",12,1
"1438",0,1,160,6,1,0,"1624e57",13,1
"1538",1,1,367,5,5,0,"1624e57",14,1
"1638",1,1,364,5,5,0,"1624e57",15,1
"1738",0,1,604,1,4,0,"1624e57",16,1
"1838",1,1,269,4,4,0,"1624e57",17,1
"1938",0,1,369,1,6,0,"1624e57",18,1
"2038",1,1,309,6,6,0,"1624e57",19,1
"2155",0,1,341,1,5,0,"1624e57",20,1
"2240",1,1,287,1,1,0,"1624e57",21,1
"2338",1,1,822,4,4,0,"1624e57",22,1
"2438",1,1,354,5,5,0,"1624e57",23,1
"2538",1,1,294,6,6,0,"1624e57",24,1
"2638",1,1,484,1,1,0,"1624e57",25,1
"2738",0,1,278,4,1,0,"1624e57",26,1
"2838",0,1,531,1,6,0,"1624e57",27,1
"2938",0,1,505,5,1,0,"1624e57",28,1
"3038",0,1,308,6,1,0,"1624e57",29,1
"3155",1,1,268,4,4,0,"1624e57",30,1
"3240",1,1,315,6,6,0,"1624e57",31,1
"3338",0,1,290,1,4,0,"1624e57",32,1
"3438",1,1,295,1,1,0,"1624e57",33,1
"3538",0,1,447,1,5,0,"1624e57",34,1
"3638",1,1,261,5,5,0,"1624e57",35,1
"3738",0,1,286,1,4,0,"1624e57",36,1
"3838",0,1,335,1,6,0,"1624e57",37,1
"3938",0,1,259,5,1,0,"1624e57",38,1
"4038",1,1,298,4,4,0,"1624e57",39,1
"4155",1,1,277,5,5,0,"1624e57",40,1
"4240",1,1,325,6,6,0,"1624e57",41,1
"4338",1,1,307,1,1,0,"1624e57",42,1
"4438",0,1,242,1,6,0,"1624e57",43,1
"4538",0,1,393,1,5,0,"1624e57",44,1
"4638",1,1,279,6,6,0,"1624e57",45,1
"4738",1,1,309,1,1,0,"1624e57",46,1
"4838",1,1,297,4,4,0,"1624e57",47,1
"4938",0,1,250,1,4,0,"1624e57",48,1
"5038",1,1,239,5,5,0,"1624e57",49,1
"5155",1,1,749,6,6,0,"1624e57",50,1
"5240",1,1,321,5,5,0,"1624e57",51,1
"5338",0,1,362,1,6,0,"1624e57",52,1
"5438",0,1,399,1,5,0,"1624e57",53,1
"5538",1,1,285,1,1,0,"1624e57",54,1
"5638",1,1,288,4,4,0,"1624e57",55,1
"5738",0,1,363,4,1,0,"1624e57",56,1
"5838",0,1,433,5,1,0,"1624e57",57,1
"5938",1,1,529,6,6,0,"1624e57",58,1
"6038",1,1,509,1,1,0,"1624e57",59,1
"6155",0,1,344,4,1,0,"1624e57",60,1
"6240",1,1,388,4,4,0,"1624e57",61,1
"6338",0,1,313,6,1,0,"1624e57",62,1
"6438",1,1,308,5,5,0,"1624e57",63,1
"6538",0,1,273,5,1,0,"1624e57",64,1
"6638",0,1,312,1,6,0,"1624e57",65,1
"6738",1,1,302,5,5,0,"1624e57",66,1
"6838",1,1,320,1,1,0,"1624e57",67,1
"6938",1,1,328,6,6,0,"1624e57",68,1
"7038",0,1,328,4,1,0,"1624e57",69,1
"7138",1,1,194,4,4,0,"1624e57",70,1
"2156",1,1,941,5,5,3,"1e1989b",1,1
"3156",1,1,350,4,4,3,"1e1989b",2,1
"4156",0,1,362,6,1,3,"1e1989b",3,1
"5156",1,1,411,1,1,3,"1e1989b",4,1
"6156",1,1,387,6,6,3,"1e1989b",5,1
"749",1,0,522,1,4,3,"1e1989b",6,1
"839",1,0,351,5,1,3,"1e1989b",7,1
"939",1,1,339,6,6,3,"1e1989b",8,1
"1039",1,1,163,4,4,3,"1e1989b",9,1
"1139",1,0,238,1,6,3,"1e1989b",10,1
"1239",1,1,296,1,1,3,"1e1989b",11,1
"1339",0,1,173,1,4,3,"1e1989b",12,1
"1439",0,1,140,5,1,3,"1e1989b",13,1
"1539",1,1,337,5,5,3,"1e1989b",14,1
"1639",1,1,257,1,1,3,"1e1989b",15,1
"1739",0,1,303,1,5,3,"1e1989b",16,1
"1839",1,0,340,1,4,3,"1e1989b",17,1
"1939",0,1,979,6,1,3,"1e1989b",18,1
"2039",1,1,336,6,6,3,"1e1989b",19,1
"2157",0,0,236,4,4,3,"1e1989b",20,1
"2241",1,1,616,5,5,3,"1e1989b",21,1
"2339",1,1,388,1,1,3,"1e1989b",22,1
"2439",1,1,473,5,5,3,"1e1989b",23,1
"2539",0,1,449,1,6,3,"1e1989b",24,1
"2639",1,1,342,4,4,3,"1e1989b",25,1
"2739",0,1,323,4,1,3,"1e1989b",26,1
"2839",0,1,391,5,1,3,"1e1989b",27,1
"2939",1,1,271,6,6,3,"1e1989b",28,1
"3039",0,1,486,1,6,3,"1e1989b",29,1
"3157",1,1,410,1,1,3,"1e1989b",30,1
"3241",1,1,461,5,5,3,"1e1989b",31,1
"3339",0,1,397,5,1,3,"1e1989b",32,1
"3439",0,1,1406,4,1,3,"1e1989b",33,1
"3539",1,1,316,6,6,3,"1e1989b",34,1
"3639",1,1,349,4,4,3,"1e1989b",35,1
"3739",0,0,276,5,5,3,"1e1989b",36,1
"3839",1,1,293,1,1,3,"1e1989b",37,1
"3939",1,1,296,4,4,3,"1e1989b",38,1
"4039",0,1,456,1,5,3,"1e1989b",39,1
"4157",0,1,352,4,1,3,"1e1989b",40,1
"4241",1,1,421,6,6,3,"1e1989b",41,1
"4339",0,1,426,6,1,3,"1e1989b",42,1
"4439",0,1,325,5,1,3,"1e1989b",43,1
"4539",1,1,468,4,4,3,"1e1989b",44,1
"4639",0,1,317,4,1,3,"1e1989b",45,1
"4739",1,1,415,1,1,3,"1e1989b",46,1
"4839",1,1,412,5,5,3,"1e1989b",47,1
"4939",1,1,274,6,6,3,"1e1989b",48,1
"5039",0,1,292,6,1,3,"1e1989b",49,1
"5157",1,1,300,4,4,3,"1e1989b",50,1
"5241",0,1,361,1,4,3,"1e1989b",51,1
"5339",0,1,292,5,1,3,"1e1989b",52,1
"5439",1,1,264,5,5,3,"1e1989b",53,1
"5539",0,1,317,1,6,3,"1e1989b",54,1
"5639",1,1,256,6,6,3,"1e1989b",55,1
"5739",1,1,228,1,1,3,"1e1989b",56,1
"5839",1,1,472,1,1,3,"1e1989b",57,1
"5939",1,1,374,6,6,3,"1e1989b",58,1
"6039",1,1,462,5,5,3,"1e1989b",59,1
"6157",0,1,384,1,5,3,"1e1989b",60,1
"6241",1,1,450,4,4,3,"1e1989b",61,1
"6339",0,1,572,1,6,3,"1e1989b",62,1
"6439",0,1,864,4,1,3,"1e1989b",63,1
"6539",1,1,534,6,6,3,"1e1989b",64,1
"6639",1,1,582,5,5,3,"1e1989b",65,1
"6739",1,1,472,4,4,3,"1e1989b",66,1
"6839",0,1,562,6,1,3,"1e1989b",67,1
"6939",0,1,498,5,1,3,"1e1989b",68,1
"7039",1,1,452,1,1,3,"1e1989b",69,1
"7139",0,1,593,4,1,3,"1e1989b",70,1
"2158",0,1,757,4,1,0,"105a8b2",1,1
"3158",1,1,399,1,1,0,"105a8b2",2,1
"4158",0,0,520,5,5,0,"105a8b2",3,1
"5158",0,1,409,1,5,0,"105a8b2",4,1
"6158",1,1,663,4,4,0,"105a8b2",5,1
"750",1,1,475,6,6,0,"105a8b2",6,1
"840",0,1,687,1,6,0,"105a8b2",7,1
"940",1,1,428,5,5,0,"105a8b2",8,1
"1040",1,1,564,6,6,0,"105a8b2",9,1
"1140",0,1,544,4,1,0,"105a8b2",10,1
