"","keys","accuracy","rt","Fimg","Simg","feature_index","subID","trialNum","run"
"2",1,0,942,1,3,1,"1f40cfc",1,1
"3",1,0,303,1,4,1,"1f40cfc",2,1
"4",1,1,454,3,3,1,"1f40cfc",3,1
"5",1,1,536,5,5,1,"1f40cfc",4,1
"6",1,1,472,4,4,1,"1f40cfc",5,1
"7",1,1,334,2,2,1,"1f40cfc",6,1
"8",1,1,1368,1,1,1,"1f40cfc",7,1
"9",1,1,596,6,6,1,"1f40cfc",8,1
"10",0,1,222,6,1,1,"1f40cfc",9,1
"11",0,1,324,1,5,1,"1f40cfc",10,1
"12",0,1,214,1,2,1,"1f40cfc",11,1
"13",0,1,1070,1,5,1,"1f40cfc",12,1
"14",1,1,117,1,1,1,"1f40cfc",13,1
"15",1,1,254,2,2,1,"1f40cfc",14,1
"16",1,1,144,6,6,1,"1f40cfc",15,1
"17",1,1,388,4,4,1,"1f40cfc",16,1
"18",1,1,1682,5,5,1,"1f40cfc",17,1
"19",1,0,1025,3,1,1,"1f40cfc",18,1
"20",0,1,1117,6,1,1,"1f40cfc",19,1
"21",1,0,330,2,1,1,"1f40cfc",20,1
"22",1,1,143,3,3,1,"1f40cfc",21,1
"23",-1,-1,0,4,1,1,"1f40cfc",22,1
"24",1,1,228,2,2,1,"1f40cfc",23,1
"25",1,1,1382,4,4,1,"1f40cfc",24,1
"26",0,1,196,1,5,1,"1f40cfc",25,1
"27",1,1,775,5,5,1,"1f40cfc",26,1
"28",1,1,1627,6,6,1,"1f40cfc",27,1
"29",0,1,1443,1,6,1,"1f40cfc",28,1
"30",0,1,135,1,2,1,"1f40cfc",29,1
"31",1,0,1976,4,1,1,"1f40cfc",30,1
"32",1,1,248,1,1,1,"1f40cfc",31,1
"33",0,1,993,3,1,1,"1f40cfc",32,1
"34",1,1,1065,3,3,1,"1f40cfc",33,1
"35",0,1,1489,4,1,1,"1f40cfc",34,1
"36",-1,-1,0,5,5,1,"1f40cfc",35,1
"37",-1,-1,0,6,1,1,"1f40cfc",36,1
"38",-1,-1,0,1,2,1,"1f40cfc",37,1
"39",0,1,317,1,5,1,"1f40cfc",38,1
"40",1,1,1269,3,3,1,"1f40cfc",39,1
"41",0,1,1005,1,3,1,"1f40cfc",40,1
"42",1,1,297,2,2,1,"1f40cfc",41,1
"43",1,1,118,6,6,1,"1f40cfc",42,1
"44",1,1,694,4,4,1,"1f40cfc",43,1
"45",1,1,79,1,1,1,"1f40cfc",44,1
"46",0,1,458,1,6,1,"1f40cfc",45,1
"47",1,1,1234,3,3,1,"1f40cfc",46,1
"48",0,1,1343,1,4,1,"1f40cfc",47,1
"49",1,1,240,6,6,1,"1f40cfc",48,1
"50",1,1,1286,1,1,1,"1f40cfc",49,1
"51",-1,-1,0,4,4,1,"1f40cfc",50,1
"52",0,1,872,2,1,1,"1f40cfc",51,1
"53",1,1,78,2,2,1,"1f40cfc",52,1
"54",1,1,256,5,5,1,"1f40cfc",53,1
"55",0,1,982,3,1,1,"1f40cfc",54,1
"56",0,1,4,1,5,1,"1f40cfc",55,1
"57",0,1,854,1,5,1,"1f40cfc",56,1
"58",1,1,121,3,3,1,"1f40cfc",57,1
"59",0,1,657,1,6,1,"1f40cfc",58,1
"60",0,1,342,1,3,1,"1f40cfc",59,1
"61",1,1,264,2,2,1,"1f40cfc",60,1
"62",1,1,204,4,4,1,"1f40cfc",61,1
"63",0,1,916,2,1,1,"1f40cfc",62,1
"64",1,1,372,5,5,1,"1f40cfc",63,1
"65",1,1,262,6,6,1,"1f40cfc",64,1
"66",1,1,510,1,1,1,"1f40cfc",65,1
"67",0,1,244,1,4,1,"1f40cfc",66,1
"68",1,1,393,2,2,1,"1f40cfc",67,1
"69",0,1,710,2,1,1,"1f40cfc",68,1
"70",1,1,442,1,1,1,"1f40cfc",69,1
"71",1,1,209,5,5,1,"1f40cfc",70,1
"72",1,1,228,6,6,1,"1f40cfc",71,1
"73",0,1,667,1,5,1,"1f40cfc",72,1
"74",1,1,205,4,4,1,"1f40cfc",73,1
"75",0,1,230,4,1,1,"1f40cfc",74,1
"76",1,1,833,3,3,1,"1f40cfc",75,1
"77",0,1,596,6,1,1,"1f40cfc",76,1
"78",0,1,81,3,1,1,"1f40cfc",77,1
"210",1,1,1564,3,3,2,"11a8b63",1,1
"310",1,1,381,1,1,2,"11a8b63",2,1
"410",0,1,441,1,3,2,"11a8b63",3,1
"510",1,0,345,1,4,2,"11a8b63",4,1
"610",0,1,357,1,6,2,"11a8b63",5,1
"79",0,1,437,1,2,2,"11a8b63",6,1
"81",1,1,561,4,4,2,"11a8b63",7,1
"91",0,0,938,2,2,2,"11a8b63",8,1
"101",0,0,504,5,5,2,"11a8b63",9,1
"111",1,1,991,6,6,2,"11a8b63",10,1
"121",-1,-1,0,5,1,2,"11a8b63",11,1
"131",0,1,647,5,1,2,"11a8b63",12,1
"141",0,1,728,4,1,2,"11a8b63",13,1
"151",0,1,621,1,3,2,"11a8b63",14,1
"161",0,0,652,4,4,2,"11a8b63",15,1
"171",1,1,422,5,5,2,"11a8b63",16,1
"181",-1,-1,0,3,3,2,"11a8b63",17,1
"191",1,1,558,1,1,2,"11a8b63",18,1
"201",0,1,511,2,1,2,"11a8b63",19,1
"211",0,1,499,6,1,2,"11a8b63",20,1
"221",1,1,79,6,6,2,"11a8b63",21,1
"231",0,0,375,2,2,2,"11a8b63",22,1
"241",-1,-1,0,5,5,2,"11a8b63",23,1
"251",1,1,427,1,1,2,"11a8b63",24,1
"261",0,0,488,2,2,2,"11a8b63",25,1
"271",1,1,471,3,3,2,"11a8b63",26,1
"281",1,0,353,1,6,2,"11a8b63",27,1
"291",0,1,453,3,1,2,"11a8b63",28,1
"301",0,0,598,6,6,2,"11a8b63",29,1
"311",0,0,542,4,4,2,"11a8b63",30,1
"321",0,1,756,5,1,2,"11a8b63",31,1
"331",0,1,611,1,2,2,"11a8b63",32,1
"341",-1,-1,0,1,4,2,"11a8b63",33,1
"351",-1,-1,0,5,5,2,"11a8b63",34,1
"361",-1,-1,0,1,5,2,"11a8b63",35,1
"371",-1,-1,0,1,3,2,"11a8b63",36,1
"381",-1,-1,0,4,1,2,"11a8b63",37,1
"391",0,0,540,1,1,2,"11a8b63",38,1
"401",1,0,371,2,1,2,"11a8b63",39,1
"411",1,0,1395,1,6,2,"11a8b63",40,1
"421",0,0,1162,2,2,2,"11a8b63",41,1
"431",1,1,455,4,4,2,"11a8b63",42,1
"441",0,0,323,6,6,2,"11a8b63",43,1
"451",1,1,1073,3,3,2,"11a8b63",44,1
"461",1,1,862,1,1,2,"11a8b63",45,1
"471",1,0,63,1,6,2,"11a8b63",46,1
"481",0,0,333,3,3,2,"11a8b63",47,1
"491",1,1,541,2,2,2,"11a8b63",48,1
"501",1,1,402,6,6,2,"11a8b63",49,1
"511",1,0,469,4,1,2,"11a8b63",50,1
"521",1,1,840,4,4,2,"11a8b63",51,1
"531",1,1,1361,5,5,2,"11a8b63",52,1
"541",1,0,680,5,1,2,"11a8b63",53,1
"551",1,0,880,2,1,2,"11a8b63",54,1
"561",1,0,651,1,3,2,"11a8b63",55,1
"571",0,0,365,3,3,2,"11a8b63",56,1
"581",1,0,462,1,3,2,"11a8b63",57,1
"591",0,1,492,1,5,2,"11a8b63",58,1
"601",1,1,1215,5,5,2,"11a8b63",59,1
"611",1,1,565,4,4,2,"11a8b63",60,1
"621",1,0,1150,2,1,2,"11a8b63",61,1
"631",1,1,424,1,1,2,"11a8b63",62,1
"641",1,0,433,4,1,2,"11a8b63",63,1
"651",1,1,927,6,6,2,"11a8b63",64,1
"661",1,0,348,1,6,2,"11a8b63",65,1
"671",1,1,364,2,2,2,"11a8b63",66,1
"681",-1,-1,0,4,4,2,"11a8b63",67,1
"691",-1,-1,0,1,4,2,"11a8b63",68,1
"701",-1,-1,0,1,3,2,"11a8b63",69,1
"711",1,0,1081,1,6,2,"11a8b63",70,1
"721",0,0,1028,2,2,2,"11a8b63",71,1
"731",1,1,631,5,5,2,"11a8b63",72,1
"741",1,1,1382,1,1,2,"11a8b63",73,1
"751",1,1,452,3,3,2,"11a8b63",74,1
"761",-1,-1,0,6,6,2,"11a8b63",75,1
"771",-1,-1,0,5,1,2,"11a8b63",76,1
"781",1,0,380,2,1,2,"11a8b63",77,1
"212",1,1,674,1,1,2,"1539109",1,1
"312",0,1,428,4,1,2,"1539109",2,1
"412",1,1,299,4,4,2,"1539109",3,1
"512",0,0,286,5,5,2,"1539109",4,1
"612",1,1,417,6,6,2,"1539109",5,1
"710",1,0,389,1,2,2,"1539109",6,1
"82",0,1,301,6,1,2,"1539109",7,1
"92",0,1,314,1,3,2,"1539109",8,1
"102",0,1,529,5,1,2,"1539109",9,1
"112",0,0,276,3,3,2,"1539109",10,1
"122",1,1,283,2,2,2,"1539109",11,1
"132",0,0,433,1,1,2,"1539109",12,1
"142",0,1,309,1,5,2,"1539109",13,1
"152",0,1,359,1,6,2,"1539109",14,1
"162",0,1,310,1,3,2,"1539109",15,1
"172",1,1,65,6,6,2,"1539109",16,1
"182",0,0,299,3,3,2,"1539109",17,1
"192",1,0,320,2,1,2,"1539109",18,1
"202",1,1,453,2,2,2,"1539109",19,1
"213",0,1,282,1,4,2,"1539109",20,1
"222",1,1,342,4,4,2,"1539109",21,1
"232",1,1,338,5,5,2,"1539109",22,1
"242",0,1,281,6,1,2,"1539109",23,1
"252",1,1,333,1,1,2,"1539109",24,1
"262",1,0,288,3,1,2,"1539109",25,1
"272",0,0,249,5,5,2,"1539109",26,1
"282",1,1,482,3,3,2,"1539109",27,1
"292",0,1,302,4,1,2,"1539109",28,1
"302",1,1,261,6,6,2,"1539109",29,1
"313",0,1,360,5,1,2,"1539109",30,1
"322",1,1,332,4,4,2,"1539109",31,1
"332",1,1,462,2,2,2,"1539109",32,1
"342",1,0,300,1,2,2,"1539109",33,1
"352",1,1,440,6,6,2,"1539109",34,1
"362",1,1,295,1,1,2,"1539109",35,1
"372",1,1,271,3,3,2,"1539109",36,1
"382",1,1,277,5,5,2,"1539109",37,1
"392",1,1,384,4,4,2,"1539109",38,1
"402",1,0,271,2,1,2,"1539109",39,1
"413",1,1,296,2,2,2,"1539109",40,1
"422",0,1,224,1,6,2,"1539109",41,1
"432",0,1,172,5,1,2,"1539109",42,1
"442",0,1,288,1,3,2,"1539109",43,1
"452",0,1,305,1,4,2,"1539109",44,1
"462",0,1,263,1,4,2,"1539109",45,1
"472",1,1,275,3,3,2,"1539109",46,1
"482",1,1,191,6,6,2,"1539109",47,1
"492",0,1,309,6,1,2,"1539109",48,1
"502",0,1,327,1,5,2,"1539109",49,1
"513",0,1,258,1,3,2,"1539109",50,1
"522",1,1,342,5,5,2,"1539109",51,1
"532",1,1,255,2,2,2,"1539109",52,1
"542",1,1,422,1,1,2,"1539109",53,1
"552",1,1,305,4,4,2,"1539109",54,1
"562",1,0,269,1,2,2,"1539109",55,1
"572",1,1,236,5,5,2,"1539109",56,1
"582",1,1,289,6,6,2,"1539109",57,1
"592",1,1,263,1,1,2,"1539109",58,1
"602",1,0,235,2,1,2,"1539109",59,1
"613",0,1,472,6,1,2,"1539109",60,1
"622",0,1,337,1,5,2,"1539109",61,1
"632",0,1,293,1,3,2,"1539109",62,1
"642",0,1,273,1,4,2,"1539109",63,1
"652",0,0,275,4,4,2,"1539109",64,1
"662",1,1,254,2,2,2,"1539109",65,1
"672",1,1,305,3,3,2,"1539109",66,1
"682",0,1,349,6,1,2,"1539109",67,1
"692",1,1,483,2,2,2,"1539109",68,1
"702",0,1,293,1,4,2,"1539109",69,1
"712",0,1,345,1,5,2,"1539109",70,1
"722",0,0,430,4,4,2,"1539109",71,1
"732",1,0,440,2,1,2,"1539109",72,1
"742",0,1,271,3,1,2,"1539109",73,1
"752",1,1,265,5,5,2,"1539109",74,1
"762",1,1,347,1,1,2,"1539109",75,1
"772",1,1,272,3,3,2,"1539109",76,1
"782",1,1,388,6,6,2,"1539109",77,1
"214",1,0,1776,6,1,2,"1ffad93",1,1
"314",1,0,674,2,1,2,"1ffad93",2,1
"414",1,1,360,2,2,2,"1ffad93",3,1
"514",0,0,332,5,5,2,"1ffad93",4,1
"614",1,0,563,5,1,2,"1ffad93",5,1
"713",1,1,603,6,6,2,"1ffad93",6,1
"83",1,0,400,4,1,2,"1ffad93",7,1
"93",1,1,368,1,1,2,"1ffad93",8,1
"103",1,0,474,3,1,2,"1ffad93",9,1
"113",1,1,529,4,4,2,"1ffad93",10,1
"123",1,1,333,3,3,2,"1ffad93",11,1
"133",1,1,437,3,3,2,"1ffad93",12,1
"143",1,0,314,6,1,2,"1ffad93",13,1
"153",1,1,813,5,5,2,"1ffad93",14,1
"163",1,0,707,5,1,2,"1ffad93",15,1
"173",1,1,283,6,6,2,"1ffad93",16,1
"183",1,1,341,1,1,2,"1ffad93",17,1
"193",1,1,306,4,4,2,"1ffad93",18,1
"203",1,1,436,2,2,2,"1ffad93",19,1
"215",0,1,344,1,3,2,"1ffad93",20,1
"223",1,0,444,1,2,2,"1ffad93",21,1
"233",1,0,311,4,1,2,"1ffad93",22,1
"243",1,1,385,2,2,2,"1ffad93",23,1
"253",0,1,333,6,1,2,"1ffad93",24,1
"263",1,1,300,3,3,2,"1ffad93",25,1
"273",0,1,328,1,3,2,"1ffad93",26,1
"283",0,1,383,2,1,2,"1ffad93",27,1
"293",0,0,330,4,4,2,"1ffad93",28,1
"303",0,1,286,1,5,2,"1ffad93",29,1
"315",1,1,334,5,5,2,"1ffad93",30,1
"323",1,1,286,1,1,2,"1ffad93",31,1
"333",1,1,345,6,6,2,"1ffad93",32,1
"343",0,1,264,1,4,2,"1ffad93",33,1
"353",1,1,336,5,5,2,"1ffad93",34,1
"363",0,1,340,1,3,2,"1ffad93",35,1
"373",0,1,496,1,5,2,"1ffad93",36,1
"383",1,1,930,6,6,2,"1ffad93",37,1
"393",0,1,352,6,1,2,"1ffad93",38,1
"403",1,1,344,2,2,2,"1ffad93",39,1
"415",1,1,404,4,4,2,"1ffad93",40,1
"423",0,1,271,4,1,2,"1ffad93",41,1
"433",0,1,905,2,1,2,"1ffad93",42,1
"443",1,1,367,3,3,2,"1ffad93",43,1
"453",1,1,276,1,1,2,"1ffad93",44,1
"463",1,1,276,1,1,2,"1ffad93",45,1
"473",1,1,364,2,2,2,"1ffad93",46,1
"483",0,1,1419,1,4,2,"1ffad93",47,1
"493",0,1,352,6,1,2,"1ffad93",48,1
"503",1,1,333,6,6,2,"1ffad93",49,1
"515",0,1,595,5,1,2,"1ffad93",50,1
"523",0,1,345,1,2,2,"1ffad93",51,1
"533",1,1,356,5,5,2,"1ffad93",52,1
"543",1,1,564,4,4,2,"1ffad93",53,1
"553",0,1,1090,3,1,2,"1ffad93",54,1
"563",1,1,329,3,3,2,"1ffad93",55,1
"573",0,1,309,3,1,2,"1ffad93",56,1
"583",1,1,349,4,4,2,"1ffad93",57,1
"593",1,1,422,5,5,2,"1ffad93",58,1
"603",0,1,371,1,4,2,"1ffad93",59,1
"615",0,1,1631,2,1,2,"1ffad93",60,1
"623",0,1,670,5,1,2,"1ffad93",61,1
"633",1,1,314,2,2,2,"1ffad93",62,1
"643",1,1,508,1,1,2,"1ffad93",63,1
"653",1,1,400,3,3,2,"1ffad93",64,1
"663",1,1,352,6,6,2,"1ffad93",65,1
"673",0,1,649,1,6,2,"1ffad93",66,1
"683",1,1,395,1,1,2,"1ffad93",67,1
"693",1,0,373,1,2,2,"1ffad93",68,1
"703",0,1,380,4,1,2,"1ffad93",69,1
"714",1,1,375,2,2,2,"1ffad93",70,1
"723",0,1,795,6,1,2,"1ffad93",71,1
"733",1,1,517,6,6,2,"1ffad93",72,1
"743",0,1,325,1,5,2,"1ffad93",73,1
"753",0,1,514,1,3,2,"1ffad93",74,1
"763",1,1,355,3,3,2,"1ffad93",75,1
"773",1,1,415,5,5,2,"1ffad93",76,1
"783",1,1,479,4,4,2,"1ffad93",77,1
"216",1,0,942,1,3,1,"1f40cfc",1,1
"316",1,0,303,1,4,1,"1f40cfc",2,1
"416",1,1,454,3,3,1,"1f40cfc",3,1
"516",1,1,536,5,5,1,"1f40cfc",4,1
"616",1,1,472,4,4,1,"1f40cfc",5,1
"715",1,1,334,2,2,1,"1f40cfc",6,1
"84",1,1,1368,1,1,1,"1f40cfc",7,1
"94",1,1,596,6,6,1,"1f40cfc",8,1
"104",0,1,222,6,1,1,"1f40cfc",9,1
"114",0,1,324,1,5,1,"1f40cfc",10,1
"124",0,1,214,1,2,1,"1f40cfc",11,1
"134",0,1,1070,1,5,1,"1f40cfc",12,1
"144",1,1,117,1,1,1,"1f40cfc",13,1
"154",1,1,254,2,2,1,"1f40cfc",14,1
"164",1,1,144,6,6,1,"1f40cfc",15,1
"174",1,1,388,4,4,1,"1f40cfc",16,1
"184",1,1,1682,5,5,1,"1f40cfc",17,1
"194",1,0,1025,3,1,1,"1f40cfc",18,1
"204",0,1,1117,6,1,1,"1f40cfc",19,1
"217",1,0,330,2,1,1,"1f40cfc",20,1
"224",1,1,143,3,3,1,"1f40cfc",21,1
"234",-1,-1,0,4,1,1,"1f40cfc",22,1
"244",1,1,228,2,2,1,"1f40cfc",23,1
"254",1,1,1382,4,4,1,"1f40cfc",24,1
"264",0,1,196,1,5,1,"1f40cfc",25,1
"274",1,1,775,5,5,1,"1f40cfc",26,1
"284",1,1,1627,6,6,1,"1f40cfc",27,1
"294",0,1,1443,1,6,1,"1f40cfc",28,1
"304",0,1,135,1,2,1,"1f40cfc",29,1
"317",1,0,1976,4,1,1,"1f40cfc",30,1
"324",1,1,248,1,1,1,"1f40cfc",31,1
"334",0,1,993,3,1,1,"1f40cfc",32,1
"344",1,1,1065,3,3,1,"1f40cfc",33,1
"354",0,1,1489,4,1,1,"1f40cfc",34,1
"364",-1,-1,0,5,5,1,"1f40cfc",35,1
"374",-1,-1,0,6,1,1,"1f40cfc",36,1
"384",-1,-1,0,1,2,1,"1f40cfc",37,1
"394",0,1,317,1,5,1,"1f40cfc",38,1
"404",1,1,1269,3,3,1,"1f40cfc",39,1
"417",0,1,1005,1,3,1,"1f40cfc",40,1
"424",1,1,297,2,2,1,"1f40cfc",41,1
"434",1,1,118,6,6,1,"1f40cfc",42,1
"444",1,1,694,4,4,1,"1f40cfc",43,1
"454",1,1,79,1,1,1,"1f40cfc",44,1
"464",0,1,458,1,6,1,"1f40cfc",45,1
"474",1,1,1234,3,3,1,"1f40cfc",46,1
"484",0,1,1343,1,4,1,"1f40cfc",47,1
"494",1,1,240,6,6,1,"1f40cfc",48,1
"504",1,1,1286,1,1,1,"1f40cfc",49,1
"517",-1,-1,0,4,4,1,"1f40cfc",50,1
"524",0,1,872,2,1,1,"1f40cfc",51,1
"534",1,1,78,2,2,1,"1f40cfc",52,1
"544",1,1,256,5,5,1,"1f40cfc",53,1
"554",0,1,982,3,1,1,"1f40cfc",54,1
"564",0,1,4,1,5,1,"1f40cfc",55,1
"574",0,1,854,1,5,1,"1f40cfc",56,1
"584",1,1,121,3,3,1,"1f40cfc",57,1
"594",0,1,657,1,6,1,"1f40cfc",58,1
"604",0,1,342,1,3,1,"1f40cfc",59,1
"617",1,1,264,2,2,1,"1f40cfc",60,1
"624",1,1,204,4,4,1,"1f40cfc",61,1
"634",0,1,916,2,1,1,"1f40cfc",62,1
"644",1,1,372,5,5,1,"1f40cfc",63,1
"654",1,1,262,6,6,1,"1f40cfc",64,1
"664",1,1,510,1,1,1,"1f40cfc",65,1
"674",0,1,244,1,4,1,"1f40cfc",66,1
"684",1,1,393,2,2,1,"1f40cfc",67,1
"694",0,1,710,2,1,1,"1f40cfc",68,1
"704",1,1,442,1,1,1,"1f40cfc",69,1
"716",1,1,209,5,5,1,"1f40cfc",70,1
"724",1,1,228,6,6,1,"1f40cfc",71,1
"734",0,1,667,1,5,1,"1f40cfc",72,1
"744",1,1,205,4,4,1,"1f40cfc",73,1
"754",0,1,230,4,1,1,"1f40cfc",74,1
"764",1,1,833,3,3,1,"1f40cfc",75,1
"774",0,1,596,6,1,1,"1f40cfc",76,1
"784",0,1,81,3,1,1,"1f40cfc",77,1
"218",1,1,710,2,2,1,"1871443",1,1
"318",1,0,1040,4,1,1,"1871443",2,1
"418",1,0,510,2,1,1,"1871443",3,1
"518",1,1,316,4,4,1,"1871443",4,1
"618",1,0,527,5,1,1,"1871443",5,1
"717",0,1,372,1,6,1,"1871443",6,1
"85",0,0,344,3,3,1,"1871443",7,1
"95",0,0,543,1,1,1,"1871443",8,1
"105",0,0,377,6,6,1,"1871443",9,1
"115",1,1,561,5,5,1,"1871443",10,1
"125",1,0,317,1,3,1,"1871443",11,1
"135",1,0,511,3,1,1,"1871443",12,1
"145",1,1,337,2,2,1,"1871443",13,1
"155",0,0,398,4,4,1,"1871443",14,1
"165",1,1,1147,1,1,1,"1871443",15,1
"175",0,0,1040,3,3,1,"1871443",16,1
"185",1,1,534,5,5,1,"1871443",17,1
"195",0,0,389,6,6,1,"1871443",18,1
"205",0,1,404,1,2,1,"1871443",19,1
"219",0,1,452,1,4,1,"1871443",20,1
"225",0,1,394,5,1,1,"1871443",21,1
"235",0,1,418,1,6,1,"1871443",22,1
"245",1,0,322,1,2,1,"1871443",23,1
"255",0,0,398,6,6,1,"1871443",24,1
"265",1,1,499,5,5,1,"1871443",25,1
"275",1,1,1307,4,4,1,"1871443",26,1
"285",1,1,1014,2,2,1,"1871443",27,1
"295",1,0,786,5,1,1,"1871443",28,1
"305",1,1,629,3,3,1,"1871443",29,1
"319",-1,-1,0,3,1,1,"1871443",30,1
"325",1,1,337,1,1,1,"1871443",31,1
"335",-1,-1,0,4,1,1,"1871443",32,1
"345",0,1,461,1,6,1,"1871443",33,1
"355",-1,-1,0,3,3,1,"1871443",34,1
"365",1,1,483,2,2,1,"1871443",35,1
"375",0,0,1539,5,5,1,"1871443",36,1
"385",1,1,1628,1,1,1,"1871443",37,1
"395",1,1,300,6,6,1,"1871443",38,1
"405",0,1,694,1,2,1,"1871443",39,1
"419",0,0,331,4,4,1,"1871443",40,1
"425",0,1,623,1,3,1,"1871443",41,1
"435",0,1,867,1,4,1,"1871443",42,1
"445",0,1,1257,5,1,1,"1871443",43,1
"455",0,1,609,1,6,1,"1871443",44,1
"465",0,1,574,4,1,1,"1871443",45,1
"475",1,1,878,2,2,1,"1871443",46,1
"485",1,0,1722,3,1,1,"1871443",47,1
"495",1,1,1364,3,3,1,"1871443",48,1
"505",1,1,1634,1,1,1,"1871443",49,1
"519",-1,-1,0,5,1,1,"1871443",50,1
"525",0,1,1312,1,6,1,"1871443",51,1
"535",0,1,1002,1,2,1,"1871443",52,1
"545",1,1,727,5,5,1,"1871443",53,1
"555",-1,-1,0,4,4,1,"1871443",54,1
"565",0,0,523,6,6,1,"1871443",55,1
"575",1,1,620,3,3,1,"1871443",56,1
"585",1,1,712,5,5,1,"1871443",57,1
"595",0,1,1094,1,5,1,"1871443",58,1
"605",0,1,668,4,1,1,"1871443",59,1
"619",-1,-1,0,1,1,1,"1871443",60,1
"625",1,1,851,4,4,1,"1871443",61,1
"635",-1,-1,0,6,6,1,"1871443",62,1
"645",0,0,366,2,2,1,"1871443",63,1
"655",1,0,1496,1,6,1,"1871443",64,1
"665",0,1,965,2,1,1,"1871443",65,1
"675",0,1,89,1,3,1,"1871443",66,1
"685",0,0,838,3,3,1,"1871443",67,1
"695",-1,-1,0,1,3,1,"1871443",68,1
"705",-1,-1,0,1,6,1,"1871443",69,1
"718",-1,-1,0,1,5,1,"1871443",70,1
"725",0,0,1492,5,5,1,"1871443",71,1
"735",-1,-1,0,2,2,1,"1871443",72,1
"745",-1,-1,0,1,2,1,"1871443",73,1
"755",-1,-1,0,1,1,1,"1871443",74,1
"765",-1,-1,0,1,4,1,"1871443",75,1
"775",-1,-1,0,4,4,1,"1871443",76,1
"785",-1,-1,0,6,6,1,"1871443",77,1
"220",1,1,421,3,3,3,"115453d",1,1
"320",1,0,345,6,1,3,"115453d",2,1
"420",1,0,313,2,1,3,"115453d",3,1
"520",1,1,269,2,2,3,"115453d",4,1
"620",1,0,249,4,1,3,"115453d",5,1
"719",1,1,276,6,6,3,"115453d",6,1
"86",1,0,238,3,1,3,"115453d",7,1
"96",0,0,354,1,1,3,"115453d",8,1
"106",0,1,333,1,5,3,"115453d",9,1
"116",1,1,336,4,4,3,"115453d",10,1
"126",0,0,312,5,5,3,"115453d",11,1
"136",1,0,337,1,5,3,"115453d",12,1
"146",0,1,291,6,1,3,"115453d",13,1
"156",0,1,630,1,4,3,"115453d",14,1
"166",1,1,309,5,5,3,"115453d",15,1
"176",0,0,239,6,6,3,"115453d",16,1
"186",1,1,235,3,3,3,"115453d",17,1
"196",0,0,419,4,4,3,"115453d",18,1
"206",1,0,717,2,1,3,"115453d",19,1
"2110",0,1,424,3,1,3,"115453d",20,1
"226",0,0,905,2,2,3,"115453d",21,1
"236",1,1,510,1,1,3,"115453d",22,1
"246",1,1,1133,3,3,3,"115453d",23,1
"256",0,0,310,6,6,3,"115453d",24,1
"266",0,1,300,4,1,3,"115453d",25,1
"276",1,1,363,1,1,3,"115453d",26,1
"286",0,1,833,1,3,3,"115453d",27,1
"296",1,0,1742,2,1,3,"115453d",28,1
"306",0,0,948,5,5,3,"115453d",29,1
"3110",0,1,597,6,1,3,"115453d",30,1
"326",1,1,393,2,2,3,"115453d",31,1
"336",0,0,320,4,4,3,"115453d",32,1
"346",1,0,632,1,5,3,"115453d",33,1
"356",1,0,474,1,4,3,"115453d",34,1
"366",1,0,1164,1,2,3,"115453d",35,1
"376",1,1,1472,3,3,3,"115453d",36,1
"386",1,1,312,6,6,3,"115453d",37,1
"396",0,0,331,4,4,3,"115453d",38,1
"406",0,1,311,1,3,3,"115453d",39,1
"4110",0,1,1078,1,5,3,"115453d",40,1
"426",1,0,292,1,6,3,"115453d",41,1
"436",1,1,1591,5,5,3,"115453d",42,1
"446",1,1,1500,1,1,3,"115453d",43,1
"456",0,0,408,2,2,3,"115453d",44,1
"466",1,0,411,5,1,3,"115453d",45,1
"476",1,1,311,4,4,3,"115453d",46,1
"486",0,1,315,6,1,3,"115453d",47,1
"496",0,1,757,3,1,3,"115453d",48,1
"506",1,0,895,2,1,3,"115453d",49,1
"5110",1,1,463,6,6,3,"115453d",50,1
"526",1,1,818,5,5,3,"115453d",51,1
"536",1,1,294,2,2,3,"115453d",52,1
"546",0,1,683,1,4,3,"115453d",53,1
"556",0,0,264,3,3,3,"115453d",54,1
"566",1,1,821,1,1,3,"115453d",55,1
"576",0,0,280,5,5,3,"115453d",56,1
"586",1,0,311,6,1,3,"115453d",57,1
"596",1,0,467,1,5,3,"115453d",58,1
"606",1,1,286,4,4,3,"115453d",59,1
"6110",1,0,1166,3,1,3,"115453d",60,1
"626",-1,-1,0,3,3,3,"115453d",61,1
"636",0,1,438,2,1,3,"115453d",62,1
"646",0,0,920,1,1,3,"115453d",63,1
"656",1,1,647,2,2,3,"115453d",64,1
"666",1,1,674,6,6,3,"115453d",65,1
"676",0,1,598,4,1,3,"115453d",66,1
"686",1,1,410,6,6,3,"115453d",67,1
"696",1,0,466,1,3,3,"115453d",68,1
"706",0,1,796,1,5,3,"115453d",69,1
"7110",0,0,1175,3,3,3,"115453d",70,1
"726",1,1,617,4,4,3,"115453d",71,1
"736",1,1,389,5,5,3,"115453d",72,1
"746",0,1,577,2,1,3,"115453d",73,1
"756",0,1,309,6,1,3,"115453d",74,1
"766",1,1,324,1,1,3,"115453d",75,1
"776",1,1,426,2,2,3,"115453d",76,1
"786",1,0,657,1,4,3,"115453d",77,1
"227",1,1,604,2,2,3,"1bec343",1,1
"327",1,1,547,5,5,3,"1bec343",2,1
"427",1,1,297,3,3,3,"1bec343",3,1
"527",1,1,188,6,6,3,"1bec343",4,1
"627",1,1,191,4,4,3,"1bec343",5,1
"720",0,1,1115,1,5,3,"1bec343",6,1
"87",0,1,864,3,1,3,"1bec343",7,1
"97",0,1,214,1,4,3,"1bec343",8,1
"107",0,1,171,1,6,3,"1bec343",9,1
"117",0,1,172,2,1,3,"1bec343",10,1
"127",1,1,796,1,1,3,"1bec343",11,1
"137",0,1,593,5,1,3,"1bec343",12,1
"147",1,1,512,2,2,3,"1bec343",13,1
"157",1,1,38,4,4,3,"1bec343",14,1
"167",1,1,65,1,1,3,"1bec343",15,1
"177",0,1,29,2,1,3,"1bec343",16,1
"187",0,1,202,1,6,3,"1bec343",17,1
"197",1,1,34,6,6,3,"1bec343",18,1
"207",1,1,38,5,5,3,"1bec343",19,1
"2111",0,1,109,1,3,3,"1bec343",20,1
"228",1,1,649,3,3,3,"1bec343",21,1
"237",0,1,347,1,4,3,"1bec343",22,1
"247",1,1,217,1,1,3,"1bec343",23,1
"257",1,1,105,3,3,3,"1bec343",24,1
"267",1,1,128,5,5,3,"1bec343",25,1
"277",0,1,598,2,1,3,"1bec343",26,1
"287",0,1,159,1,4,3,"1bec343",27,1
"297",1,1,204,4,4,3,"1bec343",28,1
"307",0,1,626,3,1,3,"1bec343",29,1
"3111",0,1,412,6,1,3,"1bec343",30,1
"328",0,1,146,1,5,3,"1bec343",31,1
"337",1,1,644,2,2,3,"1bec343",32,1
"347",1,1,433,6,6,3,"1bec343",33,1
"357",1,1,193,6,6,3,"1bec343",34,1
"367",0,1,281,1,5,3,"1bec343",35,1
"377",1,1,506,5,5,3,"1bec343",36,1
"387",1,1,1763,4,4,3,"1bec343",37,1
"397",1,1,1218,2,2,3,"1bec343",38,1
"407",1,1,161,3,3,3,"1bec343",39,1
"4111",0,1,729,4,1,3,"1bec343",40,1
"428",0,1,787,1,6,3,"1bec343",41,1
"437",0,1,812,2,1,3,"1bec343",42,1
"447",0,1,1208,3,1,3,"1bec343",43,1
"457",1,1,108,1,1,3,"1bec343",44,1
"467",1,1,328,6,6,3,"1bec343",45,1
"477",1,1,217,3,3,3,"1bec343",46,1
"487",1,1,197,1,1,3,"1bec343",47,1
"497",1,1,628,4,4,3,"1bec343",48,1
"507",1,1,434,5,5,3,"1bec343",49,1
"5111",0,1,618,1,2,3,"1bec343",50,1
"528",1,1,269,2,2,3,"1bec343",51,1
"537",0,1,830,1,5,3,"1bec343",52,1
"547",0,1,374,3,1,3,"1bec343",53,1
"557",0,1,636,1,4,3,"1bec343",54,1
"567",0,1,69,6,1,3,"1bec343",55,1
"577",1,1,672,1,1,3,"1bec343",56,1
"587",0,1,169,1,2,3,"1bec343",57,1
"597",0,1,720,3,1,3,"1bec343",58,1
"607",1,1,120,6,6,3,"1bec343",59,1
"6111",1,1,1495,2,2,3,"1bec343",60,1
"628",0,1,827,1,5,3,"1bec343",61,1
"637",0,0,247,5,5,3,"1bec343",62,1
"647",1,1,1575,4,4,3,"1bec343",63,1
"657",1,1,554,3,3,3,"1bec343",64,1
"667",0,1,727,4,1,3,"1bec343",65,1
"677",0,1,491,6,1,3,"1bec343",66,1
"687",0,1,550,6,1,3,"1bec343",67,1
"697",1,1,449,2,2,3,"1bec343",68,1
"707",1,1,165,4,4,3,"1bec343",69,1
"7111",1,1,270,1,1,3,"1bec343",70,1
"727",0,1,207,5,1,3,"1bec343",71,1
"737",0,1,118,4,1,3,"1bec343",72,1
"747",1,1,140,6,6,3,"1bec343",73,1
"757",1,1,92,5,5,3,"1bec343",74,1
"767",1,1,573,3,3,3,"1bec343",75,1
"777",0,1,138,3,1,3,"1bec343",76,1
"787",0,1,757,1,2,3,"1bec343",77,1
"229",1,1,827,2,2,1,"1c8077b",1,1
"329",1,1,451,3,3,1,"1c8077b",2,1
"429",1,1,483,5,5,1,"1c8077b",3,1
"529",1,0,453,1,6,1,"1c8077b",4,1
"629",0,0,520,6,6,1,"1c8077b",5,1
"728",0,1,307,1,4,1,"1c8077b",6,1
"88",1,1,320,1,1,1,"1c8077b",7,1
"98",1,0,389,2,1,1,"1c8077b",8,1
"108",0,1,289,1,3,1,"1c8077b",9,1
"118",0,1,276,1,5,1,"1c8077b",10,1
"128",0,0,295,4,4,1,"1c8077b",11,1
"138",0,1,681,1,2,1,"1c8077b",12,1
"148",0,0,373,6,6,1,"1c8077b",13,1
"158",1,1,407,2,2,1,"1c8077b",14,1
"168",0,0,886,1,1,1,"1c8077b",15,1
"178",1,1,966,4,4,1,"1c8077b",16,1
"188",0,1,575,4,1,1,"1c8077b",17,1
"198",0,1,286,1,5,1,"1c8077b",18,1
"208",1,1,382,5,5,1,"1c8077b",19,1
"2112",0,1,323,1,3,1,"1c8077b",20,1
"2210",0,0,333,3,3,1,"1c8077b",21,1
"238",1,0,324,1,6,1,"1c8077b",22,1
"248",0,1,389,3,1,1,"1c8077b",23,1
"258",0,1,279,1,4,1,"1c8077b",24,1
"268",0,0,449,6,6,1,"1c8077b",25,1
"278",1,1,393,1,1,1,"1c8077b",26,1
"288",0,0,385,5,5,1,"1c8077b",27,1
"298",1,1,555,2,2,1,"1c8077b",28,1
"308",1,0,290,1,2,1,"1c8077b",29,1
"3112",1,1,274,4,4,1,"1c8077b",30,1
"3210",0,1,451,6,1,1,"1c8077b",31,1
"338",1,1,447,3,3,1,"1c8077b",32,1
"348",0,1,370,5,1,1,"1c8077b",33,1
"358",1,1,438,1,1,1,"1c8077b",34,1
"368",1,0,243,1,2,1,"1c8077b",35,1
"378",1,1,266,3,3,1,"1c8077b",36,1
"388",1,1,279,6,6,1,"1c8077b",37,1
"398",0,1,860,5,1,1,"1c8077b",38,1
"408",0,1,290,3,1,1,"1c8077b",39,1
"4112",0,1,412,6,1,1,"1c8077b",40,1
"4210",1,0,260,1,4,1,"1c8077b",41,1
"438",1,1,222,2,2,1,"1c8077b",42,1
"448",0,0,259,4,4,1,"1c8077b",43,1
"458",0,0,292,5,5,1,"1c8077b",44,1
"468",1,1,266,3,3,1,"1c8077b",45,1
"478",0,0,248,6,6,1,"1c8077b",46,1
"488",1,1,284,4,4,1,"1c8077b",47,1
"498",0,0,278,5,5,1,"1c8077b",48,1
"508",1,0,243,4,1,1,"1c8077b",49,1
"5112",1,0,258,1,2,1,"1c8077b",50,1
"5210",1,1,222,2,2,1,"1c8077b",51,1
"538",1,1,792,1,1,1,"1c8077b",52,1
"548",0,1,438,1,5,1,"1c8077b",53,1
"558",1,0,249,1,6,1,"1c8077b",54,1
"568",1,0,252,3,1,1,"1c8077b",55,1
"578",1,1,446,6,6,1,"1c8077b",56,1
"588",0,0,299,4,4,1,"1c8077b",57,1
"598",0,1,291,2,1,1,"1c8077b",58,1
"608",1,1,306,1,1,1,"1c8077b",59,1
"6112",1,1,451,3,3,1,"1c8077b",60,1
"6210",1,0,262,4,1,1,"1c8077b",61,1
"638",1,1,254,2,2,1,"1c8077b",62,1
"648",1,0,394,3,1,1,"1c8077b",63,1
"658",1,0,250,6,1,1,"1c8077b",64,1
"668",0,1,403,5,1,1,"1c8077b",65,1
"678",1,1,307,5,5,1,"1c8077b",66,1
"688",0,0,331,3,3,1,"1c8077b",67,1
"698",1,0,329,1,2,1,"1c8077b",68,1
"708",0,0,272,6,6,1,"1c8077b",69,1
"7112",0,1,364,1,3,1,"1c8077b",70,1
"729",0,1,323,1,4,1,"1c8077b",71,1
"738",1,1,247,4,4,1,"1c8077b",72,1
"748",0,1,459,6,1,1,"1c8077b",73,1
"758",1,1,274,1,1,1,"1c8077b",74,1
"768",0,1,288,1,5,1,"1c8077b",75,1
"778",1,1,258,5,5,1,"1c8077b",76,1
"788",1,1,575,2,2,1,"1c8077b",77,1
"230",1,1,1231,5,5,3,"1ad64d9",1,1
"330",1,1,1211,6,6,3,"1ad64d9",2,1
"430",0,1,590,5,1,3,"1ad64d9",3,1
"530",1,0,485,1,2,3,"1ad64d9",4,1
"630",0,0,293,3,3,3,"1ad64d9",5,1
"730",1,1,293,2,2,3,"1ad64d9",6,1
"89",0,1,317,1,4,3,"1ad64d9",7,1
"99",1,0,403,1,3,3,"1ad64d9",8,1
"109",0,0,344,4,4,3,"1ad64d9",9,1
"119",1,1,396,1,1,3,"1ad64d9",10,1
"129",0,1,540,1,6,3,"1ad64d9",11,1
"139",1,0,360,1,3,3,"1ad64d9",12,1
"149",0,1,1121,1,6,3,"1ad64d9",13,1
"159",1,1,430,5,5,3,"1ad64d9",14,1
"169",0,0,1024,2,2,3,"1ad64d9",15,1
"179",1,1,1294,6,6,3,"1ad64d9",16,1
"189",1,0,1100,1,2,3,"1ad64d9",17,1
"199",0,0,1263,1,1,3,"1ad64d9",18,1
"209",1,0,704,1,4,3,"1ad64d9",19,1
"2113",0,0,596,3,3,3,"1ad64d9",20,1
"2211",1,0,575,5,1,3,"1ad64d9",21,1
"239",0,0,311,4,4,3,"1ad64d9",22,1
"249",1,0,615,4,1,3,"1ad64d9",23,1
"259",1,1,1066,6,6,3,"1ad64d9",24,1
"269",0,0,579,4,4,3,"1ad64d9",25,1
"279",1,1,602,1,1,3,"1ad64d9",26,1
"289",1,1,839,3,3,3,"1ad64d9",27,1
"299",0,0,931,5,5,3,"1ad64d9",28,1
"309",0,1,188,5,1,3,"1ad64d9",29,1
"3113",0,1,338,1,6,3,"1ad64d9",30,1
"3211",0,0,421,2,2,3,"1ad64d9",31,1
"339",1,0,228,3,1,3,"1ad64d9",32,1
"349",0,1,437,1,2,3,"1ad64d9",33,1
"359",0,1,402,1,4,3,"1ad64d9",34,1
"369",0,0,250,1,1,3,"1ad64d9",35,1
"379",1,1,327,3,3,3,"1ad64d9",36,1
"389",0,1,449,1,6,3,"1ad64d9",37,1
"399",1,0,958,1,2,3,"1ad64d9",38,1
"409",0,1,429,1,3,3,"1ad64d9",39,1
"4113",0,0,282,6,6,3,"1ad64d9",40,1
"4211",0,0,338,5,5,3,"1ad64d9",41,1
"439",1,1,873,2,2,3,"1ad64d9",42,1
"449",0,0,291,4,4,3,"1ad64d9",43,1
"459",0,1,406,1,5,3,"1ad64d9",44,1
"469",0,1,447,3,1,3,"1ad64d9",45,1
"479",1,1,343,6,6,3,"1ad64d9",46,1
"489",0,0,118,5,5,3,"1ad64d9",47,1
"499",0,1,415,1,5,3,"1ad64d9",48,1
"509",0,1,227,6,1,3,"1ad64d9",49,1
"5113",1,1,981,2,2,3,"1ad64d9",50,1
"5211",0,0,578,1,1,3,"1ad64d9",51,1
"539",1,0,298,1,4,3,"1ad64d9",52,1
"549",0,1,301,2,1,3,"1ad64d9",53,1
"559",1,1,246,4,4,3,"1ad64d9",54,1
"569",0,0,56,3,3,3,"1ad64d9",55,1
"579",1,0,336,1,5,3,"1ad64d9",56,1
"589",0,0,178,5,5,3,"1ad64d9",57,1
"599",1,1,243,3,3,3,"1ad64d9",58,1
"609",0,0,238,4,4,3,"1ad64d9",59,1
"6113",1,0,302,4,1,3,"1ad64d9",60,1
"6211",0,0,525,1,1,3,"1ad64d9",61,1
"639",0,0,364,6,6,3,"1ad64d9",62,1
"649",0,1,15,6,1,3,"1ad64d9",63,1
"659",1,1,284,2,2,3,"1ad64d9",64,1
"669",0,1,191,1,3,3,"1ad64d9",65,1
"679",0,1,342,1,2,3,"1ad64d9",66,1
"689",1,1,160,4,4,3,"1ad64d9",67,1
"699",1,1,284,3,3,3,"1ad64d9",68,1
"709",0,1,562,6,1,3,"1ad64d9",69,1
"7113",0,1,452,1,3,3,"1ad64d9",70,1
"7210",0,0,224,6,6,3,"1ad64d9",71,1
"739",1,1,238,2,2,3,"1ad64d9",72,1
"749",0,0,317,5,5,3,"1ad64d9",73,1
"759",1,0,335,4,1,3,"1ad64d9",74,1
"769",0,0,477,1,1,3,"1ad64d9",75,1
"779",0,1,203,1,5,3,"1ad64d9",76,1
"789",1,0,264,1,2,3,"1ad64d9",77,1
"240",1,1,468,6,6,2,"1964762",1,1
"340",1,1,428,3,3,2,"1964762",2,1
"440",1,1,300,1,1,2,"1964762",3,1
"540",1,0,409,1,5,2,"1964762",4,1
"640",1,1,273,2,2,2,"1964762",5,1
"740",1,1,513,4,4,2,"1964762",6,1
"810",1,0,383,1,4,2,"1964762",7,1
"910",1,0,379,3,1,2,"1964762",8,1
"1010",0,1,378,6,1,2,"1964762",9,1
"1110",1,1,356,5,5,2,"1964762",10,1
"1210",0,1,1133,2,1,2,"1964762",11,1
"1310",1,0,317,1,5,2,"1964762",12,1
"1410",1,1,486,1,1,2,"1964762",13,1
"1510",1,1,672,6,6,2,"1964762",14,1
"1610",1,1,365,2,2,2,"1964762",15,1
"1710",0,0,511,4,4,2,"1964762",16,1
"1810",1,0,63,6,1,2,"1964762",17,1
"1910",0,0,624,3,3,2,"1964762",18,1
"2010",1,0,761,4,1,2,"1964762",19,1
"2114",1,0,356,2,1,2,"1964762",20,1
"2212",0,1,86,1,3,2,"1964762",21,1
"2310",1,1,281,5,5,2,"1964762",22,1
"2410",1,1,402,2,2,2,"1964762",23,1
"2510",0,1,327,2,1,2,"1964762",24,1
"2610",0,0,250,5,5,2,"1964762",25,1
"2710",1,1,418,4,4,2,"1964762",26,1
"2810",1,0,181,1,6,2,"1964762",27,1
"2910",0,1,565,1,3,2,"1964762",28,1
"3010",1,1,365,6,6,2,"1964762",29,1
"3114",1,0,863,1,5,2,"1964762",30,1
"3212",0,0,734,3,3,2,"1964762",31,1
"3310",1,1,1529,1,1,2,"1964762",32,1
"3410",1,0,314,1,4,2,"1964762",33,1
"3510",1,1,655,3,3,2,"1964762",34,1
"3610",0,1,86,1,6,2,"1964762",35,1
"3710",1,0,334,2,1,2,"1964762",36,1
"3810",0,1,361,1,4,2,"1964762",37,1
"3910",1,1,114,1,1,2,"1964762",38,1
"4010",1,1,107,4,4,2,"1964762",39,1
"4114",0,1,637,1,5,2,"1964762",40,1
"4212",1,1,379,2,2,2,"1964762",41,1
"4310",-1,-1,0,6,6,2,"1964762",42,1
"4410",1,1,358,5,5,2,"1964762",43,1
"4510",0,1,49,1,3,2,"1964762",44,1
"4610",0,1,168,5,1,2,"1964762",45,1
"4710",1,1,331,3,3,2,"1964762",46,1
"4810",0,1,429,1,4,2,"1964762",47,1
"4910",1,1,398,5,5,2,"1964762",48,1
"5010",1,1,491,1,1,2,"1964762",49,1
"5114",0,1,420,3,1,2,"1964762",50,1
"5212",1,0,1218,1,2,2,"1964762",51,1
"5310",0,1,107,6,1,2,"1964762",52,1
"5410",1,1,26,6,6,2,"1964762",53,1
"5510",0,0,460,4,4,2,"1964762",54,1
"5610",1,1,82,2,2,2,"1964762",55,1
"5710",1,1,119,3,3,2,"1964762",56,1
"5810",0,1,473,1,6,2,"1964762",57,1
"5910",1,1,1143,2,2,2,"1964762",58,1
"6010",0,0,439,6,6,2,"1964762",59,1
"6114",1,0,267,3,1,2,"1964762",60,1
"6212",0,1,396,5,1,2,"1964762",61,1
"6310",0,1,520,4,1,2,"1964762",62,1
"6410",1,1,349,5,5,2,"1964762",63,1
"6510",1,1,365,4,4,2,"1964762",64,1
"6610",1,0,302,2,1,2,"1964762",65,1
"6710",1,1,310,1,1,2,"1964762",66,1
"6810",0,1,121,1,4,2,"1964762",67,1
"6910",1,1,147,5,5,2,"1964762",68,1
"7010",0,0,67,3,3,2,"1964762",69,1
"7114",1,1,42,4,4,2,"1964762",70,1
"7211",1,0,329,1,5,2,"1964762",71,1
"7310",0,1,453,1,3,2,"1964762",72,1
"7410",1,1,343,6,6,2,"1964762",73,1
"7510",1,1,396,2,2,2,"1964762",74,1
"7610",1,0,344,1,2,2,"1964762",75,1
"7710",0,1,431,1,6,2,"1964762",76,1
"7810",1,1,512,1,1,2,"1964762",77,1
"250",1,0,1921,3,1,2,"1f02bac",1,1
"350",1,0,486,6,1,2,"1f02bac",2,1
"450",0,0,871,4,4,2,"1f02bac",3,1
"550",1,0,438,4,1,2,"1f02bac",4,1
"650",1,1,351,5,5,2,"1f02bac",5,1
"750",1,0,393,1,2,2,"1f02bac",6,1
"811",1,1,333,1,1,2,"1f02bac",7,1
"911",1,1,359,2,2,2,"1f02bac",8,1
"1011",1,0,447,1,5,2,"1f02bac",9,1
"1111",1,1,456,3,3,2,"1f02bac",10,1
"1211",1,1,501,6,6,2,"1f02bac",11,1
"1311",1,0,366,2,1,2,"1f02bac",12,1
"1411",1,1,473,4,4,2,"1f02bac",13,1
"1511",1,1,337,2,2,2,"1f02bac",14,1
"1611",0,1,369,3,1,2,"1f02bac",15,1
"1711",0,0,413,6,6,2,"1f02bac",16,1
"1811",1,0,372,1,5,2,"1f02bac",17,1
"1911",1,0,342,1,6,2,"1f02bac",18,1
"2011",1,1,328,3,3,2,"1f02bac",19,1
"2115",1,1,166,1,1,2,"1f02bac",20,1
"2213",1,0,356,1,4,2,"1f02bac",21,1
"2311",1,1,387,5,5,2,"1f02bac",22,1
"2411",1,0,416,1,4,2,"1f02bac",23,1
"2511",0,0,345,4,4,2,"1f02bac",24,1
"2611",1,1,431,1,1,2,"1f02bac",25,1
"2711",1,1,1029,2,2,2,"1f02bac",26,1
"2811",1,1,338,6,6,2,"1f02bac",27,1
"2911",1,0,294,1,5,2,"1f02bac",28,1
"3011",1,0,370,2,1,2,"1f02bac",29,1
"3115",1,1,553,5,5,2,"1f02bac",30,1
"3213",1,0,373,6,1,2,"1f02bac",31,1
"3311",1,0,344,1,3,2,"1f02bac",32,1
"3411",1,1,471,3,3,2,"1f02bac",33,1
"3511",1,1,386,4,4,2,"1f02bac",34,1
"3611",1,0,524,6,1,2,"1f02bac",35,1
"3711",1,1,338,1,1,2,"1f02bac",36,1
"3811",1,1,416,2,2,2,"1f02bac",37,1
"3911",1,0,408,4,1,2,"1f02bac",38,1
"4011",1,0,346,5,1,2,"1f02bac",39,1
"4115",1,0,316,3,1,2,"1f02bac",40,1
"4213",1,1,106,6,6,2,"1f02bac",41,1
"4311",1,1,517,3,3,2,"1f02bac",42,1
"4411",1,1,429,5,5,2,"1f02bac",43,1
"4511",1,0,419,1,2,2,"1f02bac",44,1
"4611",1,0,434,1,5,2,"1f02bac",45,1
"4711",1,0,372,1,2,2,"1f02bac",46,1
"4811",1,0,341,1,4,2,"1f02bac",47,1
"4911",1,1,353,2,2,2,"1f02bac",48,1
"5011",1,0,371,1,6,2,"1f02bac",49,1
"5115",1,0,360,3,1,2,"1f02bac",50,1
"5213",1,1,502,5,5,2,"1f02bac",51,1
"5311",1,1,453,1,1,2,"1f02bac",52,1
"5411",1,1,444,6,6,2,"1f02bac",53,1
"5511",1,1,792,3,3,2,"1f02bac",54,1
"5611",1,1,476,4,4,2,"1f02bac",55,1
"5711",1,0,670,1,4,2,"1f02bac",56,1
"5811",1,0,400,5,1,2,"1f02bac",57,1
"5911",1,1,401,5,5,2,"1f02bac",58,1
"6011",1,0,456,1,6,2,"1f02bac",59,1
"6115",1,0,483,2,1,2,"1f02bac",60,1
"6213",1,1,496,4,4,2,"1f02bac",61,1
"6311",1,0,1097,1,3,2,"1f02bac",62,1
"6411",1,1,576,6,6,2,"1f02bac",63,1
"6511",1,1,348,3,3,2,"1f02bac",64,1
"6611",1,1,47,2,2,2,"1f02bac",65,1
"6711",1,1,366,1,1,2,"1f02bac",66,1
"6811",1,0,375,6,1,2,"1f02bac",67,1
"6911",1,1,366,3,3,2,"1f02bac",68,1
"7011",1,0,916,1,5,2,"1f02bac",69,1
"7115",1,1,351,4,4,2,"1f02bac",70,1
"7212",1,1,459,1,1,2,"1f02bac",71,1
"7311",1,1,366,2,2,2,"1f02bac",72,1
"7411",1,0,392,2,1,2,"1f02bac",73,1
"7511",1,0,406,1,4,2,"1f02bac",74,1
"7611",1,1,376,6,6,2,"1f02bac",75,1
"7711",1,1,409,5,5,2,"1f02bac",76,1
"7811",1,0,426,1,3,2,"1f02bac",77,1
"260",1,1,647,2,2,3,"1ad1773",1,1
"360",1,1,469,1,1,3,"1ad1773",2,1
"460",0,1,1707,1,5,3,"1ad1773",3,1
"560",0,1,1004,1,3,3,"1ad1773",4,1
"660",1,1,860,5,5,3,"1ad1773",5,1
"760",1,1,441,6,6,3,"1ad1773",6,1
"812",1,1,367,4,4,3,"1ad1773",7,1
"912",1,1,1021,3,3,3,"1ad1773",8,1
"1012",0,1,788,1,4,3,"1ad1773",9,1
"1112",0,1,381,2,1,3,"1ad1773",10,1
"1212",0,1,790,1,6,3,"1ad1773",11,1
"1312",1,1,784,5,5,3,"1ad1773",12,1
"1412",0,1,1066,3,1,3,"1ad1773",13,1
"1512",1,1,947,2,2,3,"1ad1773",14,1
"1612",1,1,371,4,4,3,"1ad1773",15,1
"1712",1,1,270,3,3,3,"1ad1773",16,1
"1812",0,1,590,1,6,3,"1ad1773",17,1
"1912",0,1,800,2,1,3,"1ad1773",18,1
"2012",1,1,645,1,1,3,"1ad1773",19,1
"2116",0,1,908,5,1,3,"1ad1773",20,1
"2214",1,1,260,6,6,3,"1ad1773",21,1
"2312",0,1,1325,4,1,3,"1ad1773",22,1
"2412",1,1,382,6,6,3,"1ad1773",23,1
"2512",0,1,942,2,1,3,"1ad1773",24,1
"2612",1,1,350,1,1,3,"1ad1773",25,1
"2712",0,1,855,5,1,3,"1ad1773",26,1
"2812",0,1,735,1,4,3,"1ad1773",27,1
"2912",1,1,689,4,4,3,"1ad1773",28,1
"3012",1,1,475,3,3,3,"1ad1773",29,1
"3116",0,1,1093,6,1,3,"1ad1773",30,1
"3214",1,1,549,5,5,3,"1ad1773",31,1
"3312",0,1,1364,1,3,3,"1ad1773",32,1
"3412",1,1,318,2,2,3,"1ad1773",33,1
"3512",1,1,288,5,5,3,"1ad1773",34,1
"3612",0,1,801,2,1,3,"1ad1773",35,1
"3712",1,1,275,6,6,3,"1ad1773",36,1
"3812",1,1,339,2,2,3,"1ad1773",37,1
"3912",0,1,395,6,1,3,"1ad1773",38,1
"4012",1,1,466,3,3,3,"1ad1773",39,1
"4116",1,1,382,4,4,3,"1ad1773",40,1
"4214",1,1,365,1,1,3,"1ad1773",41,1
"4312",0,1,1144,3,1,3,"1ad1773",42,1
"4412",0,1,714,4,1,3,"1ad1773",43,1
"4512",0,1,368,1,5,3,"1ad1773",44,1
"4612",1,1,499,2,2,3,"1ad1773",45,1
"4712",1,1,302,3,3,3,"1ad1773",46,1
"4812",1,1,711,6,6,3,"1ad1773",47,1
"4912",0,1,375,6,1,3,"1ad1773",48,1
"5012",0,1,366,4,1,3,"1ad1773",49,1
"5116",1,1,463,1,1,3,"1ad1773",50,1
"5214",0,1,847,1,2,3,"1ad1773",51,1
"5312",1,1,203,5,5,3,"1ad1773",52,1
"5412",0,1,321,5,1,3,"1ad1773",53,1
"5512",1,1,242,4,4,3,"1ad1773",54,1
"5612",0,1,259,1,3,3,"1ad1773",55,1
"5712",0,1,253,1,5,3,"1ad1773",56,1
"5812",0,1,259,1,4,3,"1ad1773",57,1
"5912",0,1,461,6,1,3,"1ad1773",58,1
"6012",0,1,231,3,1,3,"1ad1773",59,1
"6116",1,1,327,1,1,3,"1ad1773",60,1
"6214",0,1,511,1,2,3,"1ad1773",61,1
"6312",1,1,429,4,4,3,"1ad1773",62,1
"6412",1,1,339,6,6,3,"1ad1773",63,1
"6512",1,1,318,2,2,3,"1ad1773",64,1
"6612",1,1,251,5,5,3,"1ad1773",65,1
"6712",1,1,435,3,3,3,"1ad1773",66,1
"6812",1,1,275,4,4,3,"1ad1773",67,1
"6912",1,1,423,5,5,3,"1ad1773",68,1
"7012",0,1,493,1,2,3,"1ad1773",69,1
"7116",0,1,277,3,1,3,"1ad1773",70,1
"7213",1,1,226,2,2,3,"1ad1773",71,1
"7312",0,1,265,4,1,3,"1ad1773",72,1
"7412",0,1,473,6,1,3,"1ad1773",73,1
"7512",0,1,619,5,1,3,"1ad1773",74,1
"7612",1,1,106,3,3,3,"1ad1773",75,1
"7712",1,1,488,6,6,3,"1ad1773",76,1
"7812",1,1,243,1,1,3,"1ad1773",77,1
"270",1,0,1470,1,5,1,"19167e4",1,1
"370",-1,-1,0,3,3,1,"19167e4",2,1
"470",-1,-1,0,4,4,1,"19167e4",3,1
"570",-1,-1,0,1,6,1,"19167e4",4,1
"670",-1,-1,0,1,3,1,"19167e4",5,1
"770",-1,-1,0,1,4,1,"19167e4",6,1
"813",-1,-1,0,2,2,1,"19167e4",7,1
"913",-1,-1,0,1,1,1,"19167e4",8,1
"1013",-1,-1,0,6,6,1,"19167e4",9,1
"1113",-1,-1,0,2,1,1,"19167e4",10,1
"1213",-1,-1,0,5,5,1,"19167e4",11,1
"1313",-1,-1,0,4,4,1,"19167e4",12,1
"1413",-1,-1,0,1,6,1,"19167e4",13,1
"1513",-1,-1,0,1,4,1,"19167e4",14,1
"1613",-1,-1,0,1,1,1,"19167e4",15,1
"1713",-1,-1,0,2,2,1,"19167e4",16,1
"1813",-1,-1,0,1,5,1,"19167e4",17,1
"1913",-1,-1,0,6,6,1,"19167e4",18,1
"2013",-1,-1,0,1,2,1,"19167e4",19,1
"2117",-1,-1,0,1,3,1,"19167e4",20,1
"2215",-1,-1,0,3,3,1,"19167e4",21,1
"2313",-1,-1,0,5,5,1,"19167e4",22,1
"2413",-1,-1,0,4,4,1,"19167e4",23,1
"2513",-1,-1,0,1,2,1,"19167e4",24,1
"2613",-1,-1,0,3,3,1,"19167e4",25,1
"2713",-1,-1,0,5,5,1,"19167e4",26,1
"2813",-1,-1,0,1,4,1,"19167e4",27,1
"2913",-1,-1,0,1,1,1,"19167e4",28,1
"3013",-1,-1,0,1,6,1,"19167e4",29,1
"3117",-1,-1,0,6,6,1,"19167e4",30,1
"3215",-1,-1,0,1,3,1,"19167e4",31,1
"3313",-1,-1,0,1,5,1,"19167e4",32,1
"3413",-1,-1,0,2,2,1,"19167e4",33,1
"3513",-1,-1,0,5,5,1,"19167e4",34,1
"3613",-1,-1,0,3,3,1,"19167e4",35,1
"3713",-1,-1,0,1,2,1,"19167e4",36,1
"3813",-1,-1,0,1,1,1,"19167e4",37,1
"3913",-1,-1,0,2,2,1,"19167e4",38,1
"4013",-1,-1,0,1,5,1,"19167e4",39,1
"4117",-1,-1,0,4,1,1,"19167e4",40,1
"4215",-1,-1,0,6,1,1,"19167e4",41,1
"4313",-1,-1,0,1,3,1,"19167e4",42,1
"4413",-1,-1,0,4,4,1,"19167e4",43,1
"4513",-1,-1,0,6,6,1,"19167e4",44,1
"4613",-1,-1,0,1,4,1,"19167e4",45,1
"4713",-1,-1,0,2,1,1,"19167e4",46,1
"4813",-1,-1,0,3,1,1,"19167e4",47,1
"4913",-1,-1,0,5,5,1,"19167e4",48,1
"5013",-1,-1,0,2,2,1,"19167e4",49,1
"5117",-1,-1,0,1,6,1,"19167e4",50,1
"5215",-1,-1,0,6,6,1,"19167e4",51,1
"5313",-1,-1,0,4,4,1,"19167e4",52,1
"5413",-1,-1,0,3,3,1,"19167e4",53,1
"5513",-1,-1,0,5,1,1,"19167e4",54,1
"5613",-1,-1,0,1,1,1,"19167e4",55,1
"5713",-1,-1,0,1,3,1,"19167e4",56,1
"5813",-1,-1,0,4,4,1,"19167e4",57,1
"5913",-1,-1,0,3,3,1,"19167e4",58,1
"6013",-1,-1,0,6,6,1,"19167e4",59,1
"6117",-1,-1,0,5,5,1,"19167e4",60,1
"6215",-1,-1,0,2,2,1,"19167e4",61,1
"6313",-1,-1,0,2,1,1,"19167e4",62,1
"6413",-1,-1,0,1,1,1,"19167e4",63,1
"6513",-1,-1,0,5,1,1,"19167e4",64,1
"6613",-1,-1,0,4,1,1,"19167e4",65,1
"6713",-1,-1,0,1,6,1,"19167e4",66,1
"6813",-1,-1,0,1,1,1,"19167e4",67,1
"6913",-1,-1,0,6,6,1,"19167e4",68,1
"7013",-1,-1,0,3,1,1,"19167e4",69,1
"7117",-1,-1,0,5,1,1,"19167e4",70,1
"7214",-1,-1,0,4,1,1,"19167e4",71,1
"7313",-1,-1,0,4,4,1,"19167e4",72,1
"7413",-1,-1,0,2,1,1,"19167e4",73,1
"7513",-1,-1,0,5,5,1,"19167e4",74,1
"7613",-1,-1,0,3,3,1,"19167e4",75,1
"7713",-1,-1,0,6,1,1,"19167e4",76,1
"7813",-1,-1,0,2,2,1,"19167e4",77,1
"280",1,1,1252,3,3,1,"1a05cf5",1,1
"380",1,1,349,4,4,1,"1a05cf5",2,1
"480",1,1,388,1,1,1,"1a05cf5",3,1
"580",1,0,344,1,2,1,"1a05cf5",4,1
"680",1,0,375,3,1,1,"1a05cf5",5,1
"780",0,1,330,6,1,1,"1a05cf5",6,1
"814",1,1,296,2,2,1,"1a05cf5",7,1
"914",1,1,378,6,6,1,"1a05cf5",8,1
"1014",0,1,295,1,5,1,"1a05cf5",9,1
"1114",0,1,267,1,4,1,"1a05cf5",10,1
"1214",1,1,323,5,5,1,"1a05cf5",11,1
"1314",0,1,352,5,1,1,"1a05cf5",12,1
"1414",1,1,257,3,3,1,"1a05cf5",13,1
"1514",0,1,285,6,1,1,"1a05cf5",14,1
"1614",0,1,214,1,3,1,"1a05cf5",15,1
"1714",0,1,299,1,4,1,"1a05cf5",16,1
"1814",0,1,250,1,2,1,"1a05cf5",17,1
"1914",1,1,294,1,1,1,"1a05cf5",18,1
"2014",1,1,286,2,2,1,"1a05cf5",19,1
"2118",1,1,275,6,6,1,"1a05cf5",20,1
"2216",1,1,272,5,5,1,"1a05cf5",21,1
"2314",1,1,242,4,4,1,"1a05cf5",22,1
"2414",0,1,231,3,1,1,"1a05cf5",23,1
"2514",1,1,139,4,4,1,"1a05cf5",24,1
"2614",1,1,239,5,5,1,"1a05cf5",25,1
"2714",1,1,304,2,2,1,"1a05cf5",26,1
"2814",1,1,268,6,6,1,"1a05cf5",27,1
"2914",1,0,209,2,1,1,"1a05cf5",28,1
"3014",1,1,259,1,1,1,"1a05cf5",29,1
"3118",1,1,360,3,3,1,"1a05cf5",30,1
"3216",0,1,533,1,6,1,"1a05cf5",31,1
"3314",0,1,444,4,1,1,"1a05cf5",32,1
"3414",0,1,277,1,5,1,"1a05cf5",33,1
"3514",0,0,1634,1,1,1,"1a05cf5",34,1
"3614",0,1,266,3,1,1,"1a05cf5",35,1
"3714",1,1,429,4,4,1,"1a05cf5",36,1
"3814",1,1,608,3,3,1,"1a05cf5",37,1
"3914",0,1,291,1,4,1,"1a05cf5",38,1
"4014",0,1,453,1,6,1,"1a05cf5",39,1
"4118",0,1,616,1,5,1,"1a05cf5",40,1
"4216",0,1,288,1,2,1,"1a05cf5",41,1
"4314",1,1,558,2,2,1,"1a05cf5",42,1
"4414",1,1,308,5,5,1,"1a05cf5",43,1
"4514",1,1,269,6,6,1,"1a05cf5",44,1
"4614",0,1,320,4,1,1,"1a05cf5",45,1
"4714",1,1,229,2,2,1,"1a05cf5",46,1
"4814",1,1,291,1,1,1,"1a05cf5",47,1
"4914",1,1,213,5,5,1,"1a05cf5",48,1
"5014",1,1,229,4,4,1,"1a05cf5",49,1
"5118",0,1,137,2,1,1,"1a05cf5",50,1
"5216",-1,-1,0,6,6,1,"1a05cf5",51,1
"5314",0,1,290,3,1,1,"1a05cf5",52,1
"5414",0,1,305,6,1,1,"1a05cf5",53,1
"5514",1,1,289,3,3,1,"1a05cf5",54,1
"5614",0,1,646,1,5,1,"1a05cf5",55,1
"5714",1,1,834,6,6,1,"1a05cf5",56,1
"5814",1,1,1324,2,2,1,"1a05cf5",57,1
"5914",1,1,212,1,1,1,"1a05cf5",58,1
"6014",0,1,938,1,5,1,"1a05cf5",59,1
"6118",0,1,337,6,1,1,"1a05cf5",60,1
"6216",1,1,129,3,3,1,"1a05cf5",61,1
"6314",1,1,240,4,4,1,"1a05cf5",62,1
"6414",0,1,477,3,1,1,"1a05cf5",63,1
"6514",0,1,1027,2,1,1,"1a05cf5",64,1
"6614",0,1,254,4,1,1,"1a05cf5",65,1
"6714",1,1,253,5,5,1,"1a05cf5",66,1
"6814",0,1,309,5,1,1,"1a05cf5",67,1
"6914",1,1,948,3,3,1,"1a05cf5",68,1
"7014",1,1,293,4,4,1,"1a05cf5",69,1
"7118",1,1,271,2,2,1,"1a05cf5",70,1
"7215",1,0,266,1,2,1,"1a05cf5",71,1
"7314",0,1,288,6,1,1,"1a05cf5",72,1
"7414",0,1,458,1,4,1,"1a05cf5",73,1
"7514",1,1,302,6,6,1,"1a05cf5",74,1
"7614",1,1,317,5,5,1,"1a05cf5",75,1
"7714",0,1,259,3,1,1,"1a05cf5",76,1
"7814",1,1,329,1,1,1,"1a05cf5",77,1
"290",1,1,1082,4,4,1,"1d817ba",1,1
"390",1,1,647,1,1,1,"1d817ba",2,1
"490",1,0,445,1,4,1,"1d817ba",3,1
"590",1,0,378,2,1,1,"1d817ba",4,1
"690",1,1,556,5,5,1,"1d817ba",5,1
"790",1,1,1074,2,2,1,"1d817ba",6,1
"815",1,0,595,3,1,1,"1d817ba",7,1
"915",1,1,470,6,6,1,"1d817ba",8,1
"1015",0,1,451,5,1,1,"1d817ba",9,1
"1115",0,1,558,1,6,1,"1d817ba",10,1
"1215",1,1,482,3,3,1,"1d817ba",11,1
"1315",1,1,505,1,1,1,"1d817ba",12,1
"1415",1,1,475,6,6,1,"1d817ba",13,1
"1515",0,1,378,4,1,1,"1d817ba",14,1
"1615",1,1,380,4,4,1,"1d817ba",15,1
"1715",1,1,411,3,3,1,"1d817ba",16,1
"1815",1,1,318,5,5,1,"1d817ba",17,1
"1915",1,1,328,2,2,1,"1d817ba",18,1
"2015",0,1,367,1,2,1,"1d817ba",19,1
"2119",0,1,325,6,1,1,"1d817ba",20,1
"2217",1,0,361,3,1,1,"1d817ba",21,1
"2315",0,1,347,5,1,1,"1d817ba",22,1
"2415",0,1,329,4,1,1,"1d817ba",23,1
"2515",1,1,386,1,1,1,"1d817ba",24,1
"2615",1,1,351,2,2,1,"1d817ba",25,1
"2715",0,1,489,1,3,1,"1d817ba",26,1
"2815",0,1,872,1,5,1,"1d817ba",27,1
"2915",1,1,356,6,6,1,"1d817ba",28,1
"3015",1,1,394,3,3,1,"1d817ba",29,1
"3119",0,1,322,1,6,1,"1d817ba",30,1
"3217",1,0,317,2,1,1,"1d817ba",31,1
"3315",1,1,322,5,5,1,"1d817ba",32,1
"3415",1,1,279,4,4,1,"1d817ba",33,1
"3515",0,1,291,4,1,1,"1d817ba",34,1
"3615",1,1,286,1,1,1,"1d817ba",35,1
"3715",0,1,275,1,6,1,"1d817ba",36,1
"3815",1,1,275,6,6,1,"1d817ba",37,1
"3915",1,0,547,1,2,1,"1d817ba",38,1
"4015",1,1,350,4,4,1,"1d817ba",39,1
"4119",0,1,283,5,1,1,"1d817ba",40,1
"4217",0,1,457,3,1,1,"1d817ba",41,1
"4315",1,1,349,2,2,1,"1d817ba",42,1
"4415",1,1,285,5,5,1,"1d817ba",43,1
"4515",1,1,272,3,3,1,"1d817ba",44,1
"4615",0,1,302,1,5,1,"1d817ba",45,1
"4715",0,1,317,1,3,1,"1d817ba",46,1
"4815",1,1,350,6,6,1,"1d817ba",47,1
"4915",1,1,293,3,3,1,"1d817ba",48,1
"5015",1,1,286,2,2,1,"1d817ba",49,1
"5119",0,1,321,1,6,1,"1d817ba",50,1
"5217",0,1,262,1,2,1,"1d817ba",51,1
"5315",1,1,291,4,4,1,"1d817ba",52,1
"5415",1,1,479,5,5,1,"1d817ba",53,1
"5515",1,1,286,1,1,1,"1d817ba",54,1
"5615",0,1,402,1,4,1,"1d817ba",55,1
"5715",1,1,273,5,5,1,"1d817ba",56,1
"5815",1,1,286,2,2,1,"1d817ba",57,1
"5915",1,1,303,1,1,1,"1d817ba",58,1
"6015",1,1,289,4,4,1,"1d817ba",59,1
"6119",0,1,260,2,1,1,"1d817ba",60,1
"6217",0,1,454,1,5,1,"1d817ba",61,1
"6315",0,1,261,6,1,1,"1d817ba",62,1
"6415",0,1,243,3,1,1,"1d817ba",63,1
"6515",0,1,316,4,1,1,"1d817ba",64,1
"6615",1,1,369,3,3,1,"1d817ba",65,1
"6715",1,1,269,6,6,1,"1d817ba",66,1
"6815",1,1,352,1,1,1,"1d817ba",67,1
"6915",0,1,309,6,1,1,"1d817ba",68,1
"7015",1,1,367,5,5,1,"1d817ba",69,1
"7119",0,1,854,1,5,1,"1d817ba",70,1
"7216",1,1,274,4,4,1,"1d817ba",71,1
"7315",1,1,318,6,6,1,"1d817ba",72,1
"7415",1,0,246,2,1,1,"1d817ba",73,1
"7515",1,1,251,3,3,1,"1d817ba",74,1
"7615",0,1,285,3,1,1,"1d817ba",75,1
"7715",0,1,243,4,1,1,"1d817ba",76,1
"7815",1,1,454,2,2,1,"1d817ba",77,1
"2100",1,1,841,4,4,1,"15c0100",1,1
"3100",1,1,289,1,1,1,"15c0100",2,1
"4100",1,0,358,3,1,1,"15c0100",3,1
"5100",1,0,452,1,4,1,"15c0100",4,1
"6100",1,1,323,3,3,1,"15c0100",5,1
"791",1,1,362,6,6,1,"15c0100",6,1
"816",1,0,286,2,1,1,"15c0100",7,1
"916",1,1,299,5,5,1,"15c0100",8,1
"1016",1,0,327,5,1,1,"15c0100",9,1
"1116",1,1,166,2,2,1,"15c0100",10,1
"1216",0,1,348,1,6,1,"15c0100",11,1
"1316",0,1,457,1,4,1,"15c0100",12,1
"1416",0,1,348,1,3,1,"15c0100",13,1
"1516",1,1,145,4,4,1,"15c0100",14,1
"1616",1,1,451,1,1,1,"15c0100",15,1
"1716",0,1,384,6,1,1,"15c0100",16,1
"1816",1,1,183,3,3,1,"15c0100",17,1
"1916",1,1,743,6,6,1,"15c0100",18,1
"2016",-1,-1,0,1,5,1,"15c0100",19,1
"2120",1,0,590,2,1,1,"15c0100",20,1
"2218",1,1,377,5,5,1,"15c0100",21,1
"2316",0,0,361,2,2,1,"15c0100",22,1
"2416",1,1,332,4,4,1,"15c0100",23,1
"2516",1,1,348,5,5,1,"15c0100",24,1
"2616",1,0,669,1,2,1,"15c0100",25,1
"2716",1,1,333,6,6,1,"15c0100",26,1
"2816",0,0,375,2,2,1,"15c0100",27,1
"2916",1,1,458,1,1,1,"15c0100",28,1
"3016",0,1,360,5,1,1,"15c0100",29,1
"3120",0,1,341,4,1,1,"15c0100",30,1
"3218",1,1,78,3,3,1,"15c0100",31,1
"3316",0,1,140,1,6,1,"15c0100",32,1
"3416",0,1,356,1,3,1,"15c0100",33,1
"3516",1,1,105,4,4,1,"15c0100",34,1
"3616",0,1,192,1,6,1,"15c0100",35,1
"3716",1,1,538,3,3,1,"15c0100",36,1
"3816",1,1,944,1,1,1,"15c0100",37,1
"3916",1,0,500,2,1,1,"15c0100",38,1
"4016",1,1,347,5,5,1,"15c0100",39,1
"4120",1,0,227,3,1,1,"15c0100",40,1
"4218",0,1,355,5,1,1,"15c0100",41,1
"4316",1,1,202,2,2,1,"15c0100",42,1
"4416",1,1,97,6,6,1,"15c0100",43,1
"4516",0,1,289,4,1,1,"15c0100",44,1
"4616",1,1,435,2,2,1,"15c0100",45,1
"4716",1,1,459,3,3,1,"15c0100",46,1
"4816",0,1,724,1,6,1,"15c0100",47,1
"4916",1,1,397,1,1,1,"15c0100",48,1
"5016",0,1,1005,1,4,1,"15c0100",49,1
"5120",1,1,475,6,6,1,"15c0100",50,1
"5218",0,1,564,5,1,1,"15c0100",51,1
"5316",1,1,896,5,5,1,"15c0100",52,1
"5416",0,1,317,3,1,1,"15c0100",53,1
"5516",1,0,612,2,1,1,"15c0100",54,1
"5616",0,0,418,4,4,1,"15c0100",55,1
"5716",1,1,331,5,5,1,"15c0100",56,1
"5816",1,1,398,1,1,1,"15c0100",57,1
"5916",0,1,421,1,3,1,"15c0100",58,1
"6016",1,1,318,3,3,1,"15c0100",59,1
"6120",1,1,535,2,2,1,"15c0100",60,1
"6218",1,0,346,1,2,1,"15c0100",61,1
"6316",0,1,107,4,1,1,"15c0100",62,1
"6416",0,1,757,6,1,1,"15c0100",63,1
"6516",1,1,254,6,6,1,"15c0100",64,1
"6616",1,1,352,4,4,1,"15c0100",65,1
"6716",0,1,119,5,1,1,"15c0100",66,1
"6816",1,0,321,2,1,1,"15c0100",67,1
"6916",1,1,162,1,1,1,"15c0100",68,1
"7016",0,1,382,5,1,1,"15c0100",69,1
"7120",1,1,837,4,4,1,"15c0100",70,1
"7217",0,1,265,6,1,1,"15c0100",71,1
"7316",0,1,588,4,1,1,"15c0100",72,1
"7416",1,1,201,3,3,1,"15c0100",73,1
"7516",1,1,105,5,5,1,"15c0100",74,1
"7616",1,0,579,1,3,1,"15c0100",75,1
"7716",1,1,535,2,2,1,"15c0100",76,1
"7816",1,1,392,6,6,1,"15c0100",77,1
"2101",0,1,495,3,1,2,"129148a",1,1
"3101",1,0,399,2,1,2,"129148a",2,1
"4101",1,1,503,3,3,2,"129148a",3,1
"5101",0,0,630,4,4,2,"129148a",4,1
"6101",0,1,768,4,1,2,"129148a",5,1
"792",0,0,898,6,6,2,"129148a",6,1
"817",-1,-1,0,1,5,2,"129148a",7,1
"917",1,0,887,6,1,2,"129148a",8,1
"1017",0,0,387,5,5,2,"129148a",9,1
"1117",1,1,397,1,1,2,"129148a",10,1
"1217",0,0,310,2,2,2,"129148a",11,1
"1317",1,1,277,6,6,2,"129148a",12,1
"1417",0,0,325,2,2,2,"129148a",13,1
"1517",0,0,322,1,1,2,"129148a",14,1
"1617",0,1,317,1,4,2,"129148a",15,1
"1717",0,1,171,2,1,2,"129148a",16,1
"1817",0,1,395,1,3,2,"129148a",17,1
"1917",0,1,864,6,1,2,"129148a",18,1
"2017",0,1,490,5,1,2,"129148a",19,1
"2121",1,1,594,4,4,2,"129148a",20,1
"2219",1,1,508,5,5,2,"129148a",21,1
"2317",1,1,462,3,3,2,"129148a",22,1
"2417",0,1,477,6,1,2,"129148a",23,1
"2517",0,1,488,4,1,2,"129148a",24,1
"2617",1,1,385,2,2,2,"129148a",25,1
"2717",1,1,292,5,5,2,"129148a",26,1
"2817",1,1,637,6,6,2,"129148a",27,1
"2917",1,0,21,1,2,2,"129148a",28,1
"3017",1,1,311,1,1,2,"129148a",29,1
"3121",0,1,305,1,3,2,"129148a",30,1
"3219",1,1,495,4,4,2,"129148a",31,1
"3317",0,1,408,1,5,2,"129148a",32,1
"3417",1,1,393,3,3,2,"129148a",33,1
"3517",1,1,400,1,1,2,"129148a",34,1
"3617",1,1,357,2,2,2,"129148a",35,1
"3717",1,1,189,6,6,2,"129148a",36,1
"3817",1,1,288,4,4,2,"129148a",37,1
"3917",1,1,328,5,5,2,"129148a",38,1
"4017",1,0,485,1,2,2,"129148a",39,1
"4121",0,1,460,1,3,2,"129148a",40,1
"4219",0,1,399,1,4,2,"129148a",41,1
"4317",0,1,465,1,6,2,"129148a",42,1
"4417",0,1,484,1,5,2,"129148a",43,1
"4517",1,1,297,3,3,2,"129148a",44,1
"4617",0,1,516,1,4,2,"129148a",45,1
"4717",1,1,318,6,6,2,"129148a",46,1
"4817",0,1,301,3,1,2,"129148a",47,1
"4917",0,1,401,6,1,2,"129148a",48,1
"5017",1,1,404,2,2,2,"129148a",49,1
"5121",1,1,528,3,3,2,"129148a",50,1
"5219",1,0,809,2,1,2,"129148a",51,1
"5317",0,1,561,1,5,2,"129148a",52,1
"5417",1,1,356,4,4,2,"129148a",53,1
"5517",1,1,468,5,5,2,"129148a",54,1
"5617",1,1,300,1,1,2,"129148a",55,1
"5717",1,1,299,5,5,2,"129148a",56,1
"5817",0,1,357,1,4,2,"129148a",57,1
"5917",0,1,359,5,1,2,"129148a",58,1
"6017",1,1,276,1,1,2,"129148a",59,1
"6121",1,1,400,2,2,2,"129148a",60,1
"6219",1,1,283,6,6,2,"129148a",61,1
"6317",0,1,302,6,1,2,"129148a",62,1
"6417",1,0,326,1,2,2,"129148a",63,1
"6517",1,1,484,4,4,2,"129148a",64,1
"6617",1,1,486,3,3,2,"129148a",65,1
"6717",0,1,301,3,1,2,"129148a",66,1
"6817",1,1,303,5,5,2,"129148a",67,1
"6917",0,1,375,1,4,2,"129148a",68,1
"7017",1,1,298,3,3,2,"129148a",69,1
"7121",1,1,366,6,6,2,"129148a",70,1
"7218",0,1,388,1,5,2,"129148a",71,1
"7317",1,1,402,2,2,2,"129148a",72,1
"7417",1,1,389,4,4,2,"129148a",73,1
"7517",1,1,429,1,1,2,"129148a",74,1
"7617",0,1,291,1,6,2,"129148a",75,1
"7717",0,1,413,1,3,2,"129148a",76,1
"7817",1,0,709,1,2,2,"129148a",77,1
"2102",1,0,871,1,5,3,"1778ea1",1,1
"3102",0,0,359,5,5,3,"1778ea1",2,1
"4102",1,1,440,2,2,3,"1778ea1",3,1
"5102",1,0,344,1,2,3,"1778ea1",4,1
"6102",1,1,328,6,6,3,"1778ea1",5,1
"793",1,0,149,1,4,3,"1778ea1",6,1
"818",0,0,272,3,3,3,"1778ea1",7,1
"918",0,1,619,3,1,3,"1778ea1",8,1
"1018",1,1,306,1,1,3,"1778ea1",9,1
"1118",0,1,185,1,6,3,"1778ea1",10,1
"1218",1,1,359,4,4,3,"1778ea1",11,1
"1318",1,1,441,6,6,3,"1778ea1",12,1
"1418",1,1,239,1,1,3,"1778ea1",13,1
"1518",0,1,254,6,1,3,"1778ea1",14,1
"1618",1,1,247,5,5,3,"1778ea1",15,1
"1718",0,1,358,3,1,3,"1778ea1",16,1
"1818",0,1,272,1,4,3,"1778ea1",17,1
"1918",0,1,277,1,5,3,"1778ea1",18,1
"2018",1,1,314,2,2,3,"1778ea1",19,1
"2122",1,1,302,4,4,3,"1778ea1",20,1
"2220",1,1,374,3,3,3,"1778ea1",21,1
"2318",1,0,224,2,1,3,"1778ea1",22,1
"2418",0,1,122,1,6,3,"1778ea1",23,1
"2518",1,1,766,3,3,3,"1778ea1",24,1
"2618",0,1,333,1,4,3,"1778ea1",25,1
"2718",1,1,159,6,6,3,"1778ea1",26,1
"2818",1,1,375,1,1,3,"1778ea1",27,1
"2918",1,1,371,4,4,3,"1778ea1",28,1
"3018",1,1,373,2,2,3,"1778ea1",29,1
"3122",0,1,951,5,1,3,"1778ea1",30,1
"3220",1,0,249,2,1,3,"1778ea1",31,1
"3318",0,1,151,3,1,3,"1778ea1",32,1
"3418",1,1,128,5,5,3,"1778ea1",33,1
"3518",0,1,7,4,1,3,"1778ea1",34,1
"3618",1,1,216,4,4,3,"1778ea1",35,1
"3718",0,1,103,6,1,3,"1778ea1",36,1
"3818",0,1,527,3,1,3,"1778ea1",37,1
"3918",1,1,323,5,5,3,"1778ea1",38,1
"4018",1,1,151,6,6,3,"1778ea1",39,1
"4122",1,1,342,3,3,3,"1778ea1",40,1
"4220",1,0,238,1,2,3,"1778ea1",41,1
"4318",1,1,312,2,2,3,"1778ea1",42,1
"4418",1,1,341,1,1,3,"1778ea1",43,1
"4518",0,1,411,1,5,3,"1778ea1",44,1
"4618",1,1,375,6,6,3,"1778ea1",45,1
"4718",1,1,541,4,4,3,"1778ea1",46,1
"4818",0,1,310,1,2,3,"1778ea1",47,1
"4918",1,1,203,2,2,3,"1778ea1",48,1
"5018",1,1,307,5,5,3,"1778ea1",49,1
"5122",1,1,342,1,1,3,"1778ea1",50,1
"5220",1,1,427,3,3,3,"1778ea1",51,1
"5318",0,1,96,1,5,3,"1778ea1",52,1
"5418",0,1,113,1,3,3,"1778ea1",53,1
"5518",0,1,193,4,1,3,"1778ea1",54,1
"5618",0,1,373,1,6,3,"1778ea1",55,1
"5718",0,1,200,2,1,3,"1778ea1",56,1
"5818",1,1,305,3,3,3,"1778ea1",57,1
"5918",0,1,703,5,1,3,"1778ea1",58,1
"6018",1,1,125,2,2,3,"1778ea1",59,1
"6122",0,1,304,1,6,3,"1778ea1",60,1
"6220",1,1,94,1,1,3,"1778ea1",61,1
"6318",1,1,171,6,6,3,"1778ea1",62,1
"6418",0,1,177,4,1,3,"1778ea1",63,1
"6518",0,1,293,1,3,3,"1778ea1",64,1
"6618",0,0,101,5,5,3,"1778ea1",65,1
"6718",1,1,330,4,4,3,"1778ea1",66,1
"6818",0,1,138,3,1,3,"1778ea1",67,1
"6918",0,1,128,1,4,3,"1778ea1",68,1
"7018",1,1,346,4,4,3,"1778ea1",69,1
"7122",1,1,218,3,3,3,"1778ea1",70,1
"7219",1,0,386,1,2,3,"1778ea1",71,1
"7318",1,1,325,2,2,3,"1778ea1",72,1
"7418",1,1,362,1,1,3,"1778ea1",73,1
"7518",0,1,339,1,5,3,"1778ea1",74,1
"7618",1,1,356,5,5,3,"1778ea1",75,1
"7718",0,1,462,6,1,3,"1778ea1",76,1
"7818",1,1,152,6,6,3,"1778ea1",77,1
"2103",0,0,1468,2,2,3,"19449ac",1,1
"3103",-1,-1,0,6,6,3,"19449ac",2,1
"4103",-1,-1,0,4,1,3,"19449ac",3,1
"5103",1,0,398,1,3,3,"19449ac",4,1
"6103",0,0,388,1,1,3,"19449ac",5,1
"794",0,1,547,6,1,3,"19449ac",6,1
"819",0,1,465,5,1,3,"19449ac",7,1
"919",1,0,381,1,2,3,"19449ac",8,1
"1019",1,1,452,3,3,3,"19449ac",9,1
"1119",0,0,509,5,5,3,"19449ac",10,1
"1219",1,1,605,4,4,3,"19449ac",11,1
"1319",0,1,360,1,2,3,"19449ac",12,1
"1419",1,0,374,1,4,3,"19449ac",13,1
"1519",0,1,570,5,1,3,"19449ac",14,1
"1619",0,1,392,6,1,3,"19449ac",15,1
"1719",0,0,367,3,3,3,"19449ac",16,1
"1819",0,0,488,2,2,3,"19449ac",17,1
"1919",0,0,361,5,5,3,"19449ac",18,1
"2019",0,0,354,1,1,3,"19449ac",19,1
"2123",1,1,388,6,6,3,"19449ac",20,1
"2221",1,0,381,1,3,3,"19449ac",21,1
"2319",1,1,425,4,4,3,"19449ac",22,1
"2419",1,1,378,2,2,3,"19449ac",23,1
"2519",1,0,384,3,1,3,"19449ac",24,1
"2619",1,0,359,6,1,3,"19449ac",25,1
"2719",0,0,480,4,4,3,"19449ac",26,1
"2819",1,1,101,5,5,3,"19449ac",27,1
"2919",1,0,1923,2,1,3,"19449ac",28,1
"3019",1,1,799,6,6,3,"19449ac",29,1
"3123",1,1,618,1,1,3,"19449ac",30,1
"3221",1,1,479,3,3,3,"19449ac",31,1
"3319",1,0,664,1,5,3,"19449ac",32,1
"3419",1,0,1818,1,4,3,"19449ac",33,1
"3519",1,1,406,6,6,3,"19449ac",34,1
"3619",0,0,526,1,1,3,"19449ac",35,1
"3719",1,0,762,3,1,3,"19449ac",36,1
"3819",0,1,924,4,1,3,"19449ac",37,1
"3919",0,1,554,6,1,3,"19449ac",38,1
"4019",1,1,452,4,4,3,"19449ac",39,1
"4123",1,1,505,2,2,3,"19449ac",40,1
"4221",0,1,401,1,2,3,"19449ac",41,1
"4319",1,1,474,5,5,3,"19449ac",42,1
"4419",0,0,439,3,3,3,"19449ac",43,1
"4519",0,1,594,5,1,3,"19449ac",44,1
"4619",0,1,525,5,1,3,"19449ac",45,1
"4719",1,0,412,3,1,3,"19449ac",46,1
"4819",1,1,342,2,2,3,"19449ac",47,1
"4919",1,1,619,5,5,3,"19449ac",48,1
"5019",1,1,586,6,6,3,"19449ac",49,1
"5123",1,1,546,4,4,3,"19449ac",50,1
"5221",1,1,356,1,1,3,"19449ac",51,1
"5319",1,0,507,1,2,3,"19449ac",52,1
"5419",0,1,387,4,1,3,"19449ac",53,1
"5519",0,1,606,6,1,3,"19449ac",54,1
"5619",1,1,1098,3,3,3,"19449ac",55,1
"5719",0,0,478,1,1,3,"19449ac",56,1
"5819",1,1,452,5,5,3,"19449ac",57,1
"5919",1,1,1210,6,6,3,"19449ac",58,1
"6019",1,1,413,3,3,3,"19449ac",59,1
"6123",0,1,455,1,5,3,"19449ac",60,1
"6221",1,1,515,2,2,3,"19449ac",61,1
"6319",0,1,580,1,6,3,"19449ac",62,1
"6419",1,1,372,4,4,3,"19449ac",63,1
"6519",0,1,565,1,3,3,"19449ac",64,1
"6619",0,1,554,1,4,3,"19449ac",65,1
"6719",0,1,676,2,1,3,"19449ac",66,1
"6819",0,1,383,1,5,3,"19449ac",67,1
"6919",1,1,1429,4,4,3,"19449ac",68,1
"7019",0,1,1007,6,1,3,"19449ac",69,1
"7123",0,1,647,3,1,3,"19449ac",70,1
"7220",1,0,650,1,2,3,"19449ac",71,1
"7319",1,1,490,2,2,3,"19449ac",72,1
"7419",1,1,534,5,5,3,"19449ac",73,1
"7519",0,0,816,3,3,3,"19449ac",74,1
"7619",1,1,392,6,6,3,"19449ac",75,1
"7719",0,1,456,1,4,3,"19449ac",76,1
"7819",1,1,416,1,1,3,"19449ac",77,1
"2104",0,0,589,2,2,1,"1fef5d8",1,1
"3104",1,0,296,1,3,1,"1fef5d8",2,1
"4104",0,1,339,1,2,1,"1fef5d8",3,1
"5104",1,0,281,5,1,1,"1fef5d8",4,1
"6104",1,1,292,3,3,1,"1fef5d8",5,1
"795",1,1,266,6,6,1,"1fef5d8",6,1
"820",1,1,276,4,4,1,"1fef5d8",7,1
"920",0,1,321,4,1,1,"1fef5d8",8,1
"1020",1,1,277,1,1,1,"1fef5d8",9,1
"1120",1,0,265,6,1,1,"1fef5d8",10,1
"1220",0,0,298,5,5,1,"1fef5d8",11,1
"1320",0,1,264,1,5,1,"1fef5d8",12,1
"1420",1,1,282,3,3,1,"1fef5d8",13,1
"1520",1,1,412,5,5,1,"1fef5d8",14,1
"1620",0,1,296,4,1,1,"1fef5d8",15,1
"1720",0,1,281,6,1,1,"1fef5d8",16,1
"1820",0,1,307,1,3,1,"1fef5d8",17,1
"1920",1,1,288,4,4,1,"1fef5d8",18,1
"2020",0,1,292,1,2,1,"1fef5d8",19,1
"2124",1,1,343,6,6,1,"1fef5d8",20,1
"2222",1,1,253,1,1,1,"1fef5d8",21,1
"2320",1,1,337,2,2,1,"1fef5d8",22,1
"2420",0,1,320,4,1,1,"1fef5d8",23,1
"2520",0,1,276,1,2,1,"1fef5d8",24,1
"2620",0,1,252,3,1,1,"1fef5d8",25,1
"2720",1,1,250,2,2,1,"1fef5d8",26,1
"2820",1,1,258,5,5,1,"1fef5d8",27,1
"2920",1,1,736,6,6,1,"1fef5d8",28,1
"3020",0,1,189,5,1,1,"1fef5d8",29,1
"3124",0,0,214,1,1,1,"1fef5d8",30,1
"3222",1,1,324,4,4,1,"1fef5d8",31,1
"3320",0,1,170,6,1,1,"1fef5d8",32,1
"3420",1,1,153,3,3,1,"1fef5d8",33,1
"3520",1,1,218,5,5,1,"1fef5d8",34,1
"3620",0,1,301,3,1,1,"1fef5d8",35,1
"3720",1,1,244,3,3,1,"1fef5d8",36,1
"3820",1,1,376,4,4,1,"1fef5d8",37,1
"3920",1,1,259,6,6,1,"1fef5d8",38,1
"4020",1,1,456,1,1,1,"1fef5d8",39,1
"4124",0,1,287,1,6,1,"1fef5d8",40,1
"4222",0,1,281,5,1,1,"1fef5d8",41,1
"4320",0,1,267,1,2,1,"1fef5d8",42,1
"4420",0,1,366,1,4,1,"1fef5d8",43,1
"4520",0,0,278,2,2,1,"1fef5d8",44,1
"4620",1,1,233,6,6,1,"1fef5d8",45,1
"4720",1,1,134,5,5,1,"1fef5d8",46,1
"4820",0,1,447,1,3,1,"1fef5d8",47,1
"4920",0,1,282,6,1,1,"1fef5d8",48,1
"5020",1,1,269,2,2,1,"1fef5d8",49,1
"5124",1,1,219,3,3,1,"1fef5d8",50,1
"5222",1,0,383,2,1,1,"1fef5d8",51,1
"5320",0,1,328,1,5,1,"1fef5d8",52,1
"5420",1,1,318,4,4,1,"1fef5d8",53,1
"5520",0,1,324,1,4,1,"1fef5d8",54,1
"5620",1,1,305,1,1,1,"1fef5d8",55,1
"5720",1,1,275,1,1,1,"1fef5d8",56,1
"5820",0,1,306,3,1,1,"1fef5d8",57,1
"5920",1,1,258,5,5,1,"1fef5d8",58,1
"6020",1,1,248,3,3,1,"1fef5d8",59,1
"6124",1,0,367,2,1,1,"1fef5d8",60,1
"6222",0,1,286,5,1,1,"1fef5d8",61,1
"6320",0,1,306,4,1,1,"1fef5d8",62,1
"6420",1,1,241,2,2,1,"1fef5d8",63,1
"6520",1,1,318,4,4,1,"1fef5d8",64,1
"6620",1,1,292,6,6,1,"1fef5d8",65,1
"6720",0,1,248,6,1,1,"1fef5d8",66,1
"6820",1,1,264,6,6,1,"1fef5d8",67,1
"6920",1,1,195,4,4,1,"1fef5d8",68,1
"7020",1,1,255,5,5,1,"1fef5d8",69,1
"7124",1,1,211,3,3,1,"1fef5d8",70,1
"7221",0,1,279,6,1,1,"1fef5d8",71,1
"7320",0,0,270,2,2,1,"1fef5d8",72,1
"7420",1,0,280,1,4,1,"1fef5d8",73,1
"7520",0,1,256,3,1,1,"1fef5d8",74,1
"7620",0,0,273,1,1,1,"1fef5d8",75,1
"7720",0,1,299,5,1,1,"1fef5d8",76,1
"7820",1,0,295,2,1,1,"1fef5d8",77,1
"2105",-1,-1,0,1,4,1,"199188b",1,1
"3105",1,0,657,1,5,1,"199188b",2,1
"4105",1,1,428,2,2,1,"199188b",3,1
"5105",1,1,501,1,1,1,"199188b",4,1
"6105",0,1,1092,6,1,1,"199188b",5,1
"796",1,1,494,3,3,1,"199188b",6,1
"821",1,1,327,5,5,1,"199188b",7,1
"921",1,0,348,2,1,1,"199188b",8,1
"1021",1,0,574,1,3,1,"199188b",9,1
"1121",1,1,331,4,4,1,"199188b",10,1
"1221",1,1,385,6,6,1,"199188b",11,1
"1321",0,1,407,1,6,1,"199188b",12,1
"1421",0,0,1874,4,4,1,"199188b",13,1
"1521",0,1,317,1,5,1,"199188b",14,1
"1621",1,1,360,6,6,1,"199188b",15,1
"1721",1,0,335,1,2,1,"199188b",16,1
"1821",1,1,588,2,2,1,"199188b",17,1
"1921",1,1,400,1,1,1,"199188b",18,1
"2021",1,1,354,5,5,1,"199188b",19,1
"2125",1,1,463,3,3,1,"199188b",20,1
"2223",0,1,366,3,1,1,"199188b",21,1
"2321",0,1,476,1,4,1,"199188b",22,1
"2421",0,1,617,1,4,1,"199188b",23,1
"2521",1,1,354,2,2,1,"199188b",24,1
"2621",1,1,694,3,3,1,"199188b",25,1
"2721",1,0,538,1,2,1,"199188b",26,1
"2821",1,1,360,4,4,1,"199188b",27,1
"2921",0,1,519,5,1,1,"199188b",28,1
"3021",0,1,652,1,3,1,"199188b",29,1
"3125",0,1,996,1,6,1,"199188b",30,1
"3223",1,1,386,5,5,1,"199188b",31,1
"3321",1,1,668,6,6,1,"199188b",32,1
"3421",1,1,453,1,1,1,"199188b",33,1
"3521",1,1,460,2,2,1,"199188b",34,1
"3621",1,1,503,6,6,1,"199188b",35,1
"3721",1,1,316,1,1,1,"199188b",36,1
"3821",0,0,360,4,4,1,"199188b",37,1
"3921",-1,-1,0,5,1,1,"199188b",38,1
"4021",-1,-1,0,1,2,1,"199188b",39,1
"4125",0,0,432,3,3,1,"199188b",40,1
"4223",0,1,467,1,6,1,"199188b",41,1
"4321",0,1,519,1,3,1,"199188b",42,1
"4421",0,1,487,1,4,1,"199188b",43,1
"4521",1,1,1095,5,5,1,"199188b",44,1
"4621",0,1,10,1,5,1,"199188b",45,1
"4721",1,1,387,3,3,1,"199188b",46,1
"4821",1,1,362,4,4,1,"199188b",47,1
"4921",1,1,610,5,5,1,"199188b",48,1
"5021",1,1,143,2,2,1,"199188b",49,1
"5125",0,1,626,6,1,1,"199188b",50,1
"5223",0,1,504,1,3,1,"199188b",51,1
"5321",1,1,432,1,1,1,"199188b",52,1
"5421",1,0,431,2,1,1,"199188b",53,1
"5521",0,1,376,4,1,1,"199188b",54,1
"5621",1,1,442,6,6,1,"199188b",55,1
"5721",1,1,335,5,5,1,"199188b",56,1
"5821",1,1,360,1,1,1,"199188b",57,1
"5921",1,1,311,3,3,1,"199188b",58,1
"6021",1,1,463,6,6,1,"199188b",59,1
"6125",0,1,342,2,1,1,"199188b",60,1
"6223",0,1,182,1,4,1,"199188b",61,1
"6321",1,1,651,4,4,1,"199188b",62,1
"6421",0,1,209,1,6,1,"199188b",63,1
"6521",0,1,208,1,3,1,"199188b",64,1
"6621",1,1,359,2,2,1,"199188b",65,1
"6721",0,1,314,1,5,1,"199188b",66,1
"6821",0,1,260,1,3,1,"199188b",67,1
"6921",0,1,349,1,2,1,"199188b",68,1
"7021",1,1,427,6,6,1,"199188b",69,1
"7125",0,0,663,2,2,1,"199188b",70,1
"7222",1,1,579,5,5,1,"199188b",71,1
"7321",0,1,335,1,5,1,"199188b",72,1
"7421",0,1,444,1,4,1,"199188b",73,1
"7521",1,1,167,3,3,1,"199188b",74,1
"7621",1,1,273,4,4,1,"199188b",75,1
"7721",1,1,460,1,1,1,"199188b",76,1
"7821",0,1,381,6,1,1,"199188b",77,1
"2106",1,1,844,3,3,2,"1d71a8c",1,1
"3106",0,1,363,6,1,2,"1d71a8c",2,1
"4106",1,1,247,2,2,2,"1d71a8c",3,1
"5106",1,0,244,2,1,2,"1d71a8c",4,1
"6106",1,1,410,6,6,2,"1d71a8c",5,1
"797",0,0,5,5,5,2,"1d71a8c",6,1
"822",1,0,253,3,1,2,"1d71a8c",7,1
"922",0,1,235,1,5,2,"1d71a8c",8,1
"1022",0,1,1499,1,4,2,"1d71a8c",9,1
"1122",1,1,509,4,4,2,"1d71a8c",10,1
"1222",1,1,317,1,1,2,"1d71a8c",11,1
"1322",-1,-1,0,4,4,2,"1d71a8c",12,1
"1422",1,1,262,2,2,2,"1d71a8c",13,1
"1522",0,1,229,6,1,2,"1d71a8c",14,1
"1622",1,0,331,1,3,2,"1d71a8c",15,1
"1722",0,1,988,2,1,2,"1d71a8c",16,1
"1822",0,1,327,4,1,2,"1d71a8c",17,1
"1922",1,0,521,5,1,2,"1d71a8c",18,1
"2022",1,1,1189,3,3,2,"1d71a8c",19,1
"2126",1,1,274,5,5,2,"1d71a8c",20,1
"2224",0,0,284,1,1,2,"1d71a8c",21,1
"2322",0,0,172,6,6,2,"1d71a8c",22,1
"2422",0,1,286,6,1,2,"1d71a8c",23,1
"2522",1,0,628,3,1,2,"1d71a8c",24,1
"2622",1,1,440,3,3,2,"1d71a8c",25,1
"2722",0,1,255,4,1,2,"1d71a8c",26,1
"2822",1,0,610,5,1,2,"1d71a8c",27,1
"2922",0,0,397,6,6,2,"1d71a8c",28,1
"3022",-1,-1,0,1,1,2,"1d71a8c",29,1
"3126",1,1,666,2,2,2,"1d71a8c",30,1
"3224",0,1,978,1,2,2,"1d71a8c",31,1
"3322",1,1,911,5,5,2,"1d71a8c",32,1
"3422",1,1,336,4,4,2,"1d71a8c",33,1
"3522",1,0,425,2,1,2,"1d71a8c",34,1
"3622",1,1,855,5,5,2,"1d71a8c",35,1
"3722",0,1,893,1,5,2,"1d71a8c",36,1
"3822",1,1,576,4,4,2,"1d71a8c",37,1
"3922",0,1,643,4,1,2,"1d71a8c",38,1
"4022",1,1,362,2,2,2,"1d71a8c",39,1
"4126",1,1,944,6,6,2,"1d71a8c",40,1
"4224",0,1,232,1,3,2,"1d71a8c",41,1
"4322",1,0,296,6,1,2,"1d71a8c",42,1
"4422",0,0,866,3,3,2,"1d71a8c",43,1
"4522",1,1,446,1,1,2,"1d71a8c",44,1
"4622",1,1,402,1,1,2,"1d71a8c",45,1
"4722",1,1,705,3,3,2,"1d71a8c",46,1
"4822",-1,-1,0,2,1,2,"1d71a8c",47,1
"4922",1,0,288,1,5,2,"1d71a8c",48,1
"5022",0,0,185,2,2,2,"1d71a8c",49,1
"5126",1,0,717,1,4,2,"1d71a8c",50,1
"5224",-1,-1,0,4,4,2,"1d71a8c",51,1
"5322",-1,-1,0,5,5,2,"1d71a8c",52,1
"5422",1,0,281,6,1,2,"1d71a8c",53,1
"5522",1,0,1498,1,3,2,"1d71a8c",54,1
"5622",-1,-1,0,6,6,2,"1d71a8c",55,1
"5722",1,1,426,2,2,2,"1d71a8c",56,1
"5822",1,1,1000,6,6,2,"1d71a8c",57,1
"5922",1,1,1040,3,3,2,"1d71a8c",58,1
"6022",-1,-1,0,5,5,2,"1d71a8c",59,1
"6126",0,1,860,1,6,2,"1d71a8c",60,1
"6224",0,0,795,1,1,2,"1d71a8c",61,1
"6322",0,1,165,4,1,2,"1d71a8c",62,1
"6422",1,0,467,2,1,2,"1d71a8c",63,1
"6522",0,1,457,5,1,2,"1d71a8c",64,1
"6622",1,0,18,3,1,2,"1d71a8c",65,1
"6722",0,0,66,4,4,2,"1d71a8c",66,1
"6822",0,0,243,5,5,2,"1d71a8c",67,1
"6922",0,0,1377,6,6,2,"1d71a8c",68,1
"7022",1,1,1050,4,4,2,"1d71a8c",69,1
"7126",1,1,366,3,3,2,"1d71a8c",70,1
"7223",0,0,223,2,2,2,"1d71a8c",71,1
"7322",1,0,744,2,1,2,"1d71a8c",72,1
"7422",-1,-1,0,1,1,2,"1d71a8c",73,1
"7522",1,0,497,5,1,2,"1d71a8c",74,1
"7622",0,1,1881,4,1,2,"1d71a8c",75,1
"7722",0,1,204,3,1,2,"1d71a8c",76,1
"7822",0,1,554,6,1,2,"1d71a8c",77,1
"2107",-1,0,914,2,2,1,"1bfb973",1,1
"3107",1,1,847,5,5,1,"1bfb973",2,1
"4107",0,0,441,3,3,1,"1bfb973",3,1
"5107",1,1,491,6,6,1,"1bfb973",4,1
"6107",1,0,490,1,4,1,"1bfb973",5,1
"798",0,1,964,1,2,1,"1bfb973",6,1
"823",1,1,799,4,4,1,"1bfb973",7,1
"923",1,1,732,1,1,1,"1bfb973",8,1
"1023",1,0,401,1,6,1,"1bfb973",9,1
"1123",1,0,431,1,5,1,"1bfb973",10,1
"1223",1,0,462,1,3,1,"1bfb973",11,1
"1323",1,0,696,3,1,1,"1bfb973",12,1
"1423",0,0,415,1,1,1,"1bfb973",13,1
"1523",0,0,528,2,2,1,"1bfb973",14,1
"1623",0,1,453,1,2,1,"1bfb973",15,1
"1723",1,1,392,6,6,1,"1bfb973",16,1
"1823",0,1,430,5,1,1,"1bfb973",17,1
"1923",1,1,386,3,3,1,"1bfb973",18,1
"2023",1,1,555,5,5,1,"1bfb973",19,1
"2127",0,1,530,6,1,1,"1bfb973",20,1
"2225",0,1,404,4,1,1,"1bfb973",21,1
"2323",1,1,553,4,4,1,"1bfb973",22,1
"2423",1,0,457,2,1,1,"1bfb973",23,1
"2523",0,0,595,6,6,1,"1bfb973",24,1
"2623",1,1,415,4,4,1,"1bfb973",25,1
"2723",0,0,464,1,1,1,"1bfb973",26,1
"2823",0,0,921,3,3,1,"1bfb973",27,1
"2923",0,1,443,1,6,1,"1bfb973",28,1
"3023",1,1,483,2,2,1,"1bfb973",29,1
"3127",0,1,983,5,1,1,"1bfb973",30,1
"3225",1,1,518,5,5,1,"1bfb973",31,1
"3323",0,1,363,3,1,1,"1bfb973",32,1
"3423",0,1,442,4,1,1,"1bfb973",33,1
"3523",1,1,612,6,6,1,"1bfb973",34,1
"3623",0,1,410,3,1,1,"1bfb973",35,1
"3723",1,1,512,5,5,1,"1bfb973",36,1
"3823",1,1,496,1,1,1,"1bfb973",37,1
"3923",0,1,413,1,4,1,"1bfb973",38,1
"4023",1,1,489,4,4,1,"1bfb973",39,1
"4127",1,1,1461,3,3,1,"1bfb973",40,1
"4225",1,0,357,1,2,1,"1bfb973",41,1
"4323",0,1,360,5,1,1,"1bfb973",42,1
"4423",0,1,365,1,6,1,"1bfb973",43,1
"4523",1,1,403,2,2,1,"1bfb973",44,1
"4623",0,1,324,2,1,1,"1bfb973",45,1
"4723",1,1,404,6,6,1,"1bfb973",46,1
"4823",0,1,1170,3,1,1,"1bfb973",47,1
"4923",0,1,477,6,1,1,"1bfb973",48,1
"5023",0,1,333,1,5,1,"1bfb973",49,1
"5127",0,1,674,4,1,1,"1bfb973",50,1
"5225",0,0,377,5,5,1,"1bfb973",51,1
"5323",1,1,400,3,3,1,"1bfb973",52,1
"5423",0,0,374,4,4,1,"1bfb973",53,1
"5523",1,1,382,1,1,1,"1bfb973",54,1
"5623",1,1,356,2,2,1,"1bfb973",55,1
"5723",1,1,546,4,4,1,"1bfb973",56,1
"5823",0,1,485,1,6,1,"1bfb973",57,1
"5923",1,1,860,6,6,1,"1bfb973",58,1
"6023",0,1,401,5,1,1,"1bfb973",59,1
"6127",0,1,313,2,1,1,"1bfb973",60,1
"6225",1,1,372,2,2,1,"1bfb973",61,1
"6323",1,1,373,1,1,1,"1bfb973",62,1
"6423",1,1,386,3,3,1,"1bfb973",63,1
"6523",0,1,356,1,4,1,"1bfb973",64,1
"6623",0,1,345,1,3,1,"1bfb973",65,1
"6723",0,0,354,5,5,1,"1bfb973",66,1
"6823",0,1,321,1,4,1,"1bfb973",67,1
"6923",1,1,516,1,1,1,"1bfb973",68,1
"7023",0,1,352,5,1,1,"1bfb973",69,1
"7127",1,1,592,5,5,1,"1bfb973",70,1
"7224",0,1,863,3,1,1,"1bfb973",71,1
"7323",1,1,342,2,2,1,"1bfb973",72,1
"7423",1,1,401,6,6,1,"1bfb973",73,1
"7523",1,1,389,3,3,1,"1bfb973",74,1
"7623",0,1,389,1,2,1,"1bfb973",75,1
"7723",0,1,505,1,6,1,"1bfb973",76,1
"7823",1,1,374,4,4,1,"1bfb973",77,1
"2108",0,1,448,1,3,3,"120902c",1,1
"3108",0,0,320,4,4,3,"120902c",2,1
"4108",0,1,291,1,4,3,"120902c",3,1
"5108",1,1,284,6,6,3,"120902c",4,1
"6108",1,0,274,2,1,3,"120902c",5,1
"799",0,1,267,1,5,3,"120902c",6,1
"824",1,1,505,3,3,3,"120902c",7,1
"924",1,1,289,5,5,3,"120902c",8,1
"1024",1,1,310,1,1,3,"120902c",9,1
"1124",0,1,350,6,1,3,"120902c",10,1
"1224",1,1,280,2,2,3,"120902c",11,1
"1324",1,1,275,2,2,3,"120902c",12,1
"1424",0,0,315,6,6,3,"120902c",13,1
"1524",0,1,1161,1,5,3,"120902c",14,1
"1624",1,1,276,1,1,3,"120902c",15,1
"1724",1,1,250,5,5,3,"120902c",16,1
"1824",1,0,294,1,2,3,"120902c",17,1
"1924",1,1,288,3,3,3,"120902c",18,1
"2024",0,1,291,1,6,3,"120902c",19,1
"2128",0,1,298,4,1,3,"120902c",20,1
"2226",1,1,305,4,4,3,"120902c",21,1
"2324",0,1,364,1,3,3,"120902c",22,1
"2424",1,1,272,1,1,3,"120902c",23,1
"2524",0,1,312,1,5,3,"120902c",24,1
"2624",1,1,332,4,4,3,"120902c",25,1
"2724",0,1,415,3,1,3,"120902c",26,1
"2824",1,1,317,6,6,3,"120902c",27,1
"2924",0,1,334,1,6,3,"120902c",28,1
"3024",1,0,304,1,2,3,"120902c",29,1
"3128",1,1,383,2,2,3,"120902c",30,1
"3226",1,1,400,5,5,3,"120902c",31,1
"3324",0,1,283,4,1,3,"120902c",32,1
"3424",1,1,319,3,3,3,"120902c",33,1
"3524",0,1,357,1,5,3,"120902c",34,1
"3624",1,1,363,4,4,3,"120902c",35,1
"3724",0,1,505,4,1,3,"120902c",36,1
"3824",0,1,493,6,1,3,"120902c",37,1
"3924",0,0,605,5,5,3,"120902c",38,1
"4024",1,0,357,1,2,3,"120902c",39,1
"4128",1,1,417,1,1,3,"120902c",40,1
"4226",0,1,1056,1,3,3,"120902c",41,1
"4324",1,1,379,3,3,3,"120902c",42,1
"4424",1,1,347,2,2,3,"120902c",43,1
"4524",1,1,293,6,6,3,"120902c",44,1
"4624",1,1,367,4,4,3,"120902c",45,1
"4724",0,1,1072,2,1,3,"120902c",46,1
"4824",0,1,310,1,5,3,"120902c",47,1
"4924",1,1,412,2,2,3,"120902c",48,1
"5024",1,1,306,1,1,3,"120902c",49,1
"5128",1,1,284,6,6,3,"120902c",50,1
"5226",1,1,407,3,3,3,"120902c",51,1
"5324",0,1,344,4,1,3,"120902c",52,1
"5424",1,1,298,5,5,3,"120902c",53,1
"5524",0,1,339,6,1,3,"120902c",54,1
"5624",0,1,878,1,3,3,"120902c",55,1
"5724",0,1,387,4,1,3,"120902c",56,1
"5824",1,1,294,1,1,3,"120902c",57,1
"5924",1,1,469,2,2,3,"120902c",58,1
"6024",1,1,321,6,6,3,"120902c",59,1
"6128",0,1,1857,1,5,3,"120902c",60,1
"6226",1,1,550,3,3,3,"120902c",61,1
"6324",0,1,390,3,1,3,"120902c",62,1
"6424",1,0,1680,1,2,3,"120902c",63,1
"6524",0,1,416,1,6,3,"120902c",64,1
"6624",1,1,499,5,5,3,"120902c",65,1
"6724",1,1,379,4,4,3,"120902c",66,1
"6824",0,0,384,3,3,3,"120902c",67,1
"6924",0,1,320,4,1,3,"120902c",68,1
"7024",1,1,396,6,6,3,"120902c",69,1
"7128",1,1,482,2,2,3,"120902c",70,1
"7225",0,1,363,3,1,3,"120902c",71,1
"7324",1,1,294,5,5,3,"120902c",72,1
"7424",0,1,360,1,5,3,"120902c",73,1
"7524",1,1,371,4,4,3,"120902c",74,1
"7624",1,0,308,1,2,3,"120902c",75,1
"7724",1,1,393,1,1,3,"120902c",76,1
"7824",0,1,389,1,6,3,"120902c",77,1
"2109",1,1,1315,3,3,1,"1e48ef3",1,1
"3109",1,0,507,1,6,1,"1e48ef3",2,1
"4109",1,1,637,1,1,1,"1e48ef3",3,1
"5109",0,1,421,3,1,1,"1e48ef3",4,1
"6109",1,0,386,4,1,1,"1e48ef3",5,1
"7100",1,1,376,6,6,1,"1e48ef3",6,1
"825",0,1,628,2,1,1,"1e48ef3",7,1
"925",0,0,584,5,5,1,"1e48ef3",8,1
"1025",0,0,559,4,4,1,"1e48ef3",9,1
"1125",0,1,779,1,5,1,"1e48ef3",10,1
"1225",1,1,653,2,2,1,"1e48ef3",11,1
"1325",1,0,398,1,6,1,"1e48ef3",12,1
"1425",1,1,487,4,4,1,"1e48ef3",13,1
"1525",0,1,847,2,1,1,"1e48ef3",14,1
"1625",1,0,671,1,4,1,"1e48ef3",15,1
"1725",0,0,680,1,1,1,"1e48ef3",16,1
"1825",1,0,411,3,1,1,"1e48ef3",17,1
"1925",0,0,409,6,6,1,"1e48ef3",18,1
"2025",1,1,474,5,5,1,"1e48ef3",19,1
"2129",0,1,474,5,1,1,"1e48ef3",20,1
"2227",1,1,1000,3,3,1,"1e48ef3",21,1
"2325",0,0,435,2,2,1,"1e48ef3",22,1
"2425",1,1,367,1,1,1,"1e48ef3",23,1
"2525",0,0,500,2,2,1,"1e48ef3",24,1
"2625",1,0,448,1,4,1,"1e48ef3",25,1
"2725",0,0,470,4,4,1,"1e48ef3",26,1
"2825",1,1,413,6,6,1,"1e48ef3",27,1
"2925",1,1,488,3,3,1,"1e48ef3",28,1
"3025",0,1,505,3,1,1,"1e48ef3",29,1
"3129",1,0,486,6,1,1,"1e48ef3",30,1
"3227",1,1,414,5,5,1,"1e48ef3",31,1
"3325",1,0,1215,2,1,1,"1e48ef3",32,1
"3425",0,1,405,1,5,1,"1e48ef3",33,1
"3525",1,0,640,4,1,1,"1e48ef3",34,1
"3625",0,0,554,6,6,1,"1e48ef3",35,1
"3725",0,0,393,1,1,1,"1e48ef3",36,1
"3825",1,0,458,2,1,1,"1e48ef3",37,1
"3925",1,1,351,2,2,1,"1e48ef3",38,1
"4025",1,1,408,5,5,1,"1e48ef3",39,1
"4129",0,1,434,3,1,1,"1e48ef3",40,1
"4227",0,1,339,6,1,1,"1e48ef3",41,1
"4325",0,1,605,5,1,1,"1e48ef3",42,1
"4425",1,1,714,4,4,1,"1e48ef3",43,1
"4525",1,1,401,3,3,1,"1e48ef3",44,1
"4625",0,1,146,5,1,1,"1e48ef3",45,1
"4725",1,1,1064,3,3,1,"1e48ef3",46,1
"4825",1,1,494,4,4,1,"1e48ef3",47,1
"4925",1,1,895,5,5,1,"1e48ef3",48,1
"5025",0,1,580,1,6,1,"1e48ef3",49,1
"5129",0,0,382,1,1,1,"1e48ef3",50,1
"5227",1,0,392,3,1,1,"1e48ef3",51,1
"5325",0,1,446,4,1,1,"1e48ef3",52,1
"5425",1,1,406,2,2,1,"1e48ef3",53,1
"5525",1,1,367,6,6,1,"1e48ef3",54,1
"5625",1,0,456,2,1,1,"1e48ef3",55,1
"5725",0,0,540,1,1,1,"1e48ef3",56,1
"5825",1,1,520,5,5,1,"1e48ef3",57,1
"5925",0,1,368,4,1,1,"1e48ef3",58,1
"6025",1,1,407,2,2,1,"1e48ef3",59,1
"6129",1,0,527,2,1,1,"1e48ef3",60,1
"6227",1,1,397,4,4,1,"1e48ef3",61,1
"6325",1,1,878,6,6,1,"1e48ef3",62,1
"6425",1,0,477,3,1,1,"1e48ef3",63,1
"6525",1,1,737,3,3,1,"1e48ef3",64,1
"6625",0,1,364,1,5,1,"1e48ef3",65,1
"6725",0,1,495,1,6,1,"1e48ef3",66,1
"6825",0,1,547,4,1,1,"1e48ef3",67,1
"6925",1,1,456,4,4,1,"1e48ef3",68,1
"7025",1,0,565,1,2,1,"1e48ef3",69,1
"7129",1,0,1108,1,5,1,"1e48ef3",70,1
"7226",1,1,431,3,3,1,"1e48ef3",71,1
"7325",1,1,633,6,6,1,"1e48ef3",72,1
"7425",1,1,1120,5,5,1,"1e48ef3",73,1
"7525",0,1,573,1,6,1,"1e48ef3",74,1
"7625",1,1,487,2,2,1,"1e48ef3",75,1
"7725",1,1,606,1,1,1,"1e48ef3",76,1
"7825",0,1,391,1,3,1,"1e48ef3",77,1
"2130",1,1,1296,5,5,2,"1091afd",1,1
"3130",1,0,502,2,1,2,"1091afd",2,1
"4130",1,1,418,2,2,2,"1091afd",3,1
"5130",0,1,303,5,1,2,"1091afd",4,1
"6130",1,1,444,1,1,2,"1091afd",5,1
"7101",1,0,267,1,3,2,"1091afd",6,1
"826",1,0,257,6,1,2,"1091afd",7,1
"926",1,1,431,4,4,2,"1091afd",8,1
"1026",0,0,445,3,3,2,"1091afd",9,1
"1126",0,0,617,6,6,2,"1091afd",10,1
"1226",1,0,356,1,4,2,"1091afd",11,1
"1326",1,1,268,6,6,2,"1091afd",12,1
"1426",0,1,315,6,1,2,"1091afd",13,1
"1526",1,1,403,4,4,2,"1091afd",14,1
"1626",1,1,297,5,5,2,"1091afd",15,1
"1726",1,1,253,3,3,2,"1091afd",16,1
"1826",0,0,326,2,2,2,"1091afd",17,1
"1926",0,1,271,5,1,2,"1091afd",18,1
"2026",1,0,267,1,2,2,"1091afd",19,1
"2131",1,0,322,4,1,2,"1091afd",20,1
"2228",1,1,250,1,1,2,"1091afd",21,1
"2326",1,0,231,1,3,2,"1091afd",22,1
"2426",1,1,337,5,5,2,"1091afd",23,1
"2526",1,1,434,6,6,2,"1091afd",24,1
"2626",1,0,276,2,1,2,"1091afd",25,1
"2726",1,1,230,4,4,2,"1091afd",26,1
"2826",0,1,185,1,5,2,"1091afd",27,1
"2926",0,0,326,2,2,2,"1091afd",28,1
"3026",0,1,376,1,6,2,"1091afd",29,1
"3131",0,1,278,3,1,2,"1091afd",30,1
"3228",1,1,251,1,1,2,"1091afd",31,1
"3326",0,1,315,1,4,2,"1091afd",32,1
"3426",1,1,76,3,3,2,"1091afd",33,1
"3526",0,1,258,1,6,2,"1091afd",34,1
"3626",1,1,279,6,6,2,"1091afd",35,1
"3726",1,0,249,1,2,2,"1091afd",36,1
"3826",0,1,110,1,4,2,"1091afd",37,1
"3926",0,1,247,1,3,2,"1091afd",38,1
"4026",1,1,292,1,1,2,"1091afd",39,1
"4131",0,1,253,1,5,2,"1091afd",40,1
"4228",1,1,236,5,5,2,"1091afd",41,1
"4326",1,1,317,4,4,2,"1091afd",42,1
"4426",1,1,307,2,2,2,"1091afd",43,1
"4526",1,1,298,3,3,2,"1091afd",44,1
"4626",1,1,309,3,3,2,"1091afd",45,1
"4726",0,1,386,4,1,2,"1091afd",46,1
"4826",1,1,246,6,6,2,"1091afd",47,1
"4926",0,1,285,3,1,2,"1091afd",48,1
"5026",1,1,297,5,5,2,"1091afd",49,1
"5131",1,1,44,1,1,2,"1091afd",50,1
"5228",0,1,282,1,6,2,"1091afd",51,1
"5326",0,1,135,5,1,2,"1091afd",52,1
"5426",0,1,255,1,2,2,"1091afd",53,1
"5526",1,1,301,2,2,2,"1091afd",54,1
"5626",1,1,247,4,4,2,"1091afd",55,1
"5726",1,1,217,3,3,2,"1091afd",56,1
"5826",1,1,263,5,5,2,"1091afd",57,1
"5926",0,1,442,3,1,2,"1091afd",58,1
"6026",1,1,247,6,6,2,"1091afd",59,1
"6131",0,1,266,5,1,2,"1091afd",60,1
"6228",0,1,349,1,6,2,"1091afd",61,1
"6326",1,1,394,4,4,2,"1091afd",62,1
"6426",1,1,229,1,1,2,"1091afd",63,1
"6526",1,1,232,2,2,2,"1091afd",64,1
"6626",0,1,476,4,1,2,"1091afd",65,1
"6726",0,1,369,1,2,2,"1091afd",66,1
"6826",0,1,116,1,5,2,"1091afd",67,1
"6926",1,1,349,2,2,2,"1091afd",68,1
"7026",1,1,316,5,5,2,"1091afd",69,1
"7130",1,1,294,3,3,2,"1091afd",70,1
"7227",1,1,395,1,1,2,"1091afd",71,1
"7326",1,1,333,4,4,2,"1091afd",72,1
"7426",0,1,162,1,3,2,"1091afd",73,1
"7526",0,1,393,2,1,2,"1091afd",74,1
"7626",1,1,410,6,6,2,"1091afd",75,1
"7726",0,1,357,1,6,2,"1091afd",76,1
"7826",0,1,424,4,1,2,"1091afd",77,1
"2132",1,0,534,1,3,1,"13edd0d",1,1
"3132",0,1,938,1,6,1,"13edd0d",2,1
"4132",1,1,330,1,1,1,"13edd0d",3,1
"5132",-1,-1,0,2,2,1,"13edd0d",4,1
"6132",1,1,440,5,5,1,"13edd0d",5,1
"7102",0,1,966,5,1,1,"13edd0d",6,1
"827",1,1,451,6,6,1,"13edd0d",7,1
"927",1,1,294,4,4,1,"13edd0d",8,1
"1027",0,1,306,1,4,1,"13edd0d",9,1
"1127",1,1,438,3,3,1,"13edd0d",10,1
"1227",0,1,372,1,2,1,"13edd0d",11,1
"1327",1,1,556,2,2,1,"13edd0d",12,1
"1427",1,1,302,4,4,1,"13edd0d",13,1
"1527",1,1,339,6,6,1,"13edd0d",14,1
"1627",0,1,315,5,1,1,"13edd0d",15,1
"1727",1,1,280,5,5,1,"13edd0d",16,1
"1827",0,1,421,4,1,1,"13edd0d",17,1
"1927",0,1,330,1,6,1,"13edd0d",18,1
"2027",1,1,377,1,1,1,"13edd0d",19,1
"2133",1,1,518,3,3,1,"13edd0d",20,1
"2229",1,0,361,2,1,1,"13edd0d",21,1
"2327",0,1,339,3,1,1,"13edd0d",22,1
"2427",0,1,324,6,1,1,"13edd0d",23,1
"2527",1,1,510,3,3,1,"13edd0d",24,1
"2627",1,1,91,1,1,1,"13edd0d",25,1
"2727",0,1,547,2,1,1,"13edd0d",26,1
"2827",1,1,574,5,5,1,"13edd0d",27,1
"2927",0,1,335,1,4,1,"13edd0d",28,1
"3027",1,1,387,2,2,1,"13edd0d",29,1
"3133",1,1,1250,6,6,1,"13edd0d",30,1
"3229",0,1,314,3,1,1,"13edd0d",31,1
"3327",1,1,311,4,4,1,"13edd0d",32,1
"3427",0,1,314,1,5,1,"13edd0d",33,1
"3527",1,1,323,6,6,1,"13edd0d",34,1
"3627",0,1,527,1,2,1,"13edd0d",35,1
"3727",1,1,297,5,5,1,"13edd0d",36,1
"3827",1,1,450,3,3,1,"13edd0d",37,1
"3927",1,0,424,1,3,1,"13edd0d",38,1
"4027",0,1,132,4,1,1,"13edd0d",39,1
"4133",1,1,312,4,4,1,"13edd0d",40,1
"4229",0,1,750,6,1,1,"13edd0d",41,1
"4327",0,1,86,1,5,1,"13edd0d",42,1
"4427",1,1,347,2,2,1,"13edd0d",43,1
"4527",1,1,472,1,1,1,"13edd0d",44,1
"4627",1,1,330,2,2,1,"13edd0d",45,1
"4727",1,1,210,6,6,1,"13edd0d",46,1
"4827",1,1,436,3,3,1,"13edd0d",47,1
"4927",1,0,318,1,2,1,"13edd0d",48,1
"5027",1,1,174,1,1,1,"13edd0d",49,1
"5133",0,1,311,4,1,1,"13edd0d",50,1
"5229",1,1,543,5,5,1,"13edd0d",51,1
"5327",1,1,322,4,4,1,"13edd0d",52,1
"5427",0,1,1306,3,1,1,"13edd0d",53,1
"5527",0,1,407,6,1,1,"13edd0d",54,1
"5627",0,1,336,1,5,1,"13edd0d",55,1
"5727",0,1,424,1,5,1,"13edd0d",56,1
"5827",0,1,312,1,6,1,"13edd0d",57,1
"5927",0,1,252,1,4,1,"13edd0d",58,1
"6027",0,1,519,1,3,1,"13edd0d",59,1
"6133",1,1,455,5,5,1,"13edd0d",60,1
"6229",1,0,525,1,2,1,"13edd0d",61,1
"6327",1,1,486,4,4,1,"13edd0d",62,1
"6427",1,1,893,6,6,1,"13edd0d",63,1
"6527",1,1,319,3,3,1,"13edd0d",64,1
"6627",1,1,229,1,1,1,"13edd0d",65,1
"6727",1,1,323,2,2,1,"13edd0d",66,1
"6827",0,1,301,5,1,1,"13edd0d",67,1
"6927",1,1,659,3,3,1,"13edd0d",68,1
"7027",0,1,295,6,1,1,"13edd0d",69,1
"7131",1,0,292,2,1,1,"13edd0d",70,1
"7228",1,1,326,4,4,1,"13edd0d",71,1
"7327",1,1,409,1,1,1,"13edd0d",72,1
"7427",0,1,250,1,4,1,"13edd0d",73,1
"7527",0,1,326,1,3,1,"13edd0d",74,1
"7627",1,1,301,2,2,1,"13edd0d",75,1
"7727",1,1,250,6,6,1,"13edd0d",76,1
"7827",1,1,301,5,5,1,"13edd0d",77,1
"2134",1,1,760,5,5,2,"1e9ea77",1,1
"3134",1,1,405,4,4,2,"1e9ea77",2,1
"4134",0,1,445,5,1,2,"1e9ea77",3,1
"5134",0,1,277,1,4,2,"1e9ea77",4,1
"6134",0,0,319,1,1,2,"1e9ea77",5,1
"7103",-1,-1,0,3,3,2,"1e9ea77",6,1
"828",0,0,272,6,6,2,"1e9ea77",7,1
"928",0,1,286,1,3,2,"1e9ea77",8,1
"1028",1,0,121,2,1,2,"1e9ea77",9,1
"1128",0,0,227,2,2,2,"1e9ea77",10,1
"1228",1,0,289,6,1,2,"1e9ea77",11,1
"1328",0,0,301,3,3,2,"1e9ea77",12,1
"1428",0,0,306,2,2,2,"1e9ea77",13,1
"1528",1,0,306,1,4,2,"1e9ea77",14,1
"1628",0,0,369,4,4,2,"1e9ea77",15,1
"1728",1,0,912,1,6,2,"1e9ea77",16,1
"1828",0,0,809,6,6,2,"1e9ea77",17,1
"1928",0,1,468,2,1,2,"1e9ea77",18,1
"2028",1,0,350,1,5,2,"1e9ea77",19,1
"2135",0,0,560,1,1,2,"1e9ea77",20,1
"2230",0,0,1097,5,5,2,"1e9ea77",21,1
"2328",0,1,216,3,1,2,"1e9ea77",22,1
"2428",1,0,243,1,5,2,"1e9ea77",23,1
"2528",0,0,409,4,4,2,"1e9ea77",24,1
"2628",0,0,544,2,2,2,"1e9ea77",25,1
"2728",1,1,254,3,3,2,"1e9ea77",26,1
"2828",1,1,367,1,1,2,"1e9ea77",27,1
"2928",1,0,303,1,6,2,"1e9ea77",28,1
"3028",1,1,386,5,5,2,"1e9ea77",29,1
"3135",0,1,125,1,3,2,"1e9ea77",30,1
"3230",0,1,310,2,1,2,"1e9ea77",31,1
"3328",0,1,411,1,4,2,"1e9ea77",32,1
"3428",1,1,313,6,6,2,"1e9ea77",33,1
"3528",0,0,411,6,6,2,"1e9ea77",34,1
"3628",1,0,320,2,1,2,"1e9ea77",35,1
"3728",0,0,448,4,4,2,"1e9ea77",36,1
"3828",1,1,178,2,2,2,"1e9ea77",37,1
"3928",0,1,452,3,1,2,"1e9ea77",38,1
"4028",1,0,380,6,1,2,"1e9ea77",39,1
"4135",0,0,291,3,3,2,"1e9ea77",40,1
"4230",1,0,821,4,1,2,"1e9ea77",41,1
"4328",-1,NA,NA,NA,NA,NA,"1e9ea77",42,1
"2136",1,0,1241,1,4,3,"1ded5f0",1,1
"3136",1,0,571,1,5,3,"1ded5f0",2,1
"4136",0,1,633,1,6,3,"1ded5f0",3,1
"5135",0,1,1062,1,3,3,"1ded5f0",4,1
"6135",1,1,1338,6,6,3,"1ded5f0",5,1
"7104",1,1,578,5,5,3,"1ded5f0",6,1
"829",0,1,454,2,1,3,"1ded5f0",7,1
"929",1,1,5,3,3,3,"1ded5f0",8,1
"1029",1,1,420,1,1,3,"1ded5f0",9,1
"1129",1,1,246,2,2,3,"1ded5f0",10,1
"1229",1,1,1549,4,4,3,"1ded5f0",11,1
"1329",0,1,1148,5,1,3,"1ded5f0",12,1
"1429",1,1,558,6,6,3,"1ded5f0",13,1
"1529",1,1,414,3,3,3,"1ded5f0",14,1
"1629",0,1,1306,1,6,3,"1ded5f0",15,1
"1729",1,1,666,4,4,3,"1ded5f0",16,1
"1829",1,1,531,2,2,3,"1ded5f0",17,1
"1929",1,1,623,5,5,3,"1ded5f0",18,1
"2029",1,0,582,2,1,3,"1ded5f0",19,1
"2137",1,1,452,1,1,3,"1ded5f0",20,1
"2231",1,0,556,3,1,3,"1ded5f0",21,1
"2329",0,1,496,1,4,3,"1ded5f0",22,1
"2429",0,1,428,1,4,3,"1ded5f0",23,1
"2529",1,1,567,3,3,3,"1ded5f0",24,1
"2629",0,1,437,2,1,3,"1ded5f0",25,1
"2729",0,1,271,6,1,3,"1ded5f0",26,1
"2829",1,1,501,5,5,3,"1ded5f0",27,1
"2929",1,1,576,1,1,3,"1ded5f0",28,1
"3029",1,1,410,2,2,3,"1ded5f0",29,1
"3137",0,1,528,1,3,3,"1ded5f0",30,1
"3231",0,1,334,1,5,3,"1ded5f0",31,1
"3329",1,1,1293,6,6,3,"1ded5f0",32,1
"3429",1,1,397,4,4,3,"1ded5f0",33,1
"3529",1,1,314,6,6,3,"1ded5f0",34,1
"3629",0,1,405,1,3,3,"1ded5f0",35,1
"3729",1,0,471,1,2,3,"1ded5f0",36,1
"3829",0,1,508,4,1,3,"1ded5f0",37,1
"3929",1,1,947,4,4,3,"1ded5f0",38,1
"4029",0,1,344,1,6,3,"1ded5f0",39,1
"4137",1,1,319,3,3,3,"1ded5f0",40,1
"4231",0,1,253,1,5,3,"1ded5f0",41,1
"4329",0,0,431,5,5,3,"1ded5f0",42,1
"4428",0,0,307,2,2,3,"1ded5f0",43,1
"4528",1,1,778,1,1,3,"1ded5f0",44,1
"4628",0,1,468,1,6,3,"1ded5f0",45,1
"4728",1,0,311,1,2,3,"1ded5f0",46,1
"4828",0,0,259,3,3,3,"1ded5f0",47,1
"4928",1,1,398,5,5,3,"1ded5f0",48,1
"5028",0,1,343,4,1,3,"1ded5f0",49,1
"5136",1,1,552,2,2,3,"1ded5f0",50,1
"5230",0,1,262,3,1,3,"1ded5f0",51,1
"5328",1,1,569,4,4,3,"1ded5f0",52,1
"5428",0,1,1098,1,5,3,"1ded5f0",53,1
"5528",1,1,473,6,6,3,"1ded5f0",54,1
"5628",1,1,271,1,1,3,"1ded5f0",55,1
"5728",1,1,531,4,4,3,"1ded5f0",56,1
"5828",1,1,483,2,2,3,"1ded5f0",57,1
"5928",0,1,280,3,1,3,"1ded5f0",58,1
"6028",0,1,474,1,4,3,"1ded5f0",59,1
"6136",1,1,180,3,3,3,"1ded5f0",60,1
"6230",0,1,367,1,6,3,"1ded5f0",61,1
"6328",1,1,409,6,6,3,"1ded5f0",62,1
"6428",-1,-1,0,5,5,3,"1ded5f0",63,1
"6528",0,0,1315,1,1,3,"1ded5f0",64,1
"6628",1,0,296,1,5,3,"1ded5f0",65,1
"6728",1,0,390,2,1,3,"1ded5f0",66,1
"6828",1,0,801,1,4,3,"1ded5f0",67,1
"6928",1,1,395,2,2,3,"1ded5f0",68,1
"7028",1,1,950,6,6,3,"1ded5f0",69,1
"7132",1,1,259,3,3,3,"1ded5f0",70,1
"7229",0,1,508,2,1,3,"1ded5f0",71,1
"7328",1,1,207,5,5,3,"1ded5f0",72,1
"7428",0,0,530,1,1,3,"1ded5f0",73,1
"7528",-1,0,1783,5,1,3,"1ded5f0",74,1
"7628",0,1,1076,1,6,3,"1ded5f0",75,1
"7728",1,1,489,4,4,3,"1ded5f0",76,1
"7828",0,1,666,1,3,3,"1ded5f0",77,1
"2138",-1,-1,0,1,1,3,"1fda946",1,1
"3138",1,1,798,2,2,3,"1fda946",2,1
"4138",1,1,758,3,3,3,"1fda946",3,1
"5137",1,0,615,3,1,3,"1fda946",4,1
"6137",1,0,619,4,1,3,"1fda946",5,1
"7105",1,0,583,1,6,3,"1fda946",6,1
"830",1,1,910,5,5,3,"1fda946",7,1
"930",1,1,1175,6,6,3,"1fda946",8,1
"1030",1,1,858,4,4,3,"1fda946",9,1
"1130",1,0,689,2,1,3,"1fda946",10,1
"1230",1,0,600,1,5,3,"1fda946",11,1
"1330",1,0,614,1,5,3,"1fda946",12,1
"1430",1,0,781,2,1,3,"1fda946",13,1
"1530",1,1,590,4,4,3,"1fda946",14,1
"1630",1,1,563,6,6,3,"1fda946",15,1
"1730",1,1,699,1,1,3,"1fda946",16,1
"1830",1,0,846,1,3,3,"1fda946",17,1
"1930",1,1,769,2,2,3,"1fda946",18,1
"2030",0,1,879,4,1,3,"1fda946",19,1
"2139",0,0,506,5,5,3,"1fda946",20,1
"2232",0,1,383,6,1,3,"1fda946",21,1
"2330",1,1,521,3,3,3,"1fda946",22,1
"2430",1,1,506,4,4,3,"1fda946",23,1
"2530",1,1,474,6,6,3,"1fda946",24,1
"2630",1,0,482,1,2,3,"1fda946",25,1
"2730",1,0,562,6,1,3,"1fda946",26,1
"2830",1,1,718,3,3,3,"1fda946",27,1
"2930",0,1,383,4,1,3,"1fda946",28,1
"3030",1,0,412,1,5,3,"1fda946",29,1
"3139",0,0,620,5,5,3,"1fda946",30,1
"3232",0,0,391,1,1,3,"1fda946",31,1
"3330",0,0,366,2,2,3,"1fda946",32,1
"3430",1,0,499,1,3,3,"1fda946",33,1
"3530",1,0,555,4,1,3,"1fda946",34,1
"3630",1,0,419,1,2,3,"1fda946",35,1
"3730",0,1,517,1,5,3,"1fda946",36,1
"3830",1,1,455,3,3,3,"1fda946",37,1
"3930",0,1,357,6,1,3,"1fda946",38,1
"4030",1,1,487,5,5,3,"1fda946",39,1
"4139",1,1,425,4,4,3,"1fda946",40,1
"4232",1,1,513,2,2,3,"1fda946",41,1
"4330",0,1,395,3,1,3,"1fda946",42,1
"4429",1,1,587,1,1,3,"1fda946",43,1
"4529",1,1,512,6,6,3,"1fda946",44,1
"4629",0,1,576,1,5,3,"1fda946",45,1
"4729",1,0,671,2,1,3,"1fda946",46,1
"4829",0,1,467,1,4,3,"1fda946",47,1
"4929",0,1,466,1,6,3,"1fda946",48,1
"5029",1,1,1130,1,1,3,"1fda946",49,1
"5138",1,1,569,5,5,3,"1fda946",50,1
"5231",1,1,542,2,2,3,"1fda946",51,1
"5329",1,1,542,4,4,3,"1fda946",52,1
"5429",1,1,536,3,3,3,"1fda946",53,1
"5529",1,0,381,3,1,3,"1fda946",54,1
"5629",1,1,480,6,6,3,"1fda946",55,1
"5729",1,1,740,6,6,3,"1fda946",56,1
"5829",1,0,338,2,1,3,"1fda946",57,1
"5929",0,1,432,1,3,3,"1fda946",58,1
"6029",1,1,379,4,4,3,"1fda946",59,1
"6138",1,1,394,1,1,3,"1fda946",60,1
"6231",1,1,414,5,5,3,"1fda946",61,1
"6329",0,1,478,1,5,3,"1fda946",62,1
"6429",0,1,619,1,4,3,"1fda946",63,1
"6529",0,1,708,1,6,3,"1fda946",64,1
"6629",1,1,565,2,2,3,"1fda946",65,1
"6729",1,1,334,3,3,3,"1fda946",66,1
"6829",0,1,405,1,2,3,"1fda946",67,1
"6929",1,1,609,6,6,3,"1fda946",68,1
"7029",1,1,352,1,1,3,"1fda946",69,1
"7133",0,1,898,4,1,3,"1fda946",70,1
"7230",1,1,492,3,3,3,"1fda946",71,1
"7329",1,1,540,4,4,3,"1fda946",72,1
"7429",1,1,752,5,5,3,"1fda946",73,1
"7529",0,1,380,3,1,3,"1fda946",74,1
"7629",1,1,432,2,2,3,"1fda946",75,1
"7729",0,1,652,1,5,3,"1fda946",76,1
"7829",0,1,686,1,6,3,"1fda946",77,1
"2140",1,1,732,2,2,3,"1f49aed",1,1
"3140",1,1,410,6,6,3,"1f49aed",2,1
"4140",1,1,659,4,4,3,"1f49aed",3,1
"5139",1,1,493,5,5,3,"1f49aed",4,1
"6139",1,1,426,1,1,3,"1f49aed",5,1
"7106",1,0,432,2,1,3,"1f49aed",6,1
"831",1,0,335,3,1,3,"1f49aed",7,1
"931",0,1,291,1,5,3,"1f49aed",8,1
"1031",1,0,332,1,4,3,"1f49aed",9,1
"1131",0,1,316,1,6,3,"1f49aed",10,1
"1231",0,0,222,3,3,3,"1f49aed",11,1
"1331",1,0,317,1,3,3,"1f49aed",12,1
"1431",1,0,296,1,2,3,"1f49aed",13,1
"1531",0,0,277,1,1,3,"1f49aed",14,1
"1631",0,0,328,3,3,3,"1f49aed",15,1
"1731",1,1,321,4,4,3,"1f49aed",16,1
"1831",1,1,256,5,5,3,"1f49aed",17,1
"1931",0,0,270,6,6,3,"1f49aed",18,1
"2031",0,0,270,2,2,3,"1f49aed",19,1
"2141",1,0,354,5,1,3,"1f49aed",20,1
"2233",0,1,375,6,1,3,"1f49aed",21,1
"2331",0,1,332,4,1,3,"1f49aed",22,1
"2431",1,1,397,4,4,3,"1f49aed",23,1
"2531",0,0,298,6,6,3,"1f49aed",24,1
"2631",0,1,541,3,1,3,"1f49aed",25,1
"2731",1,0,650,4,1,3,"1f49aed",26,1
"2831",0,0,390,2,2,3,"1f49aed",27,1
"2931",1,0,259,1,6,3,"1f49aed",28,1
"3031",1,0,347,1,2,3,"1f49aed",29,1
"3141",1,1,436,5,5,3,"1f49aed",30,1
"3233",1,1,454,1,1,3,"1f49aed",31,1
"3331",0,1,418,1,5,3,"1f49aed",32,1
"3431",1,1,254,3,3,3,"1f49aed",33,1
"3531",0,1,325,4,1,3,"1f49aed",34,1
"3631",1,1,334,4,4,3,"1f49aed",35,1
"3731",0,1,254,2,1,3,"1f49aed",36,1
"3831",0,1,190,1,6,3,"1f49aed",37,1
"3931",1,1,283,2,2,3,"1f49aed",38,1
"4031",1,0,231,5,1,3,"1f49aed",39,1
"4141",1,1,238,5,5,3,"1f49aed",40,1
"4233",1,1,244,1,1,3,"1f49aed",41,1
"4331",0,1,207,1,3,3,"1f49aed",42,1
"4430",1,1,367,6,6,3,"1f49aed",43,1
"4530",1,1,238,3,3,3,"1f49aed",44,1
"4630",1,0,148,1,6,3,"1f49aed",45,1
"4730",0,0,228,6,6,3,"1f49aed",46,1
"4830",1,0,270,3,1,3,"1f49aed",47,1
"4930",1,1,222,5,5,3,"1f49aed",48,1
"5030",0,0,227,4,4,3,"1f49aed",49,1
"5140",0,0,231,3,3,3,"1f49aed",50,1
"5232",1,0,279,1,4,3,"1f49aed",51,1
"5330",0,1,240,2,1,3,"1f49aed",52,1
"5430",1,0,235,5,1,3,"1f49aed",53,1
"5530",0,0,333,1,1,3,"1f49aed",54,1
"5630",0,0,241,2,2,3,"1f49aed",55,1
"5730",1,0,263,1,6,3,"1f49aed",56,1
"5830",1,0,255,1,5,3,"1f49aed",57,1
"5930",0,0,208,4,4,3,"1f49aed",58,1
"6030",1,1,115,2,2,3,"1f49aed",59,1
"6140",1,1,236,6,6,3,"1f49aed",60,1
"6232",1,0,259,3,1,3,"1f49aed",61,1
"6330",1,1,245,3,3,3,"1f49aed",62,1
"6430",1,1,429,5,5,3,"1f49aed",63,1
"6530",1,0,315,2,1,3,"1f49aed",64,1
"6630",1,0,143,4,1,3,"1f49aed",65,1
"6730",0,0,352,1,1,3,"1f49aed",66,1
"6830",1,0,244,1,6,3,"1f49aed",67,1
"6930",0,0,246,1,1,3,"1f49aed",68,1
"7030",0,0,226,3,3,3,"1f49aed",69,1
"7134",0,0,290,6,6,3,"1f49aed",70,1
"7231",0,0,249,5,5,3,"1f49aed",71,1
"7330",1,0,214,1,4,3,"1f49aed",72,1
"7430",1,0,284,5,1,3,"1f49aed",73,1
"7530",1,0,213,2,1,3,"1f49aed",74,1
"7630",0,1,233,1,3,3,"1f49aed",75,1
"7730",1,1,143,4,4,3,"1f49aed",76,1
"7830",0,0,518,2,2,3,"1f49aed",77,1
"2142",1,0,1589,1,4,1,"13598d1",1,1
"3142",1,1,620,4,4,1,"13598d1",2,1
"4142",1,0,298,1,2,1,"13598d1",3,1
"5141",0,0,298,1,1,1,"13598d1",4,1
"6141",0,1,469,1,6,1,"13598d1",5,1
"7107",1,0,521,5,1,1,"13598d1",6,1
"832",0,0,469,6,6,1,"13598d1",7,1
"932",0,0,485,3,3,1,"13598d1",8,1
"1032",1,1,749,2,2,1,"13598d1",9,1
"1132",1,0,408,1,3,1,"13598d1",10,1
"1232",0,0,882,5,5,1,"13598d1",11,1
"1332",0,0,702,3,3,1,"13598d1",12,1
"1432",0,1,155,1,6,1,"13598d1",13,1
"1532",-1,-1,0,3,1,1,"13598d1",14,1
"1632",-1,-1,0,2,2,1,"13598d1",15,1
"1732",-1,-1,0,5,1,1,"13598d1",16,1
"1832",-1,-1,0,1,1,1,"13598d1",17,1
"1932",0,0,509,6,6,1,"13598d1",18,1
"2032",-1,-1,0,4,4,1,"13598d1",19,1
"2143",0,0,345,5,5,1,"13598d1",20,1
"2234",1,0,698,1,4,1,"13598d1",21,1
"2332",0,1,549,1,2,1,"13598d1",22,1
"2432",0,1,824,1,5,1,"13598d1",23,1
"2532",0,1,1679,1,6,1,"13598d1",24,1
"2632",1,1,471,1,1,1,"13598d1",25,1
"2732",0,1,755,3,1,1,"13598d1",26,1
"2832",0,0,474,2,2,1,"13598d1",27,1
"2932",1,1,420,5,5,1,"13598d1",28,1
"3032",0,1,443,1,4,1,"13598d1",29,1
"3143",0,1,326,2,1,1,"13598d1",30,1
"3234",1,1,1976,6,6,1,"13598d1",31,1
"3332",1,1,486,4,4,1,"13598d1",32,1
"3432",0,0,1185,3,3,1,"13598d1",33,1
"3532",1,1,389,4,4,1,"13598d1",34,1
"3632",1,1,869,3,3,1,"13598d1",35,1
"3732",0,1,742,5,1,1,"13598d1",36,1
"3832",0,1,486,4,1,1,"13598d1",37,1
"3932",1,1,1247,2,2,1,"13598d1",38,1
"4032",0,1,1296,1,2,1,"13598d1",39,1
"4143",0,1,819,6,1,1,"13598d1",40,1
"4234",0,1,1040,3,1,1,"13598d1",41,1
"4332",0,0,884,6,6,1,"13598d1",42,1
"4431",1,1,423,5,5,1,"13598d1",43,1
"4531",0,0,551,1,1,1,"13598d1",44,1
"4631",1,0,867,1,3,1,"13598d1",45,1
"4731",0,0,437,2,2,1,"13598d1",46,1
"4831",1,1,429,6,6,1,"13598d1",47,1
"4931",-1,-1,0,4,1,1,"13598d1",48,1
"5031",-1,-1,0,4,4,1,"13598d1",49,1
"5142",0,1,1813,6,1,1,"13598d1",50,1
"5233",0,0,575,3,3,1,"13598d1",51,1
"5331",1,0,561,2,1,1,"13598d1",52,1
"5431",-1,-1,0,1,1,1,"13598d1",53,1
"5531",-1,-1,0,5,5,1,"13598d1",54,1
"5631",0,1,509,1,5,1,"13598d1",55,1
"5731",0,0,1578,6,6,1,"13598d1",56,1
"5831",0,0,1675,2,2,1,"13598d1",57,1
"5931",0,0,1385,3,3,1,"13598d1",58,1
"6031",1,0,508,1,4,1,"13598d1",59,1
"6142",0,0,730,5,5,1,"13598d1",60,1
"6233",1,0,841,1,2,1,"13598d1",61,1
"6331",0,0,455,4,4,1,"13598d1",62,1
"6431",1,0,1008,6,1,1,"13598d1",63,1
"6531",0,1,1631,3,1,1,"13598d1",64,1
"6631",1,1,471,1,1,1,"13598d1",65,1
"6731",0,1,742,5,1,1,"13598d1",66,1
"6831",0,1,438,1,3,1,"13598d1",67,1
"6931",0,1,670,1,6,1,"13598d1",68,1
"7031",0,0,646,3,3,1,"13598d1",69,1
"7135",1,1,468,2,2,1,"13598d1",70,1
"7232",0,0,1640,4,4,1,"13598d1",71,1
"7331",1,1,1275,6,6,1,"13598d1",72,1
"7431",0,0,1299,5,5,1,"13598d1",73,1
"7531",1,0,688,4,1,1,"13598d1",74,1
"7631",0,1,666,1,5,1,"13598d1",75,1
"7731",1,0,958,1,2,1,"13598d1",76,1
"7831",-1,-1,0,1,1,1,"13598d1",77,1
"2144",1,1,717,3,3,1,"148ec2a",1,1
"3144",1,1,508,2,2,1,"148ec2a",2,1
"4144",0,1,568,4,1,1,"148ec2a",3,1
"5143",1,1,320,6,6,1,"148ec2a",4,1
"6143",0,1,285,1,5,1,"148ec2a",5,1
"7108",1,1,292,1,1,1,"148ec2a",6,1
"833",1,1,319,4,4,1,"148ec2a",7,1
"933",0,1,368,3,1,1,"148ec2a",8,1
"1033",0,1,369,1,2,1,"148ec2a",9,1
"1133",0,1,352,6,1,1,"148ec2a",10,1
"1233",1,1,70,5,5,1,"148ec2a",11,1
"1333",0,0,121,2,2,1,"148ec2a",12,1
"1433",1,1,280,5,5,1,"148ec2a",13,1
"1533",0,1,47,6,1,1,"148ec2a",14,1
"1633",0,0,421,3,3,1,"148ec2a",15,1
"1733",0,1,14,3,1,1,"148ec2a",16,1
"1833",1,1,253,1,1,1,"148ec2a",17,1
"1933",0,1,305,1,2,1,"148ec2a",18,1
"2033",0,1,368,1,5,1,"148ec2a",19,1
"2145",1,1,70,4,4,1,"148ec2a",20,1
"2235",1,1,368,6,6,1,"148ec2a",21,1
"2333",0,1,922,1,4,1,"148ec2a",22,1
"2433",1,1,63,3,3,1,"148ec2a",23,1
"2533",0,1,279,1,3,1,"148ec2a",24,1
"2633",1,1,314,4,4,1,"148ec2a",25,1
"2733",0,1,312,4,1,1,"148ec2a",26,1
"2833",0,1,321,6,1,1,"148ec2a",27,1
"2933",1,1,246,1,1,1,"148ec2a",28,1
"3033",1,1,679,2,2,1,"148ec2a",29,1
"3145",1,1,164,5,5,1,"148ec2a",30,1
"3235",0,1,287,1,2,1,"148ec2a",31,1
"3333",0,1,254,1,5,1,"148ec2a",32,1
"3433",1,1,384,6,6,1,"148ec2a",33,1
"3533",0,1,516,1,2,1,"148ec2a",34,1
"3633",1,0,289,1,4,1,"148ec2a",35,1
"3733",0,1,937,1,6,1,"148ec2a",36,1
"3833",0,1,209,1,3,1,"148ec2a",37,1
"3933",1,1,606,2,2,1,"148ec2a",38,1
"4033",1,1,389,5,5,1,"148ec2a",39,1
"4145",0,1,288,5,1,1,"148ec2a",40,1
"4235",1,1,443,3,3,1,"148ec2a",41,1
"4333",1,1,537,1,1,1,"148ec2a",42,1
"4432",1,1,453,6,6,1,"148ec2a",43,1
"4532",1,1,425,4,4,1,"148ec2a",44,1
"4632",0,1,283,1,5,1,"148ec2a",45,1
"4732",0,1,332,4,1,1,"148ec2a",46,1
"4832",1,1,672,6,6,1,"148ec2a",47,1
"4932",1,1,307,4,4,1,"148ec2a",48,1
"5032",1,1,543,3,3,1,"148ec2a",49,1
"5144",0,1,26,1,6,1,"148ec2a",50,1
"5234",1,0,548,1,3,1,"148ec2a",51,1
"5332",0,0,383,2,2,1,"148ec2a",52,1
"5432",1,0,422,1,2,1,"148ec2a",53,1
"5532",1,1,644,5,5,1,"148ec2a",54,1
"5632",1,1,366,1,1,1,"148ec2a",55,1
"5732",1,1,299,4,4,1,"148ec2a",56,1
"5832",1,0,185,1,2,1,"148ec2a",57,1
"5932",1,0,500,1,3,1,"148ec2a",58,1
"6032",0,1,377,1,4,1,"148ec2a",59,1
"6144",0,1,349,5,1,1,"148ec2a",60,1
"6234",1,1,346,1,1,1,"148ec2a",61,1
"6332",0,1,369,6,1,1,"148ec2a",62,1
"6432",1,1,470,6,6,1,"148ec2a",63,1
"6532",1,1,393,2,2,1,"148ec2a",64,1
"6632",1,1,393,5,5,1,"148ec2a",65,1
"6732",1,1,326,3,3,1,"148ec2a",66,1
"6832",0,1,579,1,4,1,"148ec2a",67,1
"6932",0,1,546,1,5,1,"148ec2a",68,1
"7032",1,1,273,1,1,1,"148ec2a",69,1
"7136",1,1,659,5,5,1,"148ec2a",70,1
"7233",1,1,246,4,4,1,"148ec2a",71,1
"7332",1,0,351,3,1,1,"148ec2a",72,1
"7432",1,0,492,1,2,1,"148ec2a",73,1
"7532",0,1,599,6,1,1,"148ec2a",74,1
"7632",1,1,400,6,6,1,"148ec2a",75,1
"7732",0,0,982,2,2,1,"148ec2a",76,1
"7832",1,1,407,3,3,1,"148ec2a",77,1
"2146",1,0,1452,1,2,2,"163ec1e",1,1
"3146",1,1,644,4,4,2,"163ec1e",2,1
"4146",0,1,572,6,1,2,"163ec1e",3,1
"5145",0,0,564,2,2,2,"163ec1e",4,1
"6145",1,1,331,6,6,2,"163ec1e",5,1
"7109",1,1,347,3,3,2,"163ec1e",6,1
"834",1,0,404,5,1,2,"163ec1e",7,1
"934",0,1,389,4,1,2,"163ec1e",8,1
"1034",1,0,588,3,1,2,"163ec1e",9,1
"1134",0,0,285,5,5,2,"163ec1e",10,1
"1234",1,1,477,1,1,2,"163ec1e",11,1
"1334",0,0,949,3,3,2,"163ec1e",12,1
"1434",1,1,309,6,6,2,"163ec1e",13,1
"1534",1,1,351,2,2,2,"163ec1e",14,1
"1634",1,0,341,1,5,2,"163ec1e",15,1
"1734",1,0,894,4,1,2,"163ec1e",16,1
"1834",0,0,310,1,1,2,"163ec1e",17,1
"1934",0,1,286,6,1,2,"163ec1e",18,1
"2034",1,1,1047,4,4,2,"163ec1e",19,1
"2147",1,0,269,1,2,2,"163ec1e",20,1
"2236",0,1,335,1,3,2,"163ec1e",21,1
"2334",1,1,502,5,5,2,"163ec1e",22,1
"2434",0,1,310,1,5,2,"163ec1e",23,1
"2534",0,0,719,6,6,2,"163ec1e",24,1
"2634",1,1,336,2,2,2,"163ec1e",25,1
"2734",1,1,351,3,3,2,"163ec1e",26,1
"2834",0,1,280,4,1,2,"163ec1e",27,1
"2934",1,1,223,1,1,2,"163ec1e",28,1
"3034",0,1,360,1,6,2,"163ec1e",29,1
"3147",0,1,281,3,1,2,"163ec1e",30,1
"3236",1,0,265,1,2,2,"163ec1e",31,1
"3334",1,1,280,4,4,2,"163ec1e",32,1
"3434",1,1,185,5,5,2,"163ec1e",33,1
"3534",0,1,265,5,1,2,"163ec1e",34,1
"3634",0,1,274,6,1,2,"163ec1e",35,1
"3734",1,1,337,6,6,2,"163ec1e",36,1
"3834",1,0,282,2,1,2,"163ec1e",37,1
"3934",0,1,274,4,1,2,"163ec1e",38,1
"4034",1,1,176,1,1,2,"163ec1e",39,1
"4147",1,1,168,2,2,2,"163ec1e",40,1
"4236",1,1,265,3,3,2,"163ec1e",41,1
"4334",1,1,177,4,4,2,"163ec1e",42,1
"4433",1,1,241,5,5,2,"163ec1e",43,1
"4533",0,1,290,1,3,2,"163ec1e",44,1
"4633",0,1,1331,5,1,2,"163ec1e",45,1
"4733",1,1,1137,6,6,2,"163ec1e",46,1
"4833",1,1,330,3,3,2,"163ec1e",47,1
"4933",1,1,513,2,2,2,"163ec1e",48,1
"5033",0,1,299,1,3,2,"163ec1e",49,1
"5146",0,1,354,6,1,2,"163ec1e",50,1
"5235",1,1,122,4,4,2,"163ec1e",51,1
"5333",0,1,418,1,2,2,"163ec1e",52,1
"5433",1,1,297,5,5,2,"163ec1e",53,1
"5533",0,1,267,1,4,2,"163ec1e",54,1
"5633",1,1,107,1,1,2,"163ec1e",55,1
"5733",1,1,259,4,4,2,"163ec1e",56,1
"5833",1,1,258,5,5,2,"163ec1e",57,1
"5933",1,0,274,1,2,2,"163ec1e",58,1
"6033",1,1,154,2,2,2,"163ec1e",59,1
"6146",1,1,116,1,1,2,"163ec1e",60,1
"6235",0,1,356,6,1,2,"163ec1e",61,1
"6333",0,1,307,5,1,2,"163ec1e",62,1
"6433",1,1,276,6,6,2,"163ec1e",63,1
"6533",1,1,244,3,3,2,"163ec1e",64,1
"6633",0,1,380,3,1,2,"163ec1e",65,1
"6733",0,1,60,4,1,2,"163ec1e",66,1
"6833",1,0,316,1,2,2,"163ec1e",67,1
"6933",0,1,554,1,5,2,"163ec1e",68,1
"7033",1,1,164,1,1,2,"163ec1e",69,1
"7137",0,1,283,6,1,2,"163ec1e",70,1
"7234",0,0,315,3,3,2,"163ec1e",71,1
"7333",0,1,284,3,1,2,"163ec1e",72,1
"7433",1,1,421,4,4,2,"163ec1e",73,1
"7533",1,1,356,2,2,2,"163ec1e",74,1
"7633",1,1,659,5,5,2,"163ec1e",75,1
"7733",0,1,286,1,4,2,"163ec1e",76,1
"7833",1,1,261,6,6,2,"163ec1e",77,1
"2148",1,1,1892,2,2,2,"1ff0780",1,1
"3148",1,0,618,1,4,2,"1ff0780",2,1
"4148",0,1,547,1,6,2,"1ff0780",3,1
"5147",0,0,499,3,3,2,"1ff0780",4,1
"6147",1,0,343,1,3,2,"1ff0780",5,1
"7138",0,1,469,5,1,2,"1ff0780",6,1
"835",1,0,647,2,1,2,"1ff0780",7,1
"935",1,1,387,5,5,2,"1ff0780",8,1
"1035",1,1,455,1,1,2,"1ff0780",9,1
"1135",1,1,351,4,4,2,"1ff0780",10,1
"1235",1,1,328,6,6,2,"1ff0780",11,1
"1335",1,1,495,4,4,2,"1ff0780",12,1
"1435",1,1,342,1,1,2,"1ff0780",13,1
"1535",0,0,444,6,6,2,"1ff0780",14,1
"1635",1,0,344,2,1,2,"1ff0780",15,1
"1735",1,1,350,5,5,2,"1ff0780",16,1
"1835",1,1,614,3,3,2,"1ff0780",17,1
"1935",1,1,333,2,2,2,"1ff0780",18,1
"2035",0,1,459,6,1,2,"1ff0780",19,1
"2149",0,1,373,1,4,2,"1ff0780",20,1
"2237",0,1,358,1,3,2,"1ff0780",21,1
"2335",0,1,552,5,1,2,"1ff0780",22,1
"2435",1,1,307,2,2,2,"1ff0780",23,1
"2535",1,1,340,3,3,2,"1ff0780",24,1
"2635",0,1,425,1,6,2,"1ff0780",25,1
"2735",0,1,428,1,3,2,"1ff0780",26,1
"2835",1,0,419,1,4,2,"1ff0780",27,1
"2935",1,0,374,2,1,2,"1ff0780",28,1
"3035",1,1,320,1,1,2,"1ff0780",29,1
"3149",0,0,351,4,4,2,"1ff0780",30,1
"3237",0,1,280,1,5,2,"1ff0780",31,1
"3335",1,1,452,6,6,2,"1ff0780",32,1
"3435",1,1,320,5,5,2,"1ff0780",33,1
"3535",0,1,360,1,4,2,"1ff0780",34,1
"3635",1,1,533,4,4,2,"1ff0780",35,1
"3735",0,1,326,1,2,2,"1ff0780",36,1
"3835",0,1,322,1,5,2,"1ff0780",37,1
"3935",0,1,324,1,6,2,"1ff0780",38,1
"4035",1,1,301,5,5,2,"1ff0780",39,1
"4149",1,1,319,1,1,2,"1ff0780",40,1
"4237",0,1,324,1,3,2,"1ff0780",41,1
"4335",1,1,739,2,2,2,"1ff0780",42,1
"4434",1,1,359,6,6,2,"1ff0780",43,1
"4534",1,1,420,3,3,2,"1ff0780",44,1
"4634",1,1,344,5,5,2,"1ff0780",45,1
"4734",1,1,558,4,4,2,"1ff0780",46,1
"4834",1,1,362,2,2,2,"1ff0780",47,1
"4934",1,1,385,1,1,2,"1ff0780",48,1
"5034",1,1,364,6,6,2,"1ff0780",49,1
"5148",0,1,325,1,2,2,"1ff0780",50,1
"5236",0,1,375,5,1,2,"1ff0780",51,1
"5334",0,1,871,1,4,2,"1ff0780",52,1
"5434",0,1,355,6,1,2,"1ff0780",53,1
"5534",0,0,354,3,3,2,"1ff0780",54,1
"5634",1,0,903,1,3,2,"1ff0780",55,1
"5734",-1,-1,0,5,5,2,"1ff0780",56,1
"5834",1,0,361,2,1,2,"1ff0780",57,1
"5934",0,0,317,2,2,2,"1ff0780",58,1
"6034",0,1,530,1,4,2,"1ff0780",59,1
"6148",1,1,327,1,1,2,"1ff0780",60,1
"6236",0,1,349,1,6,2,"1ff0780",61,1
"6334",0,1,349,1,5,2,"1ff0780",62,1
"6434",1,1,318,3,3,2,"1ff0780",63,1
"6534",1,1,295,6,6,2,"1ff0780",64,1
"6634",1,1,311,4,4,2,"1ff0780",65,1
"6734",1,0,618,3,1,2,"1ff0780",66,1
"6834",1,1,364,3,3,2,"1ff0780",67,1
"6934",1,1,425,5,5,2,"1ff0780",68,1
"7034",0,1,427,2,1,2,"1ff0780",69,1
"7139",1,1,324,1,1,2,"1ff0780",70,1
"7235",1,1,298,2,2,2,"1ff0780",71,1
"7334",0,1,340,6,1,2,"1ff0780",72,1
"7434",0,1,519,1,4,2,"1ff0780",73,1
"7534",0,0,523,4,4,2,"1ff0780",74,1
"7634",1,1,433,6,6,2,"1ff0780",75,1
"7734",0,1,334,5,1,2,"1ff0780",76,1
"7834",1,0,298,1,3,2,"1ff0780",77,1
"2150",0,1,277,1,6,1,"1af353e",1,1
"3150",1,0,228,1,3,1,"1af353e",2,1
"4150",1,1,153,2,2,1,"1af353e",3,1
"5149",0,0,252,1,1,1,"1af353e",4,1
"6149",0,0,270,4,4,1,"1af353e",5,1
"7140",0,1,202,1,2,1,"1af353e",6,1
"836",0,1,202,1,5,1,"1af353e",7,1
"936",1,1,248,3,3,1,"1af353e",8,1
"1036",0,0,52,5,5,1,"1af353e",9,1
"1136",0,1,323,4,1,1,"1af353e",10,1
"1236",0,0,41,6,6,1,"1af353e",11,1
"1336",0,0,5,3,3,1,"1af353e",12,1
"1436",0,1,553,1,3,1,"1af353e",13,1
"1536",0,1,240,6,1,1,"1af353e",14,1
"1636",0,0,65,5,5,1,"1af353e",15,1
"1736",0,0,243,1,1,1,"1af353e",16,1
"1836",0,1,47,2,1,1,"1af353e",17,1
"1936",1,0,230,5,1,1,"1af353e",18,1
"2036",1,1,218,4,4,1,"1af353e",19,1
"2151",0,0,228,2,2,1,"1af353e",20,1
"2238",1,1,432,6,6,1,"1af353e",21,1
"2336",0,1,150,4,1,1,"1af353e",22,1
"2436",0,0,241,3,3,1,"1af353e",23,1
"2536",0,1,188,6,1,1,"1af353e",24,1
"2636",0,1,240,4,1,1,"1af353e",25,1
"2736",1,1,293,1,1,1,"1af353e",26,1
"2836",1,0,280,1,2,1,"1af353e",27,1
"2936",0,0,156,2,2,1,"1af353e",28,1
"3036",1,1,110,6,6,1,"1af353e",29,1
"3151",0,0,230,4,4,1,"1af353e",30,1
"3238",1,0,261,3,1,1,"1af353e",31,1
"3336",1,1,86,5,5,1,"1af353e",32,1
"3436",0,1,234,1,5,1,"1af353e",33,1
"3536",0,1,106,5,1,1,"1af353e",34,1
"3636",0,0,83,2,2,1,"1af353e",35,1
"3736",1,1,195,6,6,1,"1af353e",36,1
"3836",0,0,194,5,5,1,"1af353e",37,1
"3936",0,1,110,1,3,1,"1af353e",38,1
"4036",1,1,91,3,3,1,"1af353e",39,1
"4151",1,1,250,1,1,1,"1af353e",40,1
"4238",1,1,102,4,4,1,"1af353e",41,1
"4336",1,0,201,1,4,1,"1af353e",42,1
"4435",1,0,220,1,2,1,"1af353e",43,1
"4535",1,0,230,6,1,1,"1af353e",44,1
"4635",0,1,304,1,2,1,"1af353e",45,1
"4735",0,1,167,4,1,1,"1af353e",46,1
"4835",1,0,291,1,6,1,"1af353e",47,1
"4935",1,1,233,6,6,1,"1af353e",48,1
"5035",1,1,133,2,2,1,"1af353e",49,1
"5150",0,1,152,3,1,1,"1af353e",50,1
"5237",1,0,122,1,5,1,"1af353e",51,1
"5335",1,1,176,1,1,1,"1af353e",52,1
"5435",1,1,65,3,3,1,"1af353e",53,1
"5535",0,0,251,4,4,1,"1af353e",54,1
"5635",0,0,145,5,5,1,"1af353e",55,1
"5735",1,0,160,1,2,1,"1af353e",56,1
"5835",1,0,218,1,3,1,"1af353e",57,1
"5935",1,0,122,4,1,1,"1af353e",58,1
"6035",1,1,151,4,4,1,"1af353e",59,1
"6150",0,1,94,6,1,1,"1af353e",60,1
"6237",1,1,273,5,5,1,"1af353e",61,1
"6335",0,0,435,2,2,1,"1af353e",62,1
"6435",0,1,1003,1,5,1,"1af353e",63,1
"6535",1,1,451,6,6,1,"1af353e",64,1
"6635",0,0,201,3,3,1,"1af353e",65,1
"6735",0,0,194,1,1,1,"1af353e",66,1
"6835",0,1,34,1,3,1,"1af353e",67,1
"6935",0,0,320,3,3,1,"1af353e",68,1
"7035",0,0,211,6,6,1,"1af353e",69,1
"7141",0,1,45,1,4,1,"1af353e",70,1
