"","keys","accuracy","rt","Fimg","Simg","feature_index","subID","trialNum","run"
"2",1,0,570,4,1,1,"11b072c",1,1
"3",1,1,481,4,4,1,"11b072c",2,1
"4",1,1,380,6,6,1,"11b072c",3,1
"5",0,1,352,6,1,1,"11b072c",4,1
"6",1,0,575,5,1,1,"11b072c",5,1
"7",0,0,778,1,1,1,"11b072c",6,1
"8",1,1,575,5,5,1,"11b072c",7,1
"9",1,1,382,1,1,1,"11b072c",8,1
"10",1,0,522,4,1,1,"11b072c",9,1
"11",1,0,270,5,1,1,"11b072c",10,1
"12",1,1,303,5,5,1,"11b072c",11,1
"13",1,0,322,6,1,1,"11b072c",12,1
"14",0,0,502,4,4,1,"11b072c",13,1
"15",0,0,326,6,6,1,"11b072c",14,1
"16",1,1,327,4,4,1,"11b072c",15,1
"17",0,0,356,6,6,1,"11b072c",16,1
"18",0,0,302,5,5,1,"11b072c",17,1
"19",1,0,429,1,5,1,"11b072c",18,1
"20",0,0,293,1,1,1,"11b072c",19,1
"21",0,1,336,1,4,1,"11b072c",20,1
"22",0,1,313,6,1,1,"11b072c",21,1
"23",0,1,393,1,4,1,"11b072c",22,1
"24",0,0,638,4,4,1,"11b072c",23,1
"25",0,0,406,6,6,1,"11b072c",24,1
"26",0,0,282,1,1,1,"11b072c",25,1
"27",1,0,745,5,1,1,"11b072c",26,1
"28",0,1,293,6,1,1,"11b072c",27,1
"29",0,0,295,5,5,1,"11b072c",28,1
"30",1,1,533,1,1,1,"11b072c",29,1
"31",0,1,873,4,1,1,"11b072c",30,1
"32",0,1,443,6,1,1,"11b072c",31,1
"33",1,0,357,1,5,1,"11b072c",32,1
"34",0,0,269,6,6,1,"11b072c",33,1
"35",1,1,402,4,4,1,"11b072c",34,1
"36",1,1,429,5,5,1,"11b072c",35,1
"37",1,0,328,1,4,1,"11b072c",36,1
"38",1,1,437,5,5,1,"11b072c",37,1
"39",0,0,406,4,4,1,"11b072c",38,1
"40",0,0,294,6,6,1,"11b072c",39,1
"41",0,0,337,1,1,1,"11b072c",40,1
"42",0,1,612,5,1,1,"11b072c",41,1
"43",0,1,139,6,1,1,"11b072c",42,1
"44",1,0,466,1,4,1,"11b072c",43,1
"45",0,1,448,5,1,1,"11b072c",44,1
"46",1,1,377,1,1,1,"11b072c",45,1
"47",1,1,542,6,6,1,"11b072c",46,1
"48",0,1,434,6,1,1,"11b072c",47,1
"49",1,1,559,5,5,1,"11b072c",48,1
"50",1,1,382,4,4,1,"11b072c",49,1
"51",1,1,471,6,6,1,"11b072c",50,1
"52",1,1,455,5,5,1,"11b072c",51,1
"53",1,1,419,4,4,1,"11b072c",52,1
"54",0,1,362,4,1,1,"11b072c",53,1
"55",0,1,459,6,1,1,"11b072c",54,1
"56",1,1,520,1,1,1,"11b072c",55,1
"57",0,1,557,5,1,1,"11b072c",56,1
"58",1,1,393,6,6,1,"11b072c",57,1
"59",1,1,1207,4,4,1,"11b072c",58,1
"60",0,1,482,5,1,1,"11b072c",59,1
"61",1,1,354,1,1,1,"11b072c",60,1
"62",0,1,354,1,4,1,"11b072c",61,1
"63",1,1,954,5,5,1,"11b072c",62,1
"64",0,1,388,1,6,1,"11b072c",63,1
"65",1,1,421,6,6,1,"11b072c",64,1
"66",1,1,467,5,5,1,"11b072c",65,1
"67",0,1,348,6,1,1,"11b072c",66,1
"68",1,1,506,4,4,1,"11b072c",67,1
"69",1,1,603,1,1,1,"11b072c",68,1
"70",0,1,278,1,5,1,"11b072c",69,1
"71",1,0,323,4,1,1,"11b072c",70,1
"210",1,1,553,1,1,2,"ba23f83",1,1
"310",0,1,1629,1,5,2,"ba23f83",2,1
"410",1,1,563,6,6,2,"ba23f83",3,1
"510",0,1,363,4,1,2,"ba23f83",4,1
"610",1,1,464,4,4,2,"ba23f83",5,1
"72",1,1,374,5,5,2,"ba23f83",6,1
"81",0,1,905,6,1,2,"ba23f83",7,1
"91",1,1,361,6,6,2,"ba23f83",8,1
"101",1,1,801,1,1,2,"ba23f83",9,1
"111",0,1,384,4,1,2,"ba23f83",10,1
"121",1,1,382,4,4,2,"ba23f83",11,1
"131",1,1,317,5,5,2,"ba23f83",12,1
"141",0,1,325,5,1,2,"ba23f83",13,1
"151",0,1,405,6,1,2,"ba23f83",14,1
"161",1,1,336,5,5,2,"ba23f83",15,1
"171",1,1,722,6,6,2,"ba23f83",16,1
"181",1,1,271,1,1,2,"ba23f83",17,1
"191",0,1,867,5,1,2,"ba23f83",18,1
"201",0,1,426,1,6,2,"ba23f83",19,1
"211",1,1,412,4,4,2,"ba23f83",20,1
"221",0,1,413,4,1,2,"ba23f83",21,1
"231",1,1,477,5,5,2,"ba23f83",22,1
"241",0,1,415,1,6,2,"ba23f83",23,1
"251",0,1,634,5,1,2,"ba23f83",24,1
"261",1,1,380,4,4,2,"ba23f83",25,1
"271",0,1,354,1,4,2,"ba23f83",26,1
"281",1,1,559,6,6,2,"ba23f83",27,1
"291",1,1,311,1,1,2,"ba23f83",28,1
"301",0,1,322,1,5,2,"ba23f83",29,1
"311",1,1,555,5,5,2,"ba23f83",30,1
"321",0,1,355,6,1,2,"ba23f83",31,1
"331",1,1,919,6,6,2,"ba23f83",32,1
"341",0,1,368,4,1,2,"ba23f83",33,1
"351",1,1,422,1,1,2,"ba23f83",34,1
"361",1,1,316,4,4,2,"ba23f83",35,1
"371",1,1,344,6,6,2,"ba23f83",36,1
"381",1,1,408,5,5,2,"ba23f83",37,1
"391",0,1,403,1,5,2,"ba23f83",38,1
"401",0,1,416,6,1,2,"ba23f83",39,1
"411",1,1,360,4,4,2,"ba23f83",40,1
"421",0,1,408,1,4,2,"ba23f83",41,1
"431",1,1,517,1,1,2,"ba23f83",42,1
"441",1,1,1133,4,4,2,"ba23f83",43,1
"451",1,1,254,6,6,2,"ba23f83",44,1
"461",0,1,361,1,5,2,"ba23f83",45,1
"471",0,1,359,6,1,2,"ba23f83",46,1
"481",1,1,440,5,5,2,"ba23f83",47,1
"491",1,1,502,1,1,2,"ba23f83",48,1
"501",0,1,418,1,4,2,"ba23f83",49,1
"511",1,1,574,6,6,2,"ba23f83",50,1
"521",1,1,256,4,4,2,"ba23f83",51,1
"531",0,1,339,1,4,2,"ba23f83",52,1
"541",1,1,1624,1,1,2,"ba23f83",53,1
"551",0,1,323,1,6,2,"ba23f83",54,1
"561",0,1,392,1,5,2,"ba23f83",55,1
"571",1,1,452,5,5,2,"ba23f83",56,1
"581",0,1,370,4,1,2,"ba23f83",57,1
"591",1,1,349,5,5,2,"ba23f83",58,1
"601",1,1,326,4,4,2,"ba23f83",59,1
"611",1,1,502,1,1,2,"ba23f83",60,1
"621",0,1,501,6,1,2,"ba23f83",61,1
"631",1,1,1271,6,6,2,"ba23f83",62,1
"641",0,1,1233,1,5,2,"ba23f83",63,1
"651",1,1,411,6,6,2,"ba23f83",64,1
"661",1,1,501,1,1,2,"ba23f83",65,1
"671",0,1,426,6,1,2,"ba23f83",66,1
"681",1,1,315,4,4,2,"ba23f83",67,1
"691",1,1,341,5,5,2,"ba23f83",68,1
"701",0,1,363,1,4,2,"ba23f83",69,1
"711",0,1,339,1,5,2,"ba23f83",70,1
"212",1,1,1004,5,5,1,"1c07056",1,1
"312",0,0,477,4,4,1,"1c07056",2,1
"412",1,0,437,4,1,1,"1c07056",3,1
"512",1,0,343,6,1,1,"1c07056",4,1
"612",1,1,367,6,6,1,"1c07056",5,1
"73",0,1,337,5,1,1,"1c07056",6,1
"82",1,1,455,1,1,1,"1c07056",7,1
"92",1,1,543,4,4,1,"1c07056",8,1
"102",0,1,311,5,1,1,"1c07056",9,1
"112",1,1,333,6,6,1,"1c07056",10,1
"122",0,1,332,6,1,1,"1c07056",11,1
"132",1,1,351,5,5,1,"1c07056",12,1
"142",0,1,325,1,4,1,"1c07056",13,1
"152",0,0,162,1,1,1,"1c07056",14,1
"162",1,1,301,4,4,1,"1c07056",15,1
"172",1,1,346,5,5,1,"1c07056",16,1
"182",1,1,332,6,6,1,"1c07056",17,1
"192",0,1,339,1,6,1,"1c07056",18,1
"202",1,1,304,1,1,1,"1c07056",19,1
"213",0,1,342,1,5,1,"1c07056",20,1
"222",0,1,798,4,1,1,"1c07056",21,1
"232",0,1,341,4,1,1,"1c07056",22,1
"242",1,1,280,5,5,1,"1c07056",23,1
"252",0,1,369,1,5,1,"1c07056",24,1
"262",1,1,266,6,6,1,"1c07056",25,1
"272",1,1,379,1,1,1,"1c07056",26,1
"282",0,1,472,1,6,1,"1c07056",27,1
"292",1,1,545,4,4,1,"1c07056",28,1
"302",1,1,310,4,4,1,"1c07056",29,1
"313",0,1,364,1,4,1,"1c07056",30,1
"322",1,1,296,5,5,1,"1c07056",31,1
"332",0,1,336,6,1,1,"1c07056",32,1
"342",0,1,308,1,5,1,"1c07056",33,1
"352",1,1,573,6,6,1,"1c07056",34,1
"362",1,1,320,1,1,1,"1c07056",35,1
"372",1,1,450,5,5,1,"1c07056",36,1
"382",1,1,322,1,1,1,"1c07056",37,1
"392",0,1,310,1,5,1,"1c07056",38,1
"402",0,1,344,1,6,1,"1c07056",39,1
"413",0,1,439,4,1,1,"1c07056",40,1
"422",1,1,321,4,4,1,"1c07056",41,1
"432",1,1,390,6,6,1,"1c07056",42,1
"442",1,1,321,1,1,1,"1c07056",43,1
"452",1,1,296,4,4,1,"1c07056",44,1
"462",0,1,374,5,1,1,"1c07056",45,1
"472",1,1,316,6,6,1,"1c07056",46,1
"482",1,1,279,5,5,1,"1c07056",47,1
"492",0,1,373,1,4,1,"1c07056",48,1
"502",0,1,324,1,6,1,"1c07056",49,1
"513",1,1,303,6,6,1,"1c07056",50,1
"522",0,1,344,5,1,1,"1c07056",51,1
"532",0,1,433,6,1,1,"1c07056",52,1
"542",1,1,375,5,5,1,"1c07056",53,1
"552",1,1,327,4,4,1,"1c07056",54,1
"562",0,1,438,4,1,1,"1c07056",55,1
"572",1,1,313,1,1,1,"1c07056",56,1
"582",0,1,63,1,4,1,"1c07056",57,1
"592",1,1,339,5,5,1,"1c07056",58,1
"602",0,1,299,5,1,1,"1c07056",59,1
"613",1,1,297,1,1,1,"1c07056",60,1
"622",0,1,277,6,1,1,"1c07056",61,1
"632",1,1,443,6,6,1,"1c07056",62,1
"642",1,1,765,4,4,1,"1c07056",63,1
"652",1,1,308,4,4,1,"1c07056",64,1
"662",0,1,388,1,5,1,"1c07056",65,1
"672",1,1,287,6,6,1,"1c07056",66,1
"682",1,1,354,1,1,1,"1c07056",67,1
"692",0,1,302,4,1,1,"1c07056",68,1
"702",1,1,440,5,5,1,"1c07056",69,1
"712",0,1,747,1,6,1,"1c07056",70,1
"214",1,1,705,1,1,1,"122bd74",1,1
"314",0,1,358,1,6,1,"122bd74",2,1
"414",0,1,241,4,1,1,"122bd74",3,1
"514",1,1,230,5,5,1,"122bd74",4,1
"614",0,1,303,5,1,1,"122bd74",5,1
"74",1,1,126,4,4,1,"122bd74",6,1
"83",1,1,402,6,6,1,"122bd74",7,1
"93",1,1,280,4,4,1,"122bd74",8,1
"103",1,1,285,1,1,1,"122bd74",9,1
"113",0,1,256,6,1,1,"122bd74",10,1
"123",1,1,294,6,6,1,"122bd74",11,1
"133",0,1,169,5,1,1,"122bd74",12,1
"143",0,1,319,1,4,1,"122bd74",13,1
"153",1,1,226,5,5,1,"122bd74",14,1
"163",1,1,263,6,6,1,"122bd74",15,1
"173",1,1,297,5,5,1,"122bd74",16,1
"183",0,1,223,1,4,1,"122bd74",17,1
"193",0,1,270,6,1,1,"122bd74",18,1
"203",1,1,256,1,1,1,"122bd74",19,1
"215",0,1,280,5,1,1,"122bd74",20,1
"223",1,1,463,4,4,1,"122bd74",21,1
"233",0,1,417,5,1,1,"122bd74",22,1
"243",1,1,271,1,1,1,"122bd74",23,1
"253",0,1,457,4,1,1,"122bd74",24,1
"263",1,1,431,5,5,1,"122bd74",25,1
"273",1,1,276,6,6,1,"122bd74",26,1
"283",0,1,281,6,1,1,"122bd74",27,1
"293",1,1,229,4,4,1,"122bd74",28,1
"303",1,1,212,4,4,1,"122bd74",29,1
"315",0,1,281,1,5,1,"122bd74",30,1
"323",1,1,237,5,5,1,"122bd74",31,1
"333",0,1,197,1,4,1,"122bd74",32,1
"343",1,1,236,6,6,1,"122bd74",33,1
"353",0,1,259,6,1,1,"122bd74",34,1
"363",1,1,185,1,1,1,"122bd74",35,1
"373",1,1,282,5,5,1,"122bd74",36,1
"383",1,1,398,6,6,1,"122bd74",37,1
"393",0,1,260,1,4,1,"122bd74",38,1
"403",0,1,106,1,6,1,"122bd74",39,1
"415",0,1,159,5,1,1,"122bd74",40,1
"423",1,1,117,4,4,1,"122bd74",41,1
"433",1,1,288,1,1,1,"122bd74",42,1
"443",1,1,254,4,4,1,"122bd74",43,1
"453",1,1,474,6,6,1,"122bd74",44,1
"463",0,1,214,1,6,1,"122bd74",45,1
"473",0,1,89,1,5,1,"122bd74",46,1
"483",1,1,248,1,1,1,"122bd74",47,1
"493",0,1,155,1,4,1,"122bd74",48,1
"503",1,1,170,5,5,1,"122bd74",49,1
"515",1,1,121,4,4,1,"122bd74",50,1
"523",1,1,197,1,1,1,"122bd74",51,1
"533",0,1,178,6,1,1,"122bd74",52,1
"543",1,1,401,5,5,1,"122bd74",53,1
"553",0,1,227,5,1,1,"122bd74",54,1
"563",1,1,113,6,6,1,"122bd74",55,1
"573",0,1,172,1,4,1,"122bd74",56,1
"583",0,1,211,1,6,1,"122bd74",57,1
"593",1,1,90,5,5,1,"122bd74",58,1
"603",0,1,192,4,1,1,"122bd74",59,1
"615",1,1,122,6,6,1,"122bd74",60,1
"623",1,1,247,4,4,1,"122bd74",61,1
"633",0,1,99,5,1,1,"122bd74",62,1
"643",1,1,246,1,1,1,"122bd74",63,1
"653",0,1,288,4,1,1,"122bd74",64,1
"663",1,1,557,6,6,1,"122bd74",65,1
"673",1,1,85,4,4,1,"122bd74",66,1
"683",0,1,322,6,1,1,"122bd74",67,1
"693",0,1,292,5,1,1,"122bd74",68,1
"703",1,1,323,1,1,1,"122bd74",69,1
"713",1,1,263,5,5,1,"122bd74",70,1
"216",1,1,1955,1,1,2,"140306f",1,1
"316",1,1,1122,6,6,2,"140306f",2,1
"416",1,0,674,4,1,2,"140306f",3,1
"516",1,1,406,4,4,2,"140306f",4,1
"616",1,1,388,5,5,2,"140306f",5,1
"75",0,1,874,1,5,2,"140306f",6,1
"84",1,0,449,6,1,2,"140306f",7,1
"94",1,1,492,5,5,2,"140306f",8,1
"104",1,1,1078,4,4,2,"140306f",9,1
"114",0,1,306,4,1,2,"140306f",10,1
"124",1,1,238,1,1,2,"140306f",11,1
"134",0,1,302,1,6,2,"140306f",12,1
"144",1,1,1008,6,6,2,"140306f",13,1
"154",1,0,569,5,1,2,"140306f",14,1
"164",1,1,1296,6,6,2,"140306f",15,1
"174",0,1,255,1,5,2,"140306f",16,1
"184",1,1,374,1,1,2,"140306f",17,1
"194",0,1,951,4,1,2,"140306f",18,1
"204",1,1,1133,5,5,2,"140306f",19,1
"217",0,1,1055,1,6,2,"140306f",20,1
"224",1,1,554,4,4,2,"140306f",21,1
"234",1,1,1081,1,1,2,"140306f",22,1
"244",1,1,878,6,6,2,"140306f",23,1
"254",1,1,757,5,5,2,"140306f",24,1
"264",0,1,432,5,1,2,"140306f",25,1
"274",0,1,1700,1,4,2,"140306f",26,1
"284",0,1,335,1,6,2,"140306f",27,1
"294",1,1,382,4,4,2,"140306f",28,1
"304",1,1,361,4,4,2,"140306f",29,1
"317",0,1,1067,1,5,2,"140306f",30,1
"324",1,1,840,6,6,2,"140306f",31,1
"334",0,1,1842,6,1,2,"140306f",32,1
"344",-1,0,1636,1,4,2,"140306f",33,1
"354",1,1,389,1,1,2,"140306f",34,1
"364",1,1,1277,5,5,2,"140306f",35,1
"374",0,1,978,1,4,2,"140306f",36,1
"384",1,1,411,4,4,2,"140306f",37,1
"394",1,1,872,1,1,2,"140306f",38,1
"404",0,1,778,5,1,2,"140306f",39,1
"417",0,1,1152,1,6,2,"140306f",40,1
"424",1,1,293,6,6,2,"140306f",41,1
"434",1,1,1326,5,5,2,"140306f",42,1
"444",1,1,339,5,5,2,"140306f",43,1
"454",0,1,725,1,4,2,"140306f",44,1
"464",1,1,531,4,4,2,"140306f",45,1
"474",0,1,397,1,6,2,"140306f",46,1
"484",0,1,458,1,5,2,"140306f",47,1
"494",1,1,885,1,1,2,"140306f",48,1
"504",1,1,293,6,6,2,"140306f",49,1
"517",0,1,704,4,1,2,"140306f",50,1
"524",1,1,257,6,6,2,"140306f",51,1
"534",1,0,273,6,1,2,"140306f",52,1
"544",1,1,675,5,5,2,"140306f",53,1
"554",1,1,257,1,1,2,"140306f",54,1
"564",0,1,244,5,1,2,"140306f",55,1
"574",1,1,480,4,4,2,"140306f",56,1
"584",0,1,917,1,4,2,"140306f",57,1
"594",0,1,887,1,5,2,"140306f",58,1
"604",1,1,240,1,1,2,"140306f",59,1
"617",0,0,173,4,4,2,"140306f",60,1
"624",1,0,308,6,1,2,"140306f",61,1
"634",1,1,273,6,6,2,"140306f",62,1
"644",0,0,302,5,5,2,"140306f",63,1
"654",0,0,393,5,5,2,"140306f",64,1
"664",1,1,206,4,4,2,"140306f",65,1
"674",1,1,239,6,6,2,"140306f",66,1
"684",0,1,98,5,1,2,"140306f",67,1
"694",0,1,620,1,4,2,"140306f",68,1
"704",1,1,254,1,1,2,"140306f",69,1
"714",0,1,1014,1,6,2,"140306f",70,1
"218",1,0,774,5,1,1,"12454bc",1,1
"318",1,1,534,4,4,1,"12454bc",2,1
"418",1,1,852,5,5,1,"12454bc",3,1
"518",0,0,465,6,6,1,"12454bc",4,1
"618",1,0,525,6,1,1,"12454bc",5,1
"76",0,0,1323,1,1,1,"12454bc",6,1
"85",1,0,611,1,4,1,"12454bc",7,1
"95",0,0,642,1,1,1,"12454bc",8,1
"105",0,1,521,6,1,1,"12454bc",9,1
"115",1,1,735,5,5,1,"12454bc",10,1
"125",0,1,602,4,1,1,"12454bc",11,1
"135",1,1,707,4,4,1,"12454bc",12,1
"145",1,1,753,6,6,1,"12454bc",13,1
"155",0,1,648,5,1,1,"12454bc",14,1
"165",0,1,747,1,4,1,"12454bc",15,1
"175",1,1,618,6,6,1,"12454bc",16,1
"185",1,1,611,5,5,1,"12454bc",17,1
"195",1,1,622,4,4,1,"12454bc",18,1
"205",1,1,1222,1,1,1,"12454bc",19,1
"219",0,1,1329,6,1,1,"12454bc",20,1
"225",0,1,638,1,5,1,"12454bc",21,1
"235",0,1,686,6,1,1,"12454bc",22,1
"245",0,1,514,4,1,1,"12454bc",23,1
"255",1,1,918,4,4,1,"12454bc",24,1
"265",0,1,476,1,5,1,"12454bc",25,1
"275",1,1,622,6,6,1,"12454bc",26,1
"285",0,0,1152,1,1,1,"12454bc",27,1
"295",1,1,1479,5,5,1,"12454bc",28,1
"305",0,1,1820,1,6,1,"12454bc",29,1
"319",1,1,1237,5,5,1,"12454bc",30,1
"325",1,1,1303,4,4,1,"12454bc",31,1
"335",1,1,936,6,6,1,"12454bc",32,1
"345",0,1,1125,5,1,1,"12454bc",33,1
"355",1,1,636,1,1,1,"12454bc",34,1
"365",0,1,1357,1,4,1,"12454bc",35,1
"375",1,1,536,4,4,1,"12454bc",36,1
"385",1,1,1004,1,1,1,"12454bc",37,1
"395",1,1,668,5,5,1,"12454bc",38,1
"405",0,1,727,1,5,1,"12454bc",39,1
"419",0,1,614,4,1,1,"12454bc",40,1
"425",1,1,746,6,6,1,"12454bc",41,1
"435",0,1,468,1,6,1,"12454bc",42,1
"445",0,1,660,4,1,1,"12454bc",43,1
"455",1,1,509,4,4,1,"12454bc",44,1
"465",0,1,547,6,1,1,"12454bc",45,1
"475",0,1,525,5,1,1,"12454bc",46,1
"485",1,1,584,6,6,1,"12454bc",47,1
"495",1,1,1104,1,1,1,"12454bc",48,1
"505",1,1,533,5,5,1,"12454bc",49,1
"519",1,1,469,1,1,1,"12454bc",50,1
"525",0,1,402,6,1,1,"12454bc",51,1
"535",1,1,512,6,6,1,"12454bc",52,1
"545",0,1,295,5,1,1,"12454bc",53,1
"555",1,1,542,4,4,1,"12454bc",54,1
"565",0,1,542,1,4,1,"12454bc",55,1
"575",1,1,522,5,5,1,"12454bc",56,1
"585",0,1,706,4,1,1,"12454bc",57,1
"595",0,1,568,6,1,1,"12454bc",58,1
"605",0,1,387,1,5,1,"12454bc",59,1
"619",1,1,479,4,4,1,"12454bc",60,1
"625",1,1,454,1,1,1,"12454bc",61,1
"635",1,1,400,5,5,1,"12454bc",62,1
"645",1,1,1760,6,6,1,"12454bc",63,1
"655",1,1,1155,4,4,1,"12454bc",64,1
"665",0,1,404,4,1,1,"12454bc",65,1
"675",1,1,16,1,1,1,"12454bc",66,1
"685",0,1,302,6,1,1,"12454bc",67,1
"695",1,1,1046,5,5,1,"12454bc",68,1
"705",1,1,499,6,6,1,"12454bc",69,1
"715",1,0,484,1,5,1,"12454bc",70,1
"220",1,1,827,6,6,2,"1565b1c",1,1
"320",1,0,453,4,1,2,"1565b1c",2,1
"420",1,1,393,5,5,2,"1565b1c",3,1
"520",0,0,454,1,1,2,"1565b1c",4,1
"620",1,1,370,4,4,2,"1565b1c",5,1
"77",0,1,344,1,6,2,"1565b1c",6,1
"86",1,0,296,5,1,2,"1565b1c",7,1
"96",1,1,363,6,6,2,"1565b1c",8,1
"106",0,0,359,1,1,2,"1565b1c",9,1
"116",1,1,289,4,4,2,"1565b1c",10,1
"126",1,0,361,1,4,2,"1565b1c",11,1
"136",1,0,332,1,6,2,"1565b1c",12,1
"146",1,0,265,5,1,2,"1565b1c",13,1
"156",0,0,315,5,5,2,"1565b1c",14,1
"166",0,1,293,1,6,2,"1565b1c",15,1
"176",0,0,304,1,1,2,"1565b1c",16,1
"186",1,1,276,4,4,2,"1565b1c",17,1
"196",0,0,264,5,5,2,"1565b1c",18,1
"206",0,1,294,4,1,2,"1565b1c",19,1
"2110",1,0,468,5,1,2,"1565b1c",20,1
"226",1,1,315,6,6,2,"1565b1c",21,1
"236",0,0,1987,4,4,2,"1565b1c",22,1
"246",0,1,314,1,6,2,"1565b1c",23,1
"256",1,1,291,6,6,2,"1565b1c",24,1
"266",0,0,303,1,1,2,"1565b1c",25,1
"276",0,1,300,1,5,2,"1565b1c",26,1
"286",1,1,319,5,5,2,"1565b1c",27,1
"296",0,1,309,1,4,2,"1565b1c",28,1
"306",1,1,328,5,5,2,"1565b1c",29,1
"3110",1,1,354,6,6,2,"1565b1c",30,1
"326",1,0,368,6,1,2,"1565b1c",31,1
"336",0,0,331,1,1,2,"1565b1c",32,1
"346",0,0,539,4,4,2,"1565b1c",33,1
"356",1,0,280,4,1,2,"1565b1c",34,1
"366",1,0,425,5,1,2,"1565b1c",35,1
"376",1,1,347,1,1,2,"1565b1c",36,1
"386",0,1,281,5,1,2,"1565b1c",37,1
"396",0,0,293,4,4,2,"1565b1c",38,1
"406",1,0,436,1,4,2,"1565b1c",39,1
"4110",1,1,344,5,5,2,"1565b1c",40,1
"426",0,0,352,6,6,2,"1565b1c",41,1
"436",0,1,311,6,1,2,"1565b1c",42,1
"446",1,1,252,1,1,2,"1565b1c",43,1
"456",0,1,303,6,1,2,"1565b1c",44,1
"466",1,1,289,4,4,2,"1565b1c",45,1
"476",1,1,347,5,5,2,"1565b1c",46,1
"486",1,1,452,6,6,2,"1565b1c",47,1
"496",1,0,382,4,1,2,"1565b1c",48,1
"506",0,1,360,5,1,2,"1565b1c",49,1
"5110",1,0,323,4,1,2,"1565b1c",50,1
"526",1,0,305,6,1,2,"1565b1c",51,1
"536",1,1,290,5,5,2,"1565b1c",52,1
"546",1,1,297,6,6,2,"1565b1c",53,1
"556",1,1,416,1,1,2,"1565b1c",54,1
"566",1,1,317,4,4,2,"1565b1c",55,1
"576",0,1,425,5,1,2,"1565b1c",56,1
"586",1,1,360,5,5,2,"1565b1c",57,1
"596",1,1,356,6,6,2,"1565b1c",58,1
"606",1,0,490,1,6,2,"1565b1c",59,1
"6110",1,0,535,1,4,2,"1565b1c",60,1
"626",1,1,354,4,4,2,"1565b1c",61,1
"636",1,0,309,1,5,2,"1565b1c",62,1
"646",0,0,468,1,1,2,"1565b1c",63,1
"656",1,0,549,4,1,2,"1565b1c",64,1
"666",1,1,379,6,6,2,"1565b1c",65,1
"676",1,0,365,6,1,2,"1565b1c",66,1
"686",0,0,326,4,4,2,"1565b1c",67,1
"696",1,1,362,1,1,2,"1565b1c",68,1
"706",1,1,311,5,5,2,"1565b1c",69,1
"716",0,1,332,5,1,2,"1565b1c",70,1
"227",1,0,926,1,5,3,"1929696",1,1
"327",1,0,821,4,1,3,"1929696",2,1
"427",0,0,755,5,5,3,"1929696",3,1
"527",1,0,691,6,1,3,"1929696",4,1
"627",1,1,1923,1,1,3,"1929696",5,1
"78",1,1,592,4,4,3,"1929696",6,1
"87",1,1,1090,6,6,3,"1929696",7,1
"97",1,0,552,1,5,3,"1929696",8,1
"107",1,1,429,5,5,3,"1929696",9,1
"117",1,1,1504,4,4,3,"1929696",10,1
"127",0,1,817,1,4,3,"1929696",11,1
"137",1,1,408,1,1,3,"1929696",12,1
"147",1,0,410,6,1,3,"1929696",13,1
"157",1,1,1016,6,6,3,"1929696",14,1
"167",0,1,777,6,1,3,"1929696",15,1
"177",0,0,511,4,4,3,"1929696",16,1
"187",1,1,893,6,6,3,"1929696",17,1
"197",0,1,601,1,5,3,"1929696",18,1
"207",0,1,625,4,1,3,"1929696",19,1
"2111",1,1,568,1,1,3,"1929696",20,1
"228",0,0,526,5,5,3,"1929696",21,1
"237",1,1,1002,1,1,3,"1929696",22,1
"247",1,0,324,6,1,3,"1929696",23,1
"257",0,0,538,5,5,3,"1929696",24,1
"267",0,0,515,4,4,3,"1929696",25,1
"277",1,1,466,6,6,3,"1929696",26,1
"287",1,0,403,1,5,3,"1929696",27,1
"297",0,1,451,1,4,3,"1929696",28,1
"307",1,1,392,4,4,3,"1929696",29,1
"3111",1,0,354,1,6,3,"1929696",30,1
"328",-1,-1,0,1,1,3,"1929696",31,1
"337",1,1,646,6,6,3,"1929696",32,1
"347",1,1,401,5,5,3,"1929696",33,1
"357",1,0,681,1,5,3,"1929696",34,1
"367",1,0,1008,1,4,3,"1929696",35,1
"377",1,1,400,4,4,3,"1929696",36,1
"387",0,1,416,1,6,3,"1929696",37,1
"397",1,1,549,1,1,3,"1929696",38,1
"407",1,0,617,1,4,3,"1929696",39,1
"4111",1,0,378,5,1,3,"1929696",40,1
"428",1,1,306,6,6,3,"1929696",41,1
"437",1,1,530,5,5,3,"1929696",42,1
"447",1,0,344,1,5,3,"1929696",43,1
"457",0,0,566,1,1,3,"1929696",44,1
"467",1,0,513,6,1,3,"1929696",45,1
"477",0,0,385,5,5,3,"1929696",46,1
"487",1,1,487,6,6,3,"1929696",47,1
"497",0,1,580,4,1,3,"1929696",48,1
"507",1,1,760,4,4,3,"1929696",49,1
"5111",1,0,1068,4,1,3,"1929696",50,1
"528",0,0,420,1,1,3,"1929696",51,1
"537",1,1,491,6,6,3,"1929696",52,1
"547",1,1,449,4,4,3,"1929696",53,1
"557",1,0,876,1,5,3,"1929696",54,1
"567",1,0,589,1,6,3,"1929696",55,1
"577",1,1,610,5,5,3,"1929696",56,1
"587",1,0,455,4,1,3,"1929696",57,1
"597",1,1,753,6,6,3,"1929696",58,1
"607",0,0,384,5,5,3,"1929696",59,1
"6111",0,0,627,1,1,3,"1929696",60,1
"628",0,1,433,1,6,3,"1929696",61,1
"637",1,1,589,4,4,3,"1929696",62,1
"647",1,0,430,5,1,3,"1929696",63,1
"657",1,1,399,6,6,3,"1929696",64,1
"667",1,0,395,1,6,3,"1929696",65,1
"677",1,1,313,1,1,3,"1929696",66,1
"687",1,1,493,5,5,3,"1929696",67,1
"697",0,1,655,4,1,3,"1929696",68,1
"707",1,1,683,4,4,3,"1929696",69,1
"717",1,0,352,1,5,3,"1929696",70,1
"229",1,1,1516,4,4,2,"1fc8de2",1,1
"329",1,0,447,5,1,2,"1fc8de2",2,1
"429",1,1,410,6,6,2,"1fc8de2",3,1
"529",1,1,331,5,5,2,"1fc8de2",4,1
"629",0,1,343,1,6,2,"1fc8de2",5,1
"79",1,1,579,1,1,2,"1fc8de2",6,1
"88",0,1,574,1,4,2,"1fc8de2",7,1
"98",0,1,116,1,5,2,"1fc8de2",8,1
"108",1,1,597,4,4,2,"1fc8de2",9,1
"118",1,1,512,1,1,2,"1fc8de2",10,1
"128",0,1,356,4,1,2,"1fc8de2",11,1
"138",0,1,362,1,6,2,"1fc8de2",12,1
"148",1,1,834,6,6,2,"1fc8de2",13,1
"158",1,1,283,5,5,2,"1fc8de2",14,1
"168",0,0,769,1,1,2,"1fc8de2",15,1
"178",0,1,358,5,1,2,"1fc8de2",16,1
"188",1,1,367,4,4,2,"1fc8de2",17,1
"198",0,1,709,1,6,2,"1fc8de2",18,1
"208",1,1,362,5,5,2,"1fc8de2",19,1
"2112",1,1,357,6,6,2,"1fc8de2",20,1
"2210",0,1,521,4,1,2,"1fc8de2",21,1
"238",0,1,370,1,5,2,"1fc8de2",22,1
"248",0,1,345,1,4,2,"1fc8de2",23,1
"258",0,1,24,1,6,2,"1fc8de2",24,1
"268",0,0,639,4,4,2,"1fc8de2",25,1
"278",1,1,367,6,6,2,"1fc8de2",26,1
"288",1,1,325,5,5,2,"1fc8de2",27,1
"298",1,1,64,1,1,2,"1fc8de2",28,1
"308",0,1,849,5,1,2,"1fc8de2",29,1
"3112",1,1,509,6,6,2,"1fc8de2",30,1
"3210",1,1,649,1,1,2,"1fc8de2",31,1
"338",1,1,455,5,5,2,"1fc8de2",32,1
"348",0,1,1361,4,1,2,"1fc8de2",33,1
"358",0,1,978,1,6,2,"1fc8de2",34,1
"368",1,1,667,4,4,2,"1fc8de2",35,1
"378",1,1,646,6,6,2,"1fc8de2",36,1
"388",0,1,460,5,1,2,"1fc8de2",37,1
"398",-1,-1,0,6,1,2,"1fc8de2",38,1
"408",1,1,574,5,5,2,"1fc8de2",39,1
"4112",1,1,520,4,4,2,"1fc8de2",40,1
"4210",1,1,317,1,1,2,"1fc8de2",41,1
"438",0,1,362,1,4,2,"1fc8de2",42,1
"448",1,1,537,6,6,2,"1fc8de2",43,1
"458",1,1,892,1,1,2,"1fc8de2",44,1
"468",0,1,938,6,1,2,"1fc8de2",45,1
"478",0,1,632,4,1,2,"1fc8de2",46,1
"488",1,1,608,4,4,2,"1fc8de2",47,1
"498",0,1,902,1,5,2,"1fc8de2",48,1
"508",1,1,369,5,5,2,"1fc8de2",49,1
"5112",0,1,489,1,5,2,"1fc8de2",50,1
"5210",1,1,370,4,4,2,"1fc8de2",51,1
"538",0,1,516,6,1,2,"1fc8de2",52,1
"548",1,1,300,5,5,2,"1fc8de2",53,1
"558",1,1,1004,1,1,2,"1fc8de2",54,1
"568",0,1,319,4,1,2,"1fc8de2",55,1
"578",1,1,486,6,6,2,"1fc8de2",56,1
"588",1,1,469,6,6,2,"1fc8de2",57,1
"598",1,1,391,1,1,2,"1fc8de2",58,1
"608",0,1,738,1,4,2,"1fc8de2",59,1
"6112",1,1,275,5,5,2,"1fc8de2",60,1
"6210",0,1,493,5,1,2,"1fc8de2",61,1
"638",1,1,331,4,4,2,"1fc8de2",62,1
"648",0,1,299,1,6,2,"1fc8de2",63,1
"658",0,0,517,5,5,2,"1fc8de2",64,1
"668",1,1,309,1,1,2,"1fc8de2",65,1
"678",1,1,91,4,4,2,"1fc8de2",66,1
"688",1,1,313,6,6,2,"1fc8de2",67,1
"698",0,1,346,1,6,2,"1fc8de2",68,1
"708",0,1,38,4,1,2,"1fc8de2",69,1
"718",0,1,652,1,5,2,"1fc8de2",70,1
"230",1,1,696,5,5,2,"1269842",1,1
"330",1,1,878,4,4,2,"1269842",2,1
"430",1,1,763,6,6,2,"1269842",3,1
"530",1,1,743,1,1,2,"1269842",4,1
"630",0,1,468,1,5,2,"1269842",5,1
"710",0,1,1195,4,1,2,"1269842",6,1
"89",0,1,1108,1,6,2,"1269842",7,1
"99",1,1,1436,6,6,2,"1269842",8,1
"109",1,1,1507,4,4,2,"1269842",9,1
"119",0,1,1536,1,5,2,"1269842",10,1
"129",0,1,1319,6,1,2,"1269842",11,1
"139",0,1,670,1,4,2,"1269842",12,1
"149",1,1,641,5,5,2,"1269842",13,1
"159",1,1,493,1,1,2,"1269842",14,1
"169",0,1,581,1,4,2,"1269842",15,1
"179",0,1,556,5,1,2,"1269842",16,1
"189",1,1,531,6,6,2,"1269842",17,1
"199",1,1,379,1,1,2,"1269842",18,1
"209",0,1,438,1,6,2,"1269842",19,1
"2113",1,1,461,5,5,2,"1269842",20,1
"2211",1,1,444,4,4,2,"1269842",21,1
"239",0,1,912,6,1,2,"1269842",22,1
"249",1,1,393,6,6,2,"1269842",23,1
"259",0,1,854,4,1,2,"1269842",24,1
"269",1,1,324,1,1,2,"1269842",25,1
"279",0,1,473,1,5,2,"1269842",26,1
"289",1,1,387,5,5,2,"1269842",27,1
"299",1,1,755,4,4,2,"1269842",28,1
"309",0,1,229,6,1,2,"1269842",29,1
"3113",1,1,347,1,1,2,"1269842",30,1
"3211",0,1,694,1,5,2,"1269842",31,1
"339",0,1,660,1,4,2,"1269842",32,1
"349",1,1,135,5,5,2,"1269842",33,1
"359",1,1,1636,6,6,2,"1269842",34,1
"369",1,1,333,4,4,2,"1269842",35,1
"379",0,1,554,4,1,2,"1269842",36,1
"389",1,1,78,6,6,2,"1269842",37,1
"399",0,1,312,1,6,2,"1269842",38,1
"409",1,1,469,5,5,2,"1269842",39,1
"4113",1,1,375,1,1,2,"1269842",40,1
"4211",0,1,421,5,1,2,"1269842",41,1
"439",1,1,297,4,4,2,"1269842",42,1
"449",0,1,297,5,1,2,"1269842",43,1
"459",1,1,334,6,6,2,"1269842",44,1
"469",1,1,1410,1,1,2,"1269842",45,1
"479",0,1,373,4,1,2,"1269842",46,1
"489",0,1,304,6,1,2,"1269842",47,1
"499",1,1,735,4,4,2,"1269842",48,1
"509",1,1,220,5,5,2,"1269842",49,1
"5113",1,1,446,4,4,2,"1269842",50,1
"5211",1,1,176,6,6,2,"1269842",51,1
"539",0,1,338,4,1,2,"1269842",52,1
"549",1,1,630,5,5,2,"1269842",53,1
"559",0,1,319,1,6,2,"1269842",54,1
"569",0,1,321,1,5,2,"1269842",55,1
"579",1,1,565,1,1,2,"1269842",56,1
"589",0,1,40,4,1,2,"1269842",57,1
"599",0,1,1004,5,1,2,"1269842",58,1
"609",1,1,583,5,5,2,"1269842",59,1
"6113",1,1,270,4,4,2,"1269842",60,1
"6211",1,1,434,1,1,2,"1269842",61,1
"639",1,1,230,6,6,2,"1269842",62,1
"649",0,1,393,1,6,2,"1269842",63,1
"659",1,1,946,1,1,2,"1269842",64,1
"669",0,1,343,4,1,2,"1269842",65,1
"679",0,1,135,6,1,2,"1269842",66,1
"689",1,1,117,6,6,2,"1269842",67,1
"699",1,1,131,5,5,2,"1269842",68,1
"709",1,1,1754,4,4,2,"1269842",69,1
"719",0,1,1235,5,1,2,"1269842",70,1
"240",-1,-1,0,1,5,3,"1451681",1,1
"340",0,1,948,1,6,3,"1451681",2,1
"440",0,1,543,4,1,3,"1451681",3,1
"540",0,0,806,4,4,3,"1451681",4,1
"640",0,0,761,6,6,3,"1451681",5,1
"720",0,0,570,5,5,3,"1451681",6,1
"810",0,0,538,1,1,3,"1451681",7,1
"910",0,1,653,5,1,3,"1451681",8,1
"1010",0,0,619,1,1,3,"1451681",9,1
"1110",1,1,580,4,4,3,"1451681",10,1
"1210",0,0,625,5,5,3,"1451681",11,1
"1310",1,0,610,4,1,3,"1451681",12,1
"1410",1,1,367,6,6,3,"1451681",13,1
"1510",0,1,447,1,6,3,"1451681",14,1
"1610",0,1,467,1,6,3,"1451681",15,1
"1710",1,1,345,5,5,3,"1451681",16,1
"1810",1,0,536,1,5,3,"1451681",17,1
"1910",0,0,291,4,4,3,"1451681",18,1
"2010",1,1,433,1,1,3,"1451681",19,1
"2114",1,1,384,6,6,3,"1451681",20,1
"2212",1,0,661,1,4,3,"1451681",21,1
"2310",0,0,730,1,1,3,"1451681",22,1
"2410",1,0,470,1,6,3,"1451681",23,1
"2510",1,1,467,6,6,3,"1451681",24,1
"2610",0,0,494,5,5,3,"1451681",25,1
"2710",0,1,396,5,1,3,"1451681",26,1
"2810",0,0,462,4,4,3,"1451681",27,1
"2910",1,0,313,4,1,3,"1451681",28,1
"3010",1,0,380,5,1,3,"1451681",29,1
"3114",1,0,384,1,4,3,"1451681",30,1
"3212",1,0,791,6,1,3,"1451681",31,1
"3310",0,0,720,6,6,3,"1451681",32,1
"3410",0,0,700,5,5,3,"1451681",33,1
"3510",0,0,563,1,1,3,"1451681",34,1
"3610",0,0,337,4,4,3,"1451681",35,1
"3710",1,1,708,6,6,3,"1451681",36,1
"3810",0,0,289,5,5,3,"1451681",37,1
"3910",0,1,377,1,6,3,"1451681",38,1
"4010",0,0,522,4,4,3,"1451681",39,1
"4114",0,1,297,1,5,3,"1451681",40,1
"4212",0,1,340,1,4,3,"1451681",41,1
"4310",0,0,385,1,1,3,"1451681",42,1
"4410",0,1,343,4,1,3,"1451681",43,1
"4510",0,1,316,1,6,3,"1451681",44,1
"4610",1,1,299,5,5,3,"1451681",45,1
"4710",0,0,461,4,4,3,"1451681",46,1
"4810",0,1,1171,1,5,3,"1451681",47,1
"4910",0,0,243,6,6,3,"1451681",48,1
"5010",1,1,255,1,1,3,"1451681",49,1
"5114",0,0,294,1,1,3,"1451681",50,1
"5212",0,1,258,6,1,3,"1451681",51,1
"5310",1,1,429,6,6,3,"1451681",52,1
"5410",0,1,361,1,4,3,"1451681",53,1
"5510",1,1,543,5,5,3,"1451681",54,1
"5610",0,1,238,5,1,3,"1451681",55,1
"5710",0,0,255,4,4,3,"1451681",56,1
"5810",0,1,339,6,1,3,"1451681",57,1
"5910",1,1,275,4,4,3,"1451681",58,1
"6010",1,1,302,1,1,3,"1451681",59,1
"6114",0,1,303,1,5,3,"1451681",60,1
"6212",1,1,282,6,6,3,"1451681",61,1
"6310",1,0,305,4,1,3,"1451681",62,1
"6410",1,1,288,5,5,3,"1451681",63,1
"6510",1,1,404,5,5,3,"1451681",64,1
"6610",0,1,238,1,5,3,"1451681",65,1
"6710",1,1,299,1,1,3,"1451681",66,1
"6810",1,1,367,6,6,3,"1451681",67,1
"6910",0,1,300,1,4,3,"1451681",68,1
"7010",0,1,430,6,1,3,"1451681",69,1
"7110",1,1,277,4,4,3,"1451681",70,1
"250",1,1,594,5,5,2,"15fd7a1",1,1
"350",0,1,349,4,1,2,"15fd7a1",2,1
"450",1,1,354,1,1,2,"15fd7a1",3,1
"550",1,1,388,6,6,2,"15fd7a1",4,1
"650",1,0,888,1,5,2,"15fd7a1",5,1
"721",1,1,306,4,4,2,"15fd7a1",6,1
"811",0,1,272,1,6,2,"15fd7a1",7,1
"911",1,1,258,1,1,2,"15fd7a1",8,1
"1011",1,1,340,5,5,2,"15fd7a1",9,1
"1111",0,1,313,1,4,2,"15fd7a1",10,1
"1211",1,1,251,4,4,2,"15fd7a1",11,1
"1311",0,1,256,1,6,2,"15fd7a1",12,1
"1411",1,1,258,6,6,2,"15fd7a1",13,1
"1511",0,1,357,5,1,2,"15fd7a1",14,1
"1611",1,1,241,5,5,2,"15fd7a1",15,1
"1711",1,1,234,6,6,2,"15fd7a1",16,1
"1811",0,1,175,1,4,2,"15fd7a1",17,1
"1911",1,1,234,4,4,2,"15fd7a1",18,1
"2011",1,1,161,1,1,2,"15fd7a1",19,1
"2115",0,1,6,1,6,2,"15fd7a1",20,1
"2213",1,0,275,5,1,2,"15fd7a1",21,1
"2311",1,1,48,6,6,2,"15fd7a1",22,1
"2411",0,1,107,1,6,2,"15fd7a1",23,1
"2511",1,1,221,5,5,2,"15fd7a1",24,1
"2611",0,1,138,1,5,2,"15fd7a1",25,1
"2711",1,1,679,4,4,2,"15fd7a1",26,1
"2811",0,1,93,4,1,2,"15fd7a1",27,1
"2911",1,1,1181,1,1,2,"15fd7a1",28,1
"3011",1,1,706,6,6,2,"15fd7a1",29,1
"3115",1,1,248,1,1,2,"15fd7a1",30,1
"3213",0,1,282,5,1,2,"15fd7a1",31,1
"3311",0,1,67,4,1,2,"15fd7a1",32,1
"3411",1,1,459,5,5,2,"15fd7a1",33,1
"3511",0,1,16,6,1,2,"15fd7a1",34,1
"3611",1,1,21,4,4,2,"15fd7a1",35,1
"3711",1,1,577,6,6,2,"15fd7a1",36,1
"3811",1,1,272,1,1,2,"15fd7a1",37,1
"3911",0,1,334,4,1,2,"15fd7a1",38,1
"4011",0,1,404,1,5,2,"15fd7a1",39,1
"4115",1,1,121,5,5,2,"15fd7a1",40,1
"4213",1,1,225,4,4,2,"15fd7a1",41,1
"4311",0,1,293,1,6,2,"15fd7a1",42,1
"4411",1,1,182,4,4,2,"15fd7a1",43,1
"4511",0,1,352,5,1,2,"15fd7a1",44,1
"4611",1,1,198,5,5,2,"15fd7a1",45,1
"4711",1,1,142,6,6,2,"15fd7a1",46,1
"4811",0,1,243,4,1,2,"15fd7a1",47,1
"4911",0,1,424,6,1,2,"15fd7a1",48,1
"5011",1,1,371,1,1,2,"15fd7a1",49,1
"5115",1,1,179,6,6,2,"15fd7a1",50,1
"5213",0,1,492,6,1,2,"15fd7a1",51,1
"5311",1,1,84,5,5,2,"15fd7a1",52,1
"5411",1,1,486,4,4,2,"15fd7a1",53,1
"5511",1,1,299,1,1,2,"15fd7a1",54,1
"5611",0,1,21,1,4,2,"15fd7a1",55,1
"5711",0,1,727,1,5,2,"15fd7a1",56,1
"5811",1,1,919,5,5,2,"15fd7a1",57,1
"5911",1,1,275,1,1,2,"15fd7a1",58,1
"6011",0,1,492,1,6,2,"15fd7a1",59,1
"6115",0,1,259,4,1,2,"15fd7a1",60,1
"6213",0,1,459,5,1,2,"15fd7a1",61,1
"6311",1,1,1427,6,6,2,"15fd7a1",62,1
"6411",1,1,401,4,4,2,"15fd7a1",63,1
"6511",1,1,678,6,6,2,"15fd7a1",64,1
"6611",1,1,195,5,5,2,"15fd7a1",65,1
"6711",1,1,958,1,1,2,"15fd7a1",66,1
"6811",0,1,367,6,1,2,"15fd7a1",67,1
"6911",1,0,650,5,1,2,"15fd7a1",68,1
"7011",1,1,123,4,4,2,"15fd7a1",69,1
"7111",0,1,258,1,4,2,"15fd7a1",70,1
"260",1,0,410,1,4,3,"1b64011",1,1
"360",1,0,422,6,1,3,"1b64011",2,1
"460",0,0,353,1,1,3,"1b64011",3,1
"560",1,0,368,5,1,3,"1b64011",4,1
"660",0,0,498,4,4,3,"1b64011",5,1
"722",1,1,264,6,6,3,"1b64011",6,1
"812",1,1,320,5,5,3,"1b64011",7,1
"912",1,0,275,1,6,3,"1b64011",8,1
"1012",0,0,346,6,6,3,"1b64011",9,1
"1112",1,0,348,5,1,3,"1b64011",10,1
"1212",1,1,398,5,5,3,"1b64011",11,1
"1312",0,0,334,1,1,3,"1b64011",12,1
"1412",1,1,673,4,4,3,"1b64011",13,1
"1512",1,0,324,4,1,3,"1b64011",14,1
"1612",1,1,447,1,1,3,"1b64011",15,1
"1712",1,1,446,4,4,3,"1b64011",16,1
"1812",0,1,412,1,6,3,"1b64011",17,1
"1912",1,1,901,6,6,3,"1b64011",18,1
"2012",0,1,285,5,1,3,"1b64011",19,1
"2116",0,0,444,5,5,3,"1b64011",20,1
"2214",0,1,475,4,1,3,"1b64011",21,1
"2312",0,0,643,5,5,3,"1b64011",22,1
"2412",1,0,639,1,4,3,"1b64011",23,1
"2512",0,0,495,4,4,3,"1b64011",24,1
"2612",1,1,378,1,1,3,"1b64011",25,1
"2712",1,0,383,5,1,3,"1b64011",26,1
"2812",0,0,577,6,6,3,"1b64011",27,1
"2912",1,0,346,6,1,3,"1b64011",28,1
"3012",1,1,303,6,6,3,"1b64011",29,1
"3116",0,1,598,1,5,3,"1b64011",30,1
"3214",1,1,293,5,5,3,"1b64011",31,1
"3312",0,1,340,1,6,3,"1b64011",32,1
"3412",0,1,471,4,1,3,"1b64011",33,1
"3512",0,0,663,4,4,3,"1b64011",34,1
"3612",0,0,302,1,1,3,"1b64011",35,1
"3712",0,0,357,6,6,3,"1b64011",36,1
"3812",1,0,588,4,1,3,"1b64011",37,1
"3912",0,1,277,1,6,3,"1b64011",38,1
"4012",0,1,263,1,5,3,"1b64011",39,1
"4116",0,0,412,5,5,3,"1b64011",40,1
"4214",1,1,441,4,4,3,"1b64011",41,1
"4312",1,1,615,1,1,3,"1b64011",42,1
"4412",1,0,370,4,1,3,"1b64011",43,1
"4512",1,0,698,5,1,3,"1b64011",44,1
"4612",0,1,298,1,6,3,"1b64011",45,1
"4712",1,1,468,4,4,3,"1b64011",46,1
"4812",0,0,405,6,6,3,"1b64011",47,1
"4912",0,0,324,5,5,3,"1b64011",48,1
"5012",1,1,324,1,1,3,"1b64011",49,1
"5116",1,1,324,5,5,3,"1b64011",50,1
"5214",1,1,275,1,1,3,"1b64011",51,1
"5312",0,1,310,1,6,3,"1b64011",52,1
"5412",0,0,491,6,6,3,"1b64011",53,1
"5512",1,0,328,5,1,3,"1b64011",54,1
"5612",1,1,347,4,4,3,"1b64011",55,1
"5712",1,0,476,1,4,3,"1b64011",56,1
"5812",0,1,383,4,1,3,"1b64011",57,1
"5912",0,0,329,5,5,3,"1b64011",58,1
"6012",0,1,297,5,1,3,"1b64011",59,1
"6116",1,1,369,4,4,3,"1b64011",60,1
"6214",0,0,535,6,6,3,"1b64011",61,1
"6312",1,1,376,1,1,3,"1b64011",62,1
"6412",0,1,392,1,6,3,"1b64011",63,1
"6512",0,1,379,5,1,3,"1b64011",64,1
"6612",1,1,60,6,6,3,"1b64011",65,1
"6712",1,1,422,4,4,3,"1b64011",66,1
"6812",0,0,482,1,1,3,"1b64011",67,1
"6912",0,0,428,5,5,3,"1b64011",68,1
"7012",1,0,277,4,1,3,"1b64011",69,1
"7112",1,0,343,6,1,3,"1b64011",70,1
"270",0,0,1211,6,6,2,"153661a",1,1
"370",0,1,297,1,6,2,"153661a",2,1
"470",1,1,290,1,1,2,"153661a",3,1
"570",0,1,516,4,1,2,"153661a",4,1
"670",1,1,298,4,4,2,"153661a",5,1
"723",1,1,328,5,5,2,"153661a",6,1
"813",0,1,258,5,1,2,"153661a",7,1
"913",1,1,308,1,1,2,"153661a",8,1
"1013",1,1,532,5,5,2,"153661a",9,1
"1113",0,1,358,6,1,2,"153661a",10,1
"1213",1,1,380,4,4,2,"153661a",11,1
"1313",0,0,231,6,6,2,"153661a",12,1
"1413",0,1,378,1,4,2,"153661a",13,1
"1513",0,1,239,1,5,2,"153661a",14,1
"1613",0,1,231,1,4,2,"153661a",15,1
"1713",1,1,476,1,1,2,"153661a",16,1
"1813",0,0,312,6,6,2,"153661a",17,1
"1913",0,0,253,5,5,2,"153661a",18,1
"2013",0,1,256,1,6,2,"153661a",19,1
"2117",1,1,222,4,4,2,"153661a",20,1
"2215",0,1,733,5,1,2,"153661a",21,1
"2313",0,1,128,6,1,2,"153661a",22,1
"2413",1,1,261,1,1,2,"153661a",23,1
"2513",1,1,269,6,6,2,"153661a",24,1
"2613",1,1,282,4,4,2,"153661a",25,1
"2713",0,0,279,5,5,2,"153661a",26,1
"2813",0,1,400,1,4,2,"153661a",27,1
"2913",0,1,541,5,1,2,"153661a",28,1
"3013",0,1,374,1,5,2,"153661a",29,1
"3117",0,1,464,1,6,2,"153661a",30,1
"3215",0,0,249,6,6,2,"153661a",31,1
"3313",1,1,424,5,5,2,"153661a",32,1
"3413",1,1,381,4,4,2,"153661a",33,1
"3513",1,1,299,1,1,2,"153661a",34,1
"3613",0,1,595,1,4,2,"153661a",35,1
"3713",1,1,200,6,6,2,"153661a",36,1
"3813",0,1,286,4,1,2,"153661a",37,1
"3913",0,1,369,5,1,2,"153661a",38,1
"4013",0,0,318,4,4,2,"153661a",39,1
"4117",0,1,410,1,6,2,"153661a",40,1
"4215",1,1,497,5,5,2,"153661a",41,1
"4313",1,1,271,1,1,2,"153661a",42,1
"4413",1,1,230,4,4,2,"153661a",43,1
"4513",0,1,888,1,5,2,"153661a",44,1
"4613",1,1,337,6,6,2,"153661a",45,1
"4713",0,1,279,4,1,2,"153661a",46,1
"4813",0,1,337,6,1,2,"153661a",47,1
"4913",1,1,255,5,5,2,"153661a",48,1
"5013",0,0,46,1,1,2,"153661a",49,1
"5117",1,1,484,5,5,2,"153661a",50,1
"5215",0,1,358,1,6,2,"153661a",51,1
"5313",1,1,270,4,4,2,"153661a",52,1
"5413",0,1,334,1,4,2,"153661a",53,1
"5513",0,1,296,5,1,2,"153661a",54,1
"5613",1,1,199,1,1,2,"153661a",55,1
"5713",1,1,927,6,6,2,"153661a",56,1
"5813",1,1,287,1,1,2,"153661a",57,1
"5913",1,1,972,4,4,2,"153661a",58,1
"6013",0,1,350,4,1,2,"153661a",59,1
"6117",0,0,277,6,6,2,"153661a",60,1
"6215",1,1,238,5,5,2,"153661a",61,1
"6313",0,1,376,6,1,2,"153661a",62,1
"6413",0,1,301,5,1,2,"153661a",63,1
"6513",1,1,807,6,6,2,"153661a",64,1
"6613",0,1,444,1,4,2,"153661a",65,1
"6713",0,1,353,5,1,2,"153661a",66,1
"6813",1,1,226,1,1,2,"153661a",67,1
"6913",1,1,243,5,5,2,"153661a",68,1
"7013",0,0,164,4,4,2,"153661a",69,1
"7113",0,1,250,6,1,2,"153661a",70,1
"280",1,0,463,1,4,2,"1637844",1,1
"380",0,1,512,1,5,2,"1637844",2,1
"480",1,1,370,6,6,2,"1637844",3,1
"580",1,1,516,5,5,2,"1637844",4,1
"680",1,1,564,4,4,2,"1637844",5,1
"724",1,1,440,1,1,2,"1637844",6,1
"814",0,1,554,1,6,2,"1637844",7,1
"914",0,1,541,6,1,2,"1637844",8,1
"1014",0,1,757,4,1,2,"1637844",9,1
"1114",1,1,448,6,6,2,"1637844",10,1
"1214",1,1,526,1,1,2,"1637844",11,1
"1314",1,1,336,5,5,2,"1637844",12,1
"1414",0,1,718,1,5,2,"1637844",13,1
"1514",1,1,489,4,4,2,"1637844",14,1
"1614",1,1,587,6,6,2,"1637844",15,1
"1714",0,1,803,5,1,2,"1637844",16,1
"1814",0,1,874,6,1,2,"1637844",17,1
"1914",1,1,695,5,5,2,"1637844",18,1
"2014",1,1,460,4,4,2,"1637844",19,1
"2118",0,1,375,4,1,2,"1637844",20,1
"2216",1,1,344,1,1,2,"1637844",21,1
"2314",1,1,386,5,5,2,"1637844",22,1
"2414",0,1,412,1,5,2,"1637844",23,1
"2514",1,1,447,1,1,2,"1637844",24,1
"2614",1,1,468,6,6,2,"1637844",25,1
"2714",1,1,781,4,4,2,"1637844",26,1
"2814",0,1,553,6,1,2,"1637844",27,1
"2914",0,1,19,1,4,2,"1637844",28,1
"3014",0,1,536,6,1,2,"1637844",29,1
"3118",1,1,790,5,5,2,"1637844",30,1
"3216",1,1,1080,4,4,2,"1637844",31,1
"3314",1,1,684,1,1,2,"1637844",32,1
"3414",1,1,928,6,6,2,"1637844",33,1
"3514",0,1,636,4,1,2,"1637844",34,1
"3614",0,1,481,1,5,2,"1637844",35,1
"3714",1,1,654,4,4,2,"1637844",36,1
"3814",0,1,473,4,1,2,"1637844",37,1
"3914",0,1,349,6,1,2,"1637844",38,1
"4014",1,1,573,1,1,2,"1637844",39,1
"4118",1,1,468,5,5,2,"1637844",40,1
"4216",0,1,958,5,1,2,"1637844",41,1
"4314",1,1,484,6,6,2,"1637844",42,1
"4414",1,1,419,5,5,2,"1637844",43,1
"4514",1,1,637,4,4,2,"1637844",44,1
"4614",0,1,452,6,1,2,"1637844",45,1
"4714",0,1,462,1,4,2,"1637844",46,1
"4814",1,1,480,1,1,2,"1637844",47,1
"4914",0,1,487,5,1,2,"1637844",48,1
"5014",1,1,622,6,6,2,"1637844",49,1
"5118",0,1,373,4,1,2,"1637844",50,1
"5216",0,1,1155,6,1,2,"1637844",51,1
"5314",0,0,1124,4,4,2,"1637844",52,1
"5414",1,1,330,1,1,2,"1637844",53,1
"5514",0,1,570,1,5,2,"1637844",54,1
"5614",1,1,1335,6,6,2,"1637844",55,1
"5714",1,1,363,5,5,2,"1637844",56,1
"5814",0,1,929,4,1,2,"1637844",57,1
"5914",1,1,571,5,5,2,"1637844",58,1
"6014",1,1,611,6,6,2,"1637844",59,1
"6118",0,1,468,1,6,2,"1637844",60,1
"6216",0,1,356,5,1,2,"1637844",61,1
"6314",1,1,555,1,1,2,"1637844",62,1
"6414",1,1,502,4,4,2,"1637844",63,1
"6514",0,1,538,4,1,2,"1637844",64,1
"6614",1,1,636,6,6,2,"1637844",65,1
"6714",0,1,878,1,5,2,"1637844",66,1
"6814",0,1,407,1,6,2,"1637844",67,1
"6914",0,0,969,5,5,2,"1637844",68,1
"7014",1,1,496,1,1,2,"1637844",69,1
"7114",1,1,434,4,4,2,"1637844",70,1
"290",1,1,1449,5,5,2,"1113668",1,1
"390",1,1,477,4,4,2,"1113668",2,1
"490",1,1,355,6,6,2,"1113668",3,1
"590",1,0,291,4,1,2,"1113668",4,1
"690",0,1,251,1,6,2,"1113668",5,1
"725",1,1,271,1,1,2,"1113668",6,1
"815",0,1,528,5,1,2,"1113668",7,1
"915",0,1,308,1,4,2,"1113668",8,1
"1015",1,1,302,1,1,2,"1113668",9,1
"1115",1,1,311,4,4,2,"1113668",10,1
"1215",0,1,35,6,1,2,"1113668",11,1
"1315",1,1,230,6,6,2,"1113668",12,1
"1415",0,1,1868,1,5,2,"1113668",13,1
"1515",1,1,246,5,5,2,"1113668",14,1
"1615",1,1,358,6,6,2,"1113668",15,1
"1715",0,1,326,4,1,2,"1113668",16,1
"1815",1,1,1218,4,4,2,"1113668",17,1
"1915",0,1,1081,1,5,2,"1113668",18,1
"2015",1,1,324,5,5,2,"1113668",19,1
"2119",1,1,321,1,1,2,"1113668",20,1
"2217",0,1,300,6,1,2,"1113668",21,1
"2315",1,1,190,6,6,2,"1113668",22,1
"2415",0,1,112,6,1,2,"1113668",23,1
"2515",1,1,99,1,1,2,"1113668",24,1
"2615",0,1,3,1,4,2,"1113668",25,1
"2715",1,1,263,5,5,2,"1113668",26,1
"2815",0,1,270,5,1,2,"1113668",27,1
"2915",1,1,1050,4,4,2,"1113668",28,1
"3015",1,1,276,4,4,2,"1113668",29,1
"3119",0,1,12,1,6,2,"1113668",30,1
"3217",1,1,289,1,1,2,"1113668",31,1
"3315",1,1,201,5,5,2,"1113668",32,1
"3415",1,0,251,1,4,2,"1113668",33,1
"3515",0,1,110,5,1,2,"1113668",34,1
"3615",1,1,115,6,6,2,"1113668",35,1
"3715",1,1,7,4,4,2,"1113668",36,1
"3815",1,1,104,6,6,2,"1113668",37,1
"3915",1,1,21,5,5,2,"1113668",38,1
"4015",0,1,73,1,6,2,"1113668",39,1
"4119",1,1,204,1,1,2,"1113668",40,1
"4217",0,1,558,5,1,2,"1113668",41,1
"4315",0,1,283,4,1,2,"1113668",42,1
"4415",1,1,97,4,4,2,"1113668",43,1
"4515",1,1,239,1,1,2,"1113668",44,1
"4615",0,1,642,6,1,2,"1113668",45,1
"4715",0,1,287,4,1,2,"1113668",46,1
"4815",0,1,425,5,1,2,"1113668",47,1
"4915",1,1,336,6,6,2,"1113668",48,1
"5015",1,1,290,5,5,2,"1113668",49,1
"5119",-1,-1,0,4,4,2,"1113668",50,1
"5217",-1,-1,0,5,1,2,"1113668",51,1
"5315",1,1,242,5,5,2,"1113668",52,1
"5415",1,1,70,1,1,2,"1113668",53,1
"5515",1,1,12,6,6,2,"1113668",54,1
"5615",0,1,508,1,4,2,"1113668",55,1
"5715",0,1,294,6,1,2,"1113668",56,1
"5815",0,1,281,6,1,2,"1113668",57,1
"5915",0,1,71,1,4,2,"1113668",58,1
"6015",1,1,265,5,5,2,"1113668",59,1
"6119",0,1,197,1,5,2,"1113668",60,1
"6217",1,1,35,4,4,2,"1113668",61,1
"6315",1,1,305,6,6,2,"1113668",62,1
"6415",1,1,117,1,1,2,"1113668",63,1
"6515",1,1,577,5,5,2,"1113668",64,1
"6615",0,1,41,6,1,2,"1113668",65,1
"6715",1,1,102,6,6,2,"1113668",66,1
"6815",0,1,280,1,4,2,"1113668",67,1
"6915",1,1,306,1,1,2,"1113668",68,1
"7015",0,1,310,1,5,2,"1113668",69,1
"7115",1,1,81,4,4,2,"1113668",70,1
"2100",0,0,373,4,4,2,"1e678ea",1,1
"3100",1,1,249,5,5,2,"1e678ea",2,1
"4100",1,0,300,1,5,2,"1e678ea",3,1
"5100",0,0,295,6,6,2,"1e678ea",4,1
"6100",1,1,419,1,1,2,"1e678ea",5,1
"726",0,1,251,6,1,2,"1e678ea",6,1
"816",0,1,360,1,4,2,"1e678ea",7,1
"916",1,1,302,1,1,2,"1e678ea",8,1
"1016",0,1,129,4,1,2,"1e678ea",9,1
"1116",0,0,157,6,6,2,"1e678ea",10,1
"1216",1,1,300,5,5,2,"1e678ea",11,1
"1316",0,1,125,1,5,2,"1e678ea",12,1
"1416",0,1,88,6,1,2,"1e678ea",13,1
"1516",0,0,260,4,4,2,"1e678ea",14,1
"1616",1,1,73,4,4,2,"1e678ea",15,1
"1716",0,1,193,6,1,2,"1e678ea",16,1
"1816",0,1,248,4,1,2,"1e678ea",17,1
"1916",1,1,148,5,5,2,"1e678ea",18,1
"2016",0,1,294,1,5,2,"1e678ea",19,1
"2120",1,1,29,6,6,2,"1e678ea",20,1
"2218",1,1,229,1,1,2,"1e678ea",21,1
"2316",1,1,185,6,6,2,"1e678ea",22,1
"2416",1,1,350,4,4,2,"1e678ea",23,1
"2516",0,1,92,6,1,2,"1e678ea",24,1
"2616",1,1,240,5,5,2,"1e678ea",25,1
"2716",1,1,208,1,1,2,"1e678ea",26,1
"2816",0,1,259,1,5,2,"1e678ea",27,1
"2916",0,1,360,1,4,2,"1e678ea",28,1
"3016",0,1,224,6,1,2,"1e678ea",29,1
"3120",1,1,121,4,4,2,"1e678ea",30,1
"3218",0,1,261,4,1,2,"1e678ea",31,1
"3316",0,1,257,5,1,2,"1e678ea",32,1
"3416",1,1,238,5,5,2,"1e678ea",33,1
"3516",1,1,179,1,1,2,"1e678ea",34,1
"3616",1,1,204,6,6,2,"1e678ea",35,1
"3716",1,1,287,4,4,2,"1e678ea",36,1
"3816",1,1,302,5,5,2,"1e678ea",37,1
"3916",1,1,141,1,1,2,"1e678ea",38,1
"4016",0,1,317,6,1,2,"1e678ea",39,1
"4120",1,1,227,6,6,2,"1e678ea",40,1
"4218",0,1,282,5,1,2,"1e678ea",41,1
"4316",0,1,281,1,4,2,"1e678ea",42,1
"4416",1,1,170,5,5,2,"1e678ea",43,1
"4516",1,1,460,6,6,2,"1e678ea",44,1
"4616",1,1,331,4,4,2,"1e678ea",45,1
"4716",1,1,34,1,1,2,"1e678ea",46,1
"4816",0,1,311,5,1,2,"1e678ea",47,1
"4916",0,1,356,1,6,2,"1e678ea",48,1
"5016",0,1,449,4,1,2,"1e678ea",49,1
"5120",0,1,294,5,1,2,"1e678ea",50,1
"5218",1,1,108,4,4,2,"1e678ea",51,1
"5316",1,1,89,1,1,2,"1e678ea",52,1
"5416",1,1,204,5,5,2,"1e678ea",53,1
"5516",0,1,168,1,4,2,"1e678ea",54,1
"5616",1,1,345,6,6,2,"1e678ea",55,1
"5716",0,1,413,1,6,2,"1e678ea",56,1
"5816",0,1,257,6,1,2,"1e678ea",57,1
"5916",1,1,338,1,1,2,"1e678ea",58,1
"6016",0,1,155,1,4,2,"1e678ea",59,1
"6120",1,1,447,5,5,2,"1e678ea",60,1
"6218",1,1,181,4,4,2,"1e678ea",61,1
"6316",1,1,211,6,6,2,"1e678ea",62,1
"6416",0,1,395,5,1,2,"1e678ea",63,1
"6516",1,1,255,6,6,2,"1e678ea",64,1
"6616",0,1,125,5,1,2,"1e678ea",65,1
"6716",0,1,272,1,6,2,"1e678ea",66,1
"6816",1,1,60,4,4,2,"1e678ea",67,1
"6916",1,1,365,1,1,2,"1e678ea",68,1
"7016",1,1,380,5,5,2,"1e678ea",69,1
"7116",0,1,377,1,4,2,"1e678ea",70,1
"2101",1,1,344,4,4,1,"17cb109",1,1
"3101",1,1,329,6,6,1,"17cb109",2,1
"4101",1,1,300,1,1,1,"17cb109",3,1
"5101",1,0,366,1,4,1,"17cb109",4,1
"6101",1,1,364,5,5,1,"17cb109",5,1
"727",1,0,409,6,1,1,"17cb109",6,1
"817",0,1,435,1,5,1,"17cb109",7,1
"917",0,1,449,1,5,1,"17cb109",8,1
"1017",1,1,467,1,1,1,"17cb109",9,1
"1117",0,1,278,1,6,1,"17cb109",10,1
"1217",1,1,295,6,6,1,"17cb109",11,1
"1317",1,1,364,4,4,1,"17cb109",12,1
"1417",1,1,389,5,5,1,"17cb109",13,1
"1517",0,1,577,1,4,1,"17cb109",14,1
"1617",0,1,393,1,5,1,"17cb109",15,1
"1717",0,1,463,1,6,1,"17cb109",16,1
"1817",1,1,547,5,5,1,"17cb109",17,1
"1917",0,1,382,1,4,1,"17cb109",18,1
"2017",1,1,551,6,6,1,"17cb109",19,1
"2121",1,1,466,1,1,1,"17cb109",20,1
"2219",1,1,505,4,4,1,"17cb109",21,1
"2317",1,1,497,5,5,1,"17cb109",22,1
"2417",0,1,531,1,5,1,"17cb109",23,1
"2517",1,1,1986,6,6,1,"17cb109",24,1
"2617",1,1,540,4,4,1,"17cb109",25,1
"2717",1,1,311,1,1,1,"17cb109",26,1
"2817",0,1,325,6,1,1,"17cb109",27,1
"2917",0,1,339,4,1,1,"17cb109",28,1
"3017",0,1,362,1,4,1,"17cb109",29,1
"3121",1,1,401,1,1,1,"17cb109",30,1
"3219",1,1,356,6,6,1,"17cb109",31,1
"3317",0,1,335,5,1,1,"17cb109",32,1
"3417",1,1,525,4,4,1,"17cb109",33,1
"3517",0,1,375,6,1,1,"17cb109",34,1
"3617",1,1,379,5,5,1,"17cb109",35,1
"3717",0,1,428,6,1,1,"17cb109",36,1
"3817",0,1,302,4,1,1,"17cb109",37,1
"3917",0,1,487,1,5,1,"17cb109",38,1
"4017",1,1,660,6,6,1,"17cb109",39,1
"4121",0,0,405,4,4,1,"17cb109",40,1
"4219",1,1,282,1,1,1,"17cb109",41,1
"4317",1,1,458,5,5,1,"17cb109",42,1
"4417",0,1,455,1,5,1,"17cb109",43,1
"4517",1,1,458,5,5,1,"17cb109",44,1
"4617",1,1,318,4,4,1,"17cb109",45,1
"4717",1,1,567,6,6,1,"17cb109",46,1
"4817",0,1,386,4,1,1,"17cb109",47,1
"4917",0,1,355,1,6,1,"17cb109",48,1
"5017",1,1,423,1,1,1,"17cb109",49,1
"5121",0,1,391,1,6,1,"17cb109",50,1
"5219",1,1,680,4,4,1,"17cb109",51,1
"5317",1,1,423,1,1,1,"17cb109",52,1
"5417",1,1,399,5,5,1,"17cb109",53,1
"5517",1,1,409,6,6,1,"17cb109",54,1
"5617",0,1,547,1,4,1,"17cb109",55,1
"5717",0,1,766,5,1,1,"17cb109",56,1
"5817",1,1,300,5,5,1,"17cb109",57,1
"5917",1,1,509,1,1,1,"17cb109",58,1
"6017",1,1,494,4,4,1,"17cb109",59,1
"6121",0,1,301,5,1,1,"17cb109",60,1
"6219",1,0,362,1,6,1,"17cb109",61,1
"6317",-1,-1,0,6,6,1,"17cb109",62,1
"6417",1,0,345,1,4,1,"17cb109",63,1
"6517",1,1,328,6,6,1,"17cb109",64,1
"6617",0,1,529,1,5,1,"17cb109",65,1
"6717",1,1,471,1,1,1,"17cb109",66,1
"6817",0,1,322,1,4,1,"17cb109",67,1
"6917",1,1,595,5,5,1,"17cb109",68,1
"7017",0,1,411,6,1,1,"17cb109",69,1
"7117",1,1,490,4,4,1,"17cb109",70,1
"2102",0,0,354,6,6,3,"15445fd",1,1
"3102",0,1,528,4,1,3,"15445fd",2,1
"4102",0,1,344,5,1,3,"15445fd",3,1
"5102",1,0,540,6,1,3,"15445fd",4,1
"6102",1,1,605,5,5,3,"15445fd",5,1
"728",1,1,304,1,1,3,"15445fd",6,1
"818",1,1,997,4,4,3,"15445fd",7,1
"918",0,1,332,1,4,3,"15445fd",8,1
"1018",0,0,493,6,6,3,"15445fd",9,1
"1118",1,1,246,1,1,3,"15445fd",10,1
"1218",0,1,333,1,6,3,"15445fd",11,1
"1318",0,0,338,5,5,3,"15445fd",12,1
"1418",0,1,291,5,1,3,"15445fd",13,1
"1518",1,1,419,4,4,3,"15445fd",14,1
"1618",0,0,368,5,5,3,"15445fd",15,1
"1718",0,1,329,4,1,3,"15445fd",16,1
"1818",1,0,358,1,6,3,"15445fd",17,1
"1918",1,1,798,1,1,3,"15445fd",18,1
"2018",0,1,337,1,5,3,"15445fd",19,1
"2122",0,0,329,6,6,3,"15445fd",20,1
"2220",0,0,319,4,4,3,"15445fd",21,1
"2318",1,1,307,5,5,3,"15445fd",22,1
"2418",0,0,317,4,4,3,"15445fd",23,1
"2518",0,1,312,4,1,3,"15445fd",24,1
"2618",0,1,338,1,6,3,"15445fd",25,1
"2718",0,0,342,6,6,3,"15445fd",26,1
"2818",0,1,390,1,5,3,"15445fd",27,1
"2918",1,1,332,1,1,3,"15445fd",28,1
"3018",0,0,352,1,1,3,"15445fd",29,1
"3122",0,1,352,5,1,3,"15445fd",30,1
"3220",0,1,396,1,6,3,"15445fd",31,1
"3318",1,1,299,6,6,3,"15445fd",32,1
"3418",1,1,318,4,4,3,"15445fd",33,1
"3518",0,1,331,4,1,3,"15445fd",34,1
"3618",0,0,451,5,5,3,"15445fd",35,1
"3718",1,1,477,1,1,3,"15445fd",36,1
"3818",0,1,689,6,1,3,"15445fd",37,1
"3918",1,1,447,6,6,3,"15445fd",38,1
"4018",1,1,427,5,5,3,"15445fd",39,1
"4122",0,1,866,1,4,3,"15445fd",40,1
"4220",1,1,410,4,4,3,"15445fd",41,1
"4318",0,1,490,5,1,3,"15445fd",42,1
"4418",1,1,997,5,5,3,"15445fd",43,1
"4518",1,1,290,6,6,3,"15445fd",44,1
"4618",0,1,393,4,1,3,"15445fd",45,1
"4718",1,1,582,1,1,3,"15445fd",46,1
"4818",1,1,1060,4,4,3,"15445fd",47,1
"4918",0,1,402,6,1,3,"15445fd",48,1
"5018",0,1,455,5,1,3,"15445fd",49,1
"5122",0,1,1226,6,1,3,"15445fd",50,1
"5220",0,1,748,5,1,3,"15445fd",51,1
"5318",1,1,428,6,6,3,"15445fd",52,1
"5418",0,1,304,4,1,3,"15445fd",53,1
"5518",1,1,314,5,5,3,"15445fd",54,1
"5618",1,1,752,4,4,3,"15445fd",55,1
"5718",1,1,498,1,1,3,"15445fd",56,1
"5818",1,1,392,4,4,3,"15445fd",57,1
"5918",1,1,345,6,6,3,"15445fd",58,1
"6018",1,1,315,1,1,3,"15445fd",59,1
"6122",1,1,399,5,5,3,"15445fd",60,1
"6220",0,1,268,1,6,3,"15445fd",61,1
"6318",0,1,441,4,1,3,"15445fd",62,1
"6418",0,1,389,5,1,3,"15445fd",63,1
"6518",1,1,344,6,6,3,"15445fd",64,1
"6618",0,1,322,6,1,3,"15445fd",65,1
"6718",0,1,310,1,4,3,"15445fd",66,1
"6818",1,1,332,4,4,3,"15445fd",67,1
"6918",1,1,416,1,1,3,"15445fd",68,1
"7018",1,1,397,5,5,3,"15445fd",69,1
"7118",0,1,841,5,1,3,"15445fd",70,1
"2103",0,0,744,6,6,1,"19dcb2d",1,1
"3103",0,1,829,1,6,1,"19dcb2d",2,1
"4103",1,1,393,1,1,1,"19dcb2d",3,1
"5103",0,0,300,5,5,1,"19dcb2d",4,1
"6103",0,1,467,4,1,1,"19dcb2d",5,1
"729",0,1,722,1,5,1,"19dcb2d",6,1
"819",1,1,598,4,4,1,"19dcb2d",7,1
"919",0,0,328,6,6,1,"19dcb2d",8,1
"1019",0,0,304,4,4,1,"19dcb2d",9,1
"1119",0,1,536,6,1,1,"19dcb2d",10,1
"1219",0,1,466,1,4,1,"19dcb2d",11,1
"1319",0,1,593,1,5,1,"19dcb2d",12,1
"1419",1,1,473,1,1,1,"19dcb2d",13,1
"1519",0,0,777,5,5,1,"19dcb2d",14,1
"1619",0,1,594,1,6,1,"19dcb2d",15,1
"1719",1,1,459,1,1,1,"19dcb2d",16,1
"1819",0,1,704,4,1,1,"19dcb2d",17,1
"1919",1,1,478,6,6,1,"19dcb2d",18,1
"2019",0,1,601,5,1,1,"19dcb2d",19,1
"2123",1,1,620,4,4,1,"19dcb2d",20,1
"2221",1,1,597,5,5,1,"19dcb2d",21,1
"2319",1,1,468,6,6,1,"19dcb2d",22,1
"2419",0,1,671,6,1,1,"19dcb2d",23,1
"2519",1,1,543,5,5,1,"19dcb2d",24,1
"2619",1,1,426,4,4,1,"19dcb2d",25,1
"2719",0,1,557,4,1,1,"19dcb2d",26,1
"2819",0,1,499,1,5,1,"19dcb2d",27,1
"2919",1,1,458,1,1,1,"19dcb2d",28,1
"3019",0,1,523,1,6,1,"19dcb2d",29,1
"3123",0,1,595,4,1,1,"19dcb2d",30,1
"3221",1,1,434,6,6,1,"19dcb2d",31,1
"3319",1,1,428,1,1,1,"19dcb2d",32,1
"3419",1,1,537,5,5,1,"19dcb2d",33,1
"3519",0,1,583,1,5,1,"19dcb2d",34,1
"3619",1,1,476,4,4,1,"19dcb2d",35,1
"3719",1,1,846,4,4,1,"19dcb2d",36,1
"3819",0,1,578,1,6,1,"19dcb2d",37,1
"3919",1,1,523,5,5,1,"19dcb2d",38,1
"4019",1,1,589,1,1,1,"19dcb2d",39,1
"4123",1,1,580,6,6,1,"19dcb2d",40,1
"4221",0,1,592,4,1,1,"19dcb2d",41,1
"4319",0,1,593,1,5,1,"19dcb2d",42,1
"4419",0,1,401,1,5,1,"19dcb2d",43,1
"4519",1,1,498,1,1,1,"19dcb2d",44,1
"4619",1,1,394,6,6,1,"19dcb2d",45,1
"4719",1,1,643,4,4,1,"19dcb2d",46,1
"4819",0,1,476,1,6,1,"19dcb2d",47,1
"4919",1,1,465,5,5,1,"19dcb2d",48,1
"5019",0,1,373,4,1,1,"19dcb2d",49,1
"5123",1,1,536,4,4,1,"19dcb2d",50,1
"5221",1,1,472,6,6,1,"19dcb2d",51,1
"5319",0,1,479,6,1,1,"19dcb2d",52,1
"5419",1,1,518,5,5,1,"19dcb2d",53,1
"5519",0,1,401,4,1,1,"19dcb2d",54,1
"5619",1,1,645,1,1,1,"19dcb2d",55,1
"5719",0,1,405,1,5,1,"19dcb2d",56,1
"5819",1,1,527,6,6,1,"19dcb2d",57,1
"5919",1,1,436,1,1,1,"19dcb2d",58,1
"6019",0,1,572,1,6,1,"19dcb2d",59,1
"6123",0,1,423,1,4,1,"19dcb2d",60,1
"6221",0,1,566,5,1,1,"19dcb2d",61,1
"6319",1,1,399,4,4,1,"19dcb2d",62,1
"6419",1,1,452,5,5,1,"19dcb2d",63,1
"6519",0,1,476,5,1,1,"19dcb2d",64,1
"6619",1,1,410,4,4,1,"19dcb2d",65,1
"6719",0,1,527,6,1,1,"19dcb2d",66,1
"6819",1,1,657,5,5,1,"19dcb2d",67,1
"6919",1,1,506,6,6,1,"19dcb2d",68,1
"7019",1,1,395,1,1,1,"19dcb2d",69,1
"7119",0,1,413,4,1,1,"19dcb2d",70,1
"2104",-1,-1,0,1,4,2,"1e53dbe",1,1
"3104",-1,0,439,1,6,2,"1e53dbe",2,1
"4104",-1,0,389,1,5,2,"1e53dbe",3,1
"5104",-1,0,655,1,1,2,"1e53dbe",4,1
"6104",-1,0,379,6,6,2,"1e53dbe",5,1
"730",-1,0,338,4,4,2,"1e53dbe",6,1
"820",-1,0,392,5,5,2,"1e53dbe",7,1
"920",-1,0,292,6,6,2,"1e53dbe",8,1
"1020",-1,0,567,4,4,2,"1e53dbe",9,1
"1120",-1,0,338,1,1,2,"1e53dbe",10,1
"1220",-1,0,1942,1,5,2,"1e53dbe",11,1
"1320",-1,0,304,1,6,2,"1e53dbe",12,1
"1420",-1,0,1953,4,1,2,"1e53dbe",13,1
"1520",-1,0,362,5,5,2,"1e53dbe",14,1
"1620",-1,0,323,1,1,2,"1e53dbe",15,1
"1720",-1,0,394,6,6,2,"1e53dbe",16,1
"1820",-1,0,1164,4,4,2,"1e53dbe",17,1
"1920",-1,0,367,1,5,2,"1e53dbe",18,1
"2020",-1,0,729,6,1,2,"1e53dbe",19,1
"2124",-1,0,70,5,5,2,"1e53dbe",20,1
"2222",-1,0,595,4,1,2,"1e53dbe",21,1
"2320",-1,0,420,5,5,2,"1e53dbe",22,1
"2420",-1,-1,0,4,4,2,"1e53dbe",23,1
"2520",-1,-1,0,6,1,2,"1e53dbe",24,1
"2620",-1,0,408,1,1,2,"1e53dbe",25,1
"2720",-1,0,372,1,4,2,"1e53dbe",26,1
"2820",-1,0,1432,6,6,2,"1e53dbe",27,1
"2920",-1,0,1493,5,1,2,"1e53dbe",28,1
"3020",-1,-1,0,1,4,2,"1e53dbe",29,1
"3124",-1,0,872,1,1,2,"1e53dbe",30,1
"3222",-1,0,1022,6,6,2,"1e53dbe",31,1
"3320",-1,0,645,6,1,2,"1e53dbe",32,1
"3420",-1,0,351,5,1,2,"1e53dbe",33,1
"3520",-1,0,244,4,4,2,"1e53dbe",34,1
"3620",-1,0,1004,5,5,2,"1e53dbe",35,1
"3720",-1,0,606,1,6,2,"1e53dbe",36,1
"3820",-1,0,534,1,5,2,"1e53dbe",37,1
"3920",-1,0,1560,1,1,2,"1e53dbe",38,1
"4020",-1,0,1072,6,6,2,"1e53dbe",39,1
"4124",-1,0,515,4,4,2,"1e53dbe",40,1
"4222",-1,0,986,5,5,2,"1e53dbe",41,1
"4320",-1,-1,0,4,1,2,"1e53dbe",42,1
"4420",-1,-1,0,5,5,2,"1e53dbe",43,1
"4520",-1,0,496,1,4,2,"1e53dbe",44,1
"4620",-1,0,219,1,6,2,"1e53dbe",45,1
"4720",-1,0,146,1,1,2,"1e53dbe",46,1
"4820",-1,0,265,6,6,2,"1e53dbe",47,1
"4920",-1,0,1035,4,4,2,"1e53dbe",48,1
"5020",-1,0,322,1,5,2,"1e53dbe",49,1
"5124",-1,0,358,4,1,2,"1e53dbe",50,1
"5222",-1,0,160,4,4,2,"1e53dbe",51,1
"5320",-1,0,406,1,1,2,"1e53dbe",52,1
"5420",-1,-1,0,5,1,2,"1e53dbe",53,1
"5520",-1,0,356,5,5,2,"1e53dbe",54,1
"5620",-1,0,302,6,1,2,"1e53dbe",55,1
"5720",-1,0,410,6,6,2,"1e53dbe",56,1
"5820",-1,0,1276,1,1,2,"1e53dbe",57,1
"5920",-1,0,191,5,5,2,"1e53dbe",58,1
"6020",-1,0,142,4,1,2,"1e53dbe",59,1
"6124",-1,0,1845,6,6,2,"1e53dbe",60,1
"6222",-1,0,327,6,1,2,"1e53dbe",61,1
"6320",-1,0,1367,4,4,2,"1e53dbe",62,1
"6420",-1,0,137,5,1,2,"1e53dbe",63,1
"6520",-1,0,340,6,6,2,"1e53dbe",64,1
"6620",-1,0,223,4,4,2,"1e53dbe",65,1
"6720",-1,0,284,5,5,2,"1e53dbe",66,1
"6820",-1,0,748,1,4,2,"1e53dbe",67,1
"6920",-1,0,1428,1,6,2,"1e53dbe",68,1
"7020",-1,0,1494,1,5,2,"1e53dbe",69,1
"7120",-1,0,1045,1,1,2,"1e53dbe",70,1
"2105",1,1,585,1,1,1,"1270631",1,1
"3105",1,1,1178,6,6,1,"1270631",2,1
"4105",1,1,457,4,4,1,"1270631",3,1
"5105",1,0,652,1,6,1,"1270631",4,1
"6105",1,1,326,5,5,1,"1270631",5,1
"731",0,1,251,1,4,1,"1270631",6,1
"821",0,1,291,1,5,1,"1270631",7,1
"921",0,1,477,1,5,1,"1270631",8,1
"1021",0,1,295,1,6,1,"1270631",9,1
"1121",1,1,279,6,6,1,"1270631",10,1
"1221",1,1,292,4,4,1,"1270631",11,1
"1321",1,1,631,5,5,1,"1270631",12,1
"1421",0,1,248,1,4,1,"1270631",13,1
"1521",1,1,519,1,1,1,"1270631",14,1
"1621",0,1,302,4,1,1,"1270631",15,1
"1721",1,1,391,4,4,1,"1270631",16,1
"1821",1,1,460,6,6,1,"1270631",17,1
"1921",1,1,487,5,5,1,"1270631",18,1
"2021",1,1,426,1,1,1,"1270631",19,1
"2125",0,1,388,1,6,1,"1270631",20,1
"2223",0,1,370,5,1,1,"1270631",21,1
"2321",1,1,314,1,1,1,"1270631",22,1
"2421",1,1,450,4,4,1,"1270631",23,1
"2521",0,1,412,5,1,1,"1270631",24,1
"2621",0,1,350,6,1,1,"1270631",25,1
"2721",0,1,181,1,4,1,"1270631",26,1
"2821",1,1,237,5,5,1,"1270631",27,1
"2921",1,1,412,6,6,1,"1270631",28,1
"3021",1,1,415,5,5,1,"1270631",29,1
"3125",1,1,422,6,6,1,"1270631",30,1
"3223",0,1,391,5,1,1,"1270631",31,1
"3321",0,1,304,1,4,1,"1270631",32,1
"3421",1,1,256,1,1,1,"1270631",33,1
"3521",0,1,289,6,1,1,"1270631",34,1
"3621",1,1,394,4,4,1,"1270631",35,1
"3721",1,1,332,6,6,1,"1270631",36,1
"3821",0,1,284,1,5,1,"1270631",37,1
"3921",1,1,471,4,4,1,"1270631",38,1
"4021",0,1,269,4,1,1,"1270631",39,1
"4125",1,1,412,1,1,1,"1270631",40,1
"4223",0,1,397,6,1,1,"1270631",41,1
"4321",1,1,333,5,5,1,"1270631",42,1
"4421",0,1,871,1,5,1,"1270631",43,1
"4521",1,1,234,4,4,1,"1270631",44,1
"4621",1,1,239,6,6,1,"1270631",45,1
"4721",1,1,308,1,1,1,"1270631",46,1
"4821",0,1,286,1,6,1,"1270631",47,1
"4921",0,1,269,1,4,1,"1270631",48,1
"5021",1,1,292,5,5,1,"1270631",49,1
"5125",0,1,356,4,1,1,"1270631",50,1
"5223",0,1,397,1,5,1,"1270631",51,1
"5321",1,1,268,5,5,1,"1270631",52,1
"5421",1,1,397,4,4,1,"1270631",53,1
"5521",0,1,356,6,1,1,"1270631",54,1
"5621",1,1,284,1,1,1,"1270631",55,1
"5721",1,1,262,6,6,1,"1270631",56,1
"5821",1,1,447,6,6,1,"1270631",57,1
"5921",1,1,614,5,5,1,"1270631",58,1
"6021",1,1,432,4,4,1,"1270631",59,1
"6125",1,1,250,1,1,1,"1270631",60,1
"6223",0,1,281,6,1,1,"1270631",61,1
"6321",0,1,358,1,5,1,"1270631",62,1
"6421",0,1,383,4,1,1,"1270631",63,1
"6521",1,1,150,5,5,1,"1270631",64,1
"6621",1,1,414,6,6,1,"1270631",65,1
"6721",1,1,271,1,1,1,"1270631",66,1
"6821",0,1,284,1,4,1,"1270631",67,1
"6921",1,1,327,4,4,1,"1270631",68,1
"7021",0,1,527,5,1,1,"1270631",69,1
"7121",0,1,263,6,1,1,"1270631",70,1
"2106",1,0,882,5,1,3,"1c7400f",1,1
"3106",1,0,715,6,1,3,"1c7400f",2,1
"4106",1,1,343,1,1,3,"1c7400f",3,1
"5106",0,0,539,6,6,3,"1c7400f",4,1
"6106",0,1,448,1,4,3,"1c7400f",5,1
"732",1,1,1141,5,5,3,"1c7400f",6,1
"822",0,0,360,4,4,3,"1c7400f",7,1
"922",0,1,434,5,1,3,"1c7400f",8,1
"1022",1,0,545,1,6,3,"1c7400f",9,1
"1122",1,1,466,6,6,3,"1c7400f",10,1
"1222",1,1,533,5,5,3,"1c7400f",11,1
"1322",1,1,650,1,1,3,"1c7400f",12,1
"1422",0,1,448,1,4,3,"1c7400f",13,1
"1522",1,1,1828,4,4,3,"1c7400f",14,1
"1622",0,1,682,1,6,3,"1c7400f",15,1
"1722",1,1,452,4,4,3,"1c7400f",16,1
"1822",1,1,1668,1,1,3,"1c7400f",17,1
"1922",0,1,379,1,5,3,"1c7400f",18,1
"2022",1,1,453,5,5,3,"1c7400f",19,1
"2126",0,1,452,1,4,3,"1c7400f",20,1
"2224",0,0,624,6,6,3,"1c7400f",21,1
"2322",1,1,1451,5,5,3,"1c7400f",22,1
"2422",1,1,629,1,1,3,"1c7400f",23,1
"2522",0,1,609,1,6,3,"1c7400f",24,1
"2622",0,1,656,5,1,3,"1c7400f",25,1
"2722",0,1,464,1,4,3,"1c7400f",26,1
"2822",1,1,475,4,4,3,"1c7400f",27,1
"2922",1,1,968,6,6,3,"1c7400f",28,1
"3022",0,1,613,1,4,3,"1c7400f",29,1
"3126",1,1,477,6,6,3,"1c7400f",30,1
"3224",1,1,194,5,5,3,"1c7400f",31,1
"3322",1,1,541,4,4,3,"1c7400f",32,1
"3422",0,1,992,6,1,3,"1c7400f",33,1
"3522",1,1,743,1,1,3,"1c7400f",34,1
"3622",0,1,869,5,1,3,"1c7400f",35,1
"3722",1,1,412,1,1,3,"1c7400f",36,1
"3822",1,1,433,4,4,3,"1c7400f",37,1
"3922",0,1,828,1,6,3,"1c7400f",38,1
"4022",1,0,340,4,1,3,"1c7400f",39,1
"4126",1,1,397,6,6,3,"1c7400f",40,1
"4224",0,1,505,1,5,3,"1c7400f",41,1
"4322",1,1,939,5,5,3,"1c7400f",42,1
"4422",1,1,1557,4,4,3,"1c7400f",43,1
"4522",0,0,335,6,6,3,"1c7400f",44,1
"4622",0,1,1722,1,6,3,"1c7400f",45,1
"4722",1,1,571,1,1,3,"1c7400f",46,1
"4822",-1,-1,0,1,4,3,"1c7400f",47,1
"4922",0,1,580,5,1,3,"1c7400f",48,1
"5022",1,1,507,5,5,3,"1c7400f",49,1
"5126",1,0,468,1,4,3,"1c7400f",50,1
"5224",1,1,612,1,1,3,"1c7400f",51,1
"5322",1,1,471,6,6,3,"1c7400f",52,1
"5422",0,1,514,6,1,3,"1c7400f",53,1
"5522",0,1,546,1,5,3,"1c7400f",54,1
"5622",1,1,434,4,4,3,"1c7400f",55,1
"5722",1,1,363,5,5,3,"1c7400f",56,1
"5822",1,1,539,5,5,3,"1c7400f",57,1
"5922",0,1,642,5,1,3,"1c7400f",58,1
"6022",1,1,520,6,6,3,"1c7400f",59,1
"6126",0,1,410,4,1,3,"1c7400f",60,1
"6224",0,1,561,6,1,3,"1c7400f",61,1
"6322",1,1,558,4,4,3,"1c7400f",62,1
"6422",1,1,512,1,1,3,"1c7400f",63,1
"6522",1,1,608,6,6,3,"1c7400f",64,1
"6622",1,1,563,1,1,3,"1c7400f",65,1
"6722",1,1,612,4,4,3,"1c7400f",66,1
"6822",1,1,398,5,5,3,"1c7400f",67,1
"6922",0,1,647,1,4,3,"1c7400f",68,1
"7022",0,1,523,1,6,3,"1c7400f",69,1
"7122",0,1,602,1,5,3,"1c7400f",70,1
"2107",1,1,778,4,4,1,"14685da",1,1
"3107",0,1,588,6,1,1,"14685da",2,1
"4107",0,1,592,1,5,1,"14685da",3,1
"5107",0,0,476,6,6,1,"14685da",4,1
"6107",0,0,509,1,1,1,"14685da",5,1
"733",0,0,564,5,5,1,"14685da",6,1
"823",1,0,463,1,4,1,"14685da",7,1
"923",0,0,462,5,5,1,"14685da",8,1
"1023",0,1,463,6,1,1,"14685da",9,1
"1123",1,1,508,4,4,1,"14685da",10,1
"1223",0,1,576,1,5,1,"14685da",11,1
"1323",0,0,958,1,1,1,"14685da",12,1
"1423",1,0,429,1,4,1,"14685da",13,1
"1523",0,0,328,6,6,1,"14685da",14,1
"1623",0,0,440,6,6,1,"14685da",15,1
"1723",1,1,602,5,5,1,"14685da",16,1
"1823",1,1,380,1,1,1,"14685da",17,1
"1923",1,1,394,4,4,1,"14685da",18,1
"2023",0,1,1386,6,1,1,"14685da",19,1
"2127",0,1,500,5,1,1,"14685da",20,1
"2225",0,1,987,4,1,1,"14685da",21,1
"2323",0,1,942,4,1,1,"14685da",22,1
"2423",1,1,437,1,1,1,"14685da",23,1
"2523",1,1,529,5,5,1,"14685da",24,1
"2623",1,1,560,6,6,1,"14685da",25,1
"2723",0,1,492,5,1,1,"14685da",26,1
"2823",1,1,408,4,4,1,"14685da",27,1
"2923",0,1,452,6,1,1,"14685da",28,1
"3023",1,1,348,4,4,1,"14685da",29,1
"3127",1,1,458,1,1,1,"14685da",30,1
"3225",0,0,671,6,6,1,"14685da",31,1
"3323",-1,-1,0,5,5,1,"14685da",32,1
"3423",0,1,431,4,1,1,"14685da",33,1
"3523",0,1,781,1,6,1,"14685da",34,1
"3623",0,1,569,1,5,1,"14685da",35,1
"3723",1,1,89,1,1,1,"14685da",36,1
"3823",1,0,813,1,6,1,"14685da",37,1
"3923",0,0,422,6,6,1,"14685da",38,1
"4023",1,1,515,5,5,1,"14685da",39,1
"4127",0,0,410,4,4,1,"14685da",40,1
"4225",0,1,292,5,1,1,"14685da",41,1
"4323",0,1,309,4,1,1,"14685da",42,1
"4423",1,1,359,4,4,1,"14685da",43,1
"4523",1,0,358,4,1,1,"14685da",44,1
"4623",0,1,425,5,1,1,"14685da",45,1
"4723",0,0,270,5,5,1,"14685da",46,1
"4823",1,1,437,1,1,1,"14685da",47,1
"4923",1,1,328,6,6,1,"14685da",48,1
"5023",0,1,689,6,1,1,"14685da",49,1
"5127",0,0,502,5,5,1,"14685da",50,1
"5225",1,1,493,4,4,1,"14685da",51,1
"5323",0,1,1171,1,6,1,"14685da",52,1
"5423",-1,-1,0,6,6,1,"14685da",53,1
"5523",0,1,330,1,5,1,"14685da",54,1
"5623",1,1,1110,1,1,1,"14685da",55,1
"5723",1,0,649,1,4,1,"14685da",56,1
"5823",1,1,905,4,4,1,"14685da",57,1
"5923",1,1,384,6,6,1,"14685da",58,1
"6023",0,1,414,1,4,1,"14685da",59,1
"6127",1,1,563,5,5,1,"14685da",60,1
"6225",0,1,871,1,5,1,"14685da",61,1
"6323",1,1,440,1,1,1,"14685da",62,1
"6423",0,1,440,6,1,1,"14685da",63,1
"6523",0,1,731,5,1,1,"14685da",64,1
"6623",1,1,551,6,6,1,"14685da",65,1
"6723",1,1,624,4,4,1,"14685da",66,1
"6823",0,1,433,1,4,1,"14685da",67,1
"6923",1,1,908,1,1,1,"14685da",68,1
"7023",0,1,461,6,1,1,"14685da",69,1
"7123",1,1,533,5,5,1,"14685da",70,1
"2108",1,1,864,6,6,2,"1308d4a",1,1
"3108",1,0,453,1,6,2,"1308d4a",2,1
"4108",-1,-1,0,5,5,2,"1308d4a",3,1
"5108",1,0,477,1,4,2,"1308d4a",4,1
"6108",1,1,309,1,1,2,"1308d4a",5,1
"734",0,1,425,1,5,2,"1308d4a",6,1
"824",1,1,522,4,4,2,"1308d4a",7,1
"924",0,1,453,5,1,2,"1308d4a",8,1
"1024",0,1,431,1,6,2,"1308d4a",9,1
"1124",1,1,555,6,6,2,"1308d4a",10,1
"1224",0,1,340,1,4,2,"1308d4a",11,1
"1324",1,1,463,4,4,2,"1308d4a",12,1
"1424",1,1,572,5,5,2,"1308d4a",13,1
"1524",1,1,487,1,1,2,"1308d4a",14,1
"1624",1,1,437,4,4,2,"1308d4a",15,1
"1724",0,1,572,5,1,2,"1308d4a",16,1
"1824",0,1,552,1,6,2,"1308d4a",17,1
"1924",1,1,528,6,6,2,"1308d4a",18,1
"2024",1,1,292,1,1,2,"1308d4a",19,1
"2128",1,1,388,5,5,2,"1308d4a",20,1
"2226",0,1,423,1,4,2,"1308d4a",21,1
"2324",0,0,399,4,4,2,"1308d4a",22,1
"2424",1,1,395,1,1,2,"1308d4a",23,1
"2524",0,1,390,1,4,2,"1308d4a",24,1
"2624",1,1,346,5,5,2,"1308d4a",25,1
"2724",0,1,677,1,6,2,"1308d4a",26,1
"2824",1,1,492,6,6,2,"1308d4a",27,1
"2924",0,1,369,5,1,2,"1308d4a",28,1
"3024",1,1,272,4,4,2,"1308d4a",29,1
"3128",0,1,322,1,6,2,"1308d4a",30,1
"3226",1,1,304,6,6,2,"1308d4a",31,1
"3324",0,1,353,1,4,2,"1308d4a",32,1
"3424",0,1,257,1,5,2,"1308d4a",33,1
"3524",1,1,113,5,5,2,"1308d4a",34,1
"3624",1,1,492,1,1,2,"1308d4a",35,1
"3724",1,1,456,5,5,2,"1308d4a",36,1
"3824",0,1,540,5,1,2,"1308d4a",37,1
"3924",1,1,450,1,1,2,"1308d4a",38,1
"4024",0,1,332,4,1,2,"1308d4a",39,1
"4128",1,1,387,4,4,2,"1308d4a",40,1
"4226",1,1,384,6,6,2,"1308d4a",41,1
"4324",0,1,494,6,1,2,"1308d4a",42,1
"4424",1,1,377,1,1,2,"1308d4a",43,1
"4524",0,1,359,1,5,2,"1308d4a",44,1
"4624",1,1,428,4,4,2,"1308d4a",45,1
"4724",0,1,402,1,4,2,"1308d4a",46,1
"4824",1,1,472,5,5,2,"1308d4a",47,1
"4924",1,1,382,6,6,2,"1308d4a",48,1
"5024",0,1,431,6,1,2,"1308d4a",49,1
"5128",1,1,334,4,4,2,"1308d4a",50,1
"5226",1,1,418,5,5,2,"1308d4a",51,1
"5324",0,1,396,4,1,2,"1308d4a",52,1
"5424",1,1,384,6,6,2,"1308d4a",53,1
"5524",0,1,377,5,1,2,"1308d4a",54,1
"5624",1,1,408,1,1,2,"1308d4a",55,1
"5724",0,1,365,6,1,2,"1308d4a",56,1
"5824",0,1,385,4,1,2,"1308d4a",57,1
"5924",1,1,344,5,5,2,"1308d4a",58,1
"6024",0,1,398,1,5,2,"1308d4a",59,1
"6128",1,1,393,1,1,2,"1308d4a",60,1
"6226",0,1,394,6,1,2,"1308d4a",61,1
"6324",1,1,58,6,6,2,"1308d4a",62,1
"6424",1,1,395,4,4,2,"1308d4a",63,1
"6524",1,1,392,4,4,2,"1308d4a",64,1
"6624",0,1,426,6,1,2,"1308d4a",65,1
"6724",1,1,418,6,6,2,"1308d4a",66,1
"6824",1,1,319,1,1,2,"1308d4a",67,1
"6924",1,1,402,5,5,2,"1308d4a",68,1
"7024",0,1,366,1,4,2,"1308d4a",69,1
"7124",0,1,466,1,5,2,"1308d4a",70,1
"2109",1,0,705,1,4,2,"1a83df5",1,1
"3109",1,1,276,5,5,2,"1a83df5",2,1
"4109",1,1,330,6,6,2,"1a83df5",3,1
"5109",1,0,285,5,1,2,"1a83df5",4,1
"6109",1,1,294,4,4,2,"1a83df5",5,1
"735",0,1,345,6,1,2,"1a83df5",6,1
"825",0,0,267,1,1,2,"1a83df5",7,1
"925",0,1,304,6,1,2,"1a83df5",8,1
"1025",0,1,270,1,4,2,"1a83df5",9,1
"1125",1,1,43,5,5,2,"1a83df5",10,1
"1225",1,1,251,4,4,2,"1a83df5",11,1
"1325",0,0,152,6,6,2,"1a83df5",12,1
"1425",1,1,302,1,1,2,"1a83df5",13,1
"1525",0,1,292,5,1,2,"1a83df5",14,1
"1625",1,0,6,1,5,2,"1a83df5",15,1
"1725",0,0,401,6,6,2,"1a83df5",16,1
"1825",0,0,262,5,5,2,"1a83df5",17,1
"1925",1,0,219,4,1,2,"1a83df5",18,1
"2025",0,0,275,4,4,2,"1a83df5",19,1
"2129",0,1,1377,1,6,2,"1a83df5",20,1
"2227",1,1,55,1,1,2,"1a83df5",21,1
"2325",1,1,296,1,1,2,"1a83df5",22,1
"2425",0,0,234,5,5,2,"1a83df5",23,1
"2525",0,0,290,4,4,2,"1a83df5",24,1
"2625",0,1,283,5,1,2,"1a83df5",25,1
"2725",1,0,777,4,1,2,"1a83df5",26,1
"2825",0,0,307,6,6,2,"1a83df5",27,1
"2925",0,1,264,6,1,2,"1a83df5",28,1
"3025",1,1,270,6,6,2,"1a83df5",29,1
"3129",1,1,247,4,4,2,"1a83df5",30,1
"3227",1,1,218,1,1,2,"1a83df5",31,1
"3325",0,1,268,1,4,2,"1a83df5",32,1
"3425",0,1,821,6,1,2,"1a83df5",33,1
"3525",0,1,317,1,5,2,"1a83df5",34,1
"3625",1,1,254,5,5,2,"1a83df5",35,1
"3725",1,1,289,4,4,2,"1a83df5",36,1
"3825",0,1,334,4,1,2,"1a83df5",37,1
"3925",1,1,294,5,5,2,"1a83df5",38,1
"4025",1,1,223,6,6,2,"1a83df5",39,1
"4129",0,1,287,6,1,2,"1a83df5",40,1
"4227",0,1,307,5,1,2,"1a83df5",41,1
"4325",1,1,216,1,1,2,"1a83df5",42,1
"4425",0,1,257,5,1,2,"1a83df5",43,1
"4525",1,1,312,4,4,2,"1a83df5",44,1
"4625",1,1,438,6,6,2,"1a83df5",45,1
"4725",0,1,229,6,1,2,"1a83df5",46,1
"4825",0,1,230,1,4,2,"1a83df5",47,1
"4925",1,1,241,1,1,2,"1a83df5",48,1
"5025",1,1,257,5,5,2,"1a83df5",49,1
"5129",1,1,300,4,4,2,"1a83df5",50,1
"5227",1,1,252,1,1,2,"1a83df5",51,1
"5325",1,1,347,6,6,2,"1a83df5",52,1
"5425",0,1,267,5,1,2,"1a83df5",53,1
"5525",0,1,262,6,1,2,"1a83df5",54,1
"5625",0,1,195,4,1,2,"1a83df5",55,1
"5725",1,1,540,5,5,2,"1a83df5",56,1
"5825",0,1,192,4,1,2,"1a83df5",57,1
"5925",0,1,280,1,5,2,"1a83df5",58,1
"6025",0,1,523,6,1,2,"1a83df5",59,1
"6129",1,1,140,5,5,2,"1a83df5",60,1
"6227",1,1,355,1,1,2,"1a83df5",61,1
"6325",1,1,554,6,6,2,"1a83df5",62,1
"6425",1,1,427,4,4,2,"1a83df5",63,1
"6525",0,1,414,6,1,2,"1a83df5",64,1
"6625",1,1,305,1,1,2,"1a83df5",65,1
"6725",1,1,837,4,4,2,"1a83df5",66,1
"6825",0,1,380,4,1,2,"1a83df5",67,1
"6925",0,1,355,1,5,2,"1a83df5",68,1
"7025",1,1,276,6,6,2,"1a83df5",69,1
"7125",1,1,174,5,5,2,"1a83df5",70,1
"2130",1,1,577,5,5,1,"18f528d",1,1
"3130",1,1,264,4,4,1,"18f528d",2,1
"4130",1,0,340,6,1,1,"18f528d",3,1
"5130",0,0,240,1,1,1,"18f528d",4,1
"6130",0,0,229,6,6,1,"18f528d",5,1
"736",1,0,234,1,5,1,"18f528d",6,1
"826",0,1,199,4,1,1,"18f528d",7,1
"926",1,1,237,5,5,1,"18f528d",8,1
"1026",1,0,236,1,4,1,"18f528d",9,1
"1126",0,1,245,5,1,1,"18f528d",10,1
"1226",0,1,279,1,6,1,"18f528d",11,1
"1326",0,0,244,4,4,1,"18f528d",12,1
"1426",1,1,119,1,1,1,"18f528d",13,1
"1526",0,0,371,6,6,1,"18f528d",14,1
"1626",0,1,189,6,1,1,"18f528d",15,1
"1726",1,1,405,6,6,1,"18f528d",16,1
"1826",1,1,271,4,4,1,"18f528d",17,1
"1926",0,0,208,1,1,1,"18f528d",18,1
"2026",0,1,482,4,1,1,"18f528d",19,1
"2131",0,0,83,5,5,1,"18f528d",20,1
"2228",0,1,168,1,5,1,"18f528d",21,1
"2326",0,1,411,1,5,1,"18f528d",22,1
"2426",0,1,376,4,1,1,"18f528d",23,1
"2526",1,1,427,4,4,1,"18f528d",24,1
"2626",1,1,304,6,6,1,"18f528d",25,1
"2726",0,1,258,6,1,1,"18f528d",26,1
"2826",1,1,27,5,5,1,"18f528d",27,1
"2926",1,1,216,1,1,1,"18f528d",28,1
"3026",1,1,312,1,1,1,"18f528d",29,1
"3131",1,1,354,4,4,1,"18f528d",30,1
"3228",1,1,447,5,5,1,"18f528d",31,1
"3326",0,1,384,6,1,1,"18f528d",32,1
"3426",0,1,359,1,5,1,"18f528d",33,1
"3526",1,0,203,1,4,1,"18f528d",34,1
"3626",1,1,266,6,6,1,"18f528d",35,1
"3726",1,1,365,5,5,1,"18f528d",36,1
"3826",1,1,263,1,1,1,"18f528d",37,1
"3926",0,1,319,1,4,1,"18f528d",38,1
"4026",1,1,18,4,4,1,"18f528d",39,1
"4131",0,1,415,1,5,1,"18f528d",40,1
"4228",1,1,285,6,6,1,"18f528d",41,1
"4326",0,1,156,6,1,1,"18f528d",42,1
"4426",1,1,233,1,1,1,"18f528d",43,1
"4526",0,1,332,1,4,1,"18f528d",44,1
"4626",1,1,229,5,5,1,"18f528d",45,1
"4726",1,1,291,6,6,1,"18f528d",46,1
"4826",0,1,238,1,6,1,"18f528d",47,1
"4926",0,1,242,1,5,1,"18f528d",48,1
"5026",1,1,253,4,4,1,"18f528d",49,1
"5131",1,1,233,1,1,1,"18f528d",50,1
"5228",1,0,114,1,4,1,"18f528d",51,1
"5326",1,1,321,6,6,1,"18f528d",52,1
"5426",0,1,195,1,5,1,"18f528d",53,1
"5526",0,1,247,1,6,1,"18f528d",54,1
"5626",1,1,54,5,5,1,"18f528d",55,1
"5726",1,1,275,4,4,1,"18f528d",56,1
"5826",1,1,304,4,4,1,"18f528d",57,1
"5926",1,0,50,5,1,1,"18f528d",58,1
"6026",1,0,158,1,4,1,"18f528d",59,1
"6131",1,1,145,5,5,1,"18f528d",60,1
"6228",0,1,248,6,1,1,"18f528d",61,1
"6326",1,1,376,1,1,1,"18f528d",62,1
"6426",1,1,287,6,6,1,"18f528d",63,1
"6526",0,1,279,5,1,1,"18f528d",64,1
"6626",1,1,254,6,6,1,"18f528d",65,1
"6726",0,1,289,1,6,1,"18f528d",66,1
"6826",1,1,301,5,5,1,"18f528d",67,1
"6926",1,1,329,4,4,1,"18f528d",68,1
"7026",1,1,434,1,1,1,"18f528d",69,1
"7126",0,1,265,1,4,1,"18f528d",70,1
"2132",1,1,885,4,4,3,"13b3013",1,1
"3132",1,0,496,6,1,3,"13b3013",2,1
"4132",0,1,982,1,4,3,"13b3013",3,1
"5132",0,0,329,1,1,3,"13b3013",4,1
"6132",0,0,637,6,6,3,"13b3013",5,1
"737",1,0,350,1,5,3,"13b3013",6,1
"827",1,1,1030,5,5,3,"13b3013",7,1
"927",0,0,264,5,5,3,"13b3013",8,1
"1027",1,0,385,1,5,3,"13b3013",9,1
"1127",1,1,418,1,1,3,"13b3013",10,1
"1227",1,0,1169,4,1,3,"13b3013",11,1
"1327",1,1,1187,4,4,3,"13b3013",12,1
"1427",1,1,840,6,6,3,"13b3013",13,1
"1527",0,1,690,6,1,3,"13b3013",14,1
"1627",1,1,402,6,6,3,"13b3013",15,1
"1727",0,1,316,1,5,3,"13b3013",16,1
"1827",1,1,382,1,1,3,"13b3013",17,1
"1927",1,1,322,5,5,3,"13b3013",18,1
"2027",0,1,574,4,1,3,"13b3013",19,1
"2133",0,1,325,1,6,3,"13b3013",20,1
"2229",1,1,397,4,4,3,"13b3013",21,1
"2327",0,1,498,1,5,3,"13b3013",22,1
"2427",1,1,712,6,6,3,"13b3013",23,1
"2527",1,1,519,4,4,3,"13b3013",24,1
"2627",1,0,879,1,4,3,"13b3013",25,1
"2727",0,1,467,1,6,3,"13b3013",26,1
"2827",1,1,762,5,5,3,"13b3013",27,1
"2927",1,1,356,1,1,3,"13b3013",28,1
"3027",0,1,517,1,6,3,"13b3013",29,1
"3133",0,0,433,6,6,3,"13b3013",30,1
"3229",0,1,652,1,4,3,"13b3013",31,1
"3327",0,1,344,5,1,3,"13b3013",32,1
"3427",0,0,537,5,5,3,"13b3013",33,1
"3527",1,1,391,4,4,3,"13b3013",34,1
"3627",1,1,862,1,1,3,"13b3013",35,1
"3727",0,1,754,5,1,3,"13b3013",36,1
"3827",1,1,570,1,1,3,"13b3013",37,1
"3927",1,1,273,6,6,3,"13b3013",38,1
"4027",0,1,335,1,6,3,"13b3013",39,1
"4133",1,1,336,5,5,3,"13b3013",40,1
"4229",0,1,579,1,4,3,"13b3013",41,1
"4327",1,1,535,4,4,3,"13b3013",42,1
"4427",1,1,620,6,6,3,"13b3013",43,1
"4527",1,1,572,5,5,3,"13b3013",44,1
"4627",1,1,360,4,4,3,"13b3013",45,1
"4727",1,0,339,4,1,3,"13b3013",46,1
"4827",1,1,404,1,1,3,"13b3013",47,1
"4927",0,1,381,5,1,3,"13b3013",48,1
"5027",0,1,662,6,1,3,"13b3013",49,1
"5133",0,1,298,6,1,3,"13b3013",50,1
"5229",1,1,434,1,1,3,"13b3013",51,1
"5327",1,1,317,5,5,3,"13b3013",52,1
"5427",0,1,605,1,5,3,"13b3013",53,1
"5527",1,1,286,4,4,3,"13b3013",54,1
"5627",1,0,559,1,4,3,"13b3013",55,1
"5727",1,1,348,6,6,3,"13b3013",56,1
"5827",1,1,512,5,5,3,"13b3013",57,1
"5927",1,1,428,4,4,3,"13b3013",58,1
"6027",0,1,446,1,6,3,"13b3013",59,1
"6133",0,1,493,5,1,3,"13b3013",60,1
"6229",1,1,481,1,1,3,"13b3013",61,1
"6327",1,1,847,6,6,3,"13b3013",62,1
"6427",0,1,624,4,1,3,"13b3013",63,1
"6527",0,1,478,4,1,3,"13b3013",64,1
"6627",1,1,411,1,1,3,"13b3013",65,1
"6727",0,1,348,6,1,3,"13b3013",66,1
"6827",0,1,697,1,5,3,"13b3013",67,1
"6927",1,1,346,4,4,3,"13b3013",68,1
"7027",1,1,414,6,6,3,"13b3013",69,1
"7127",1,1,373,5,5,3,"13b3013",70,1
"2134",1,1,374,3,3,1,"11b072c",1,2
"3134",1,0,298,4,1,1,"11b072c",2,2
"4134",1,0,373,1,2,1,"11b072c",3,2
"5134",1,1,298,4,4,1,"11b072c",4,2
"6134",1,1,390,2,2,1,"11b072c",5,2
"738",1,0,511,3,1,1,"11b072c",6,2
"828",1,1,291,1,1,1,"11b072c",7,2
"928",1,1,429,4,4,1,"11b072c",8,2
"1028",0,1,331,4,1,1,"11b072c",9,2
"1128",0,0,322,3,3,1,"11b072c",10,2
"1228",0,1,301,3,1,1,"11b072c",11,2
"1328",0,0,552,1,1,1,"11b072c",12,2
"1428",1,1,370,2,2,1,"11b072c",13,2
"1528",0,1,264,1,2,1,"11b072c",14,2
"1628",1,1,497,1,1,1,"11b072c",15,2
"1728",1,1,623,3,3,1,"11b072c",16,2
"1828",1,0,410,2,1,1,"11b072c",17,2
"1928",0,1,447,4,1,1,"11b072c",18,2
"2028",1,1,383,4,4,1,"11b072c",19,2
"2135",0,1,314,3,1,1,"11b072c",20,2
"2230",1,1,400,2,2,1,"11b072c",21,2
"2328",0,1,326,1,4,1,"11b072c",22,2
"2428",1,1,992,3,3,1,"11b072c",23,2
"2528",1,1,393,2,2,1,"11b072c",24,2
"2628",0,1,472,2,1,1,"11b072c",25,2
"2728",1,1,308,4,4,1,"11b072c",26,2
"2828",1,1,507,1,1,1,"11b072c",27,2
"2928",0,1,322,3,1,1,"11b072c",28,2
"3028",0,1,403,1,2,1,"11b072c",29,2
"3135",1,1,439,4,4,1,"11b072c",30,2
"3230",0,1,386,3,1,1,"11b072c",31,2
"3328",1,1,395,1,1,1,"11b072c",32,2
"3428",1,1,302,3,3,1,"11b072c",33,2
"3528",0,1,425,4,1,1,"11b072c",34,2
"3628",1,1,286,2,2,1,"11b072c",35,2
"3728",1,1,246,3,3,1,"11b072c",36,2
"3828",1,1,294,2,2,1,"11b072c",37,2
"3928",-1,-1,0,2,1,1,"11b072c",38,2
"4028",1,0,701,1,3,1,"11b072c",39,2
"4135",0,1,426,1,4,1,"11b072c",40,2
"4230",0,0,299,4,4,1,"11b072c",41,2
"4328",1,1,247,1,1,1,"11b072c",42,2
"4428",1,1,462,2,2,1,"11b072c",43,2
"4528",1,0,719,1,2,1,"11b072c",44,2
"4628",0,1,286,1,4,1,"11b072c",45,2
"4728",0,0,331,1,1,1,"11b072c",46,2
"4828",1,1,365,3,3,1,"11b072c",47,2
"4928",1,0,596,3,1,1,"11b072c",48,2
"5028",0,0,341,4,4,1,"11b072c",49,2
"5135",1,1,358,1,1,1,"11b072c",50,2
"5230",0,0,1008,3,3,1,"11b072c",51,2
"5328",1,1,809,2,2,1,"11b072c",52,2
"5428",1,0,240,2,1,1,"11b072c",53,2
"5528",1,0,310,3,1,1,"11b072c",54,2
"5628",0,1,394,1,4,1,"11b072c",55,2
"5728",0,0,840,4,4,1,"11b072c",56,2
"5828",1,1,400,3,3,1,"11b072c",57,2
"5928",1,0,325,1,3,1,"11b072c",58,2
"6028",1,1,243,4,4,1,"11b072c",59,2
"6135",0,1,312,2,1,1,"11b072c",60,2
"6230",1,1,647,2,2,1,"11b072c",61,2
"6328",0,1,477,4,1,1,"11b072c",62,2
"6428",1,1,281,1,1,1,"11b072c",63,2
"6528",0,1,331,1,4,1,"11b072c",64,2
"6628",0,1,360,1,2,1,"11b072c",65,2
"6728",1,1,274,4,4,1,"11b072c",66,2
"6828",0,1,443,3,1,1,"11b072c",67,2
"6928",1,1,489,2,2,1,"11b072c",68,2
"7028",1,1,513,1,1,1,"11b072c",69,2
"7128",1,1,385,3,3,1,"11b072c",70,2
"7210",1,1,468,1,1,1,"11b072c",71,2
"739",1,1,905,3,3,1,"11b072c",72,2
"741",0,1,486,1,3,1,"11b072c",73,2
"751",0,1,203,1,4,1,"11b072c",74,2
"761",1,1,271,2,2,1,"11b072c",75,2
"771",1,1,763,4,4,1,"11b072c",76,2
"781",1,0,825,2,1,1,"11b072c",77,2
"791",1,1,290,1,1,1,"11b072c",78,2
"80",0,1,412,1,4,1,"11b072c",79,2
"8110",1,1,315,4,4,1,"11b072c",80,2
"829",1,1,442,2,2,1,"11b072c",81,2
"831",0,1,290,3,1,1,"11b072c",82,2
"841",0,1,340,1,2,1,"11b072c",83,2
"851",0,0,941,3,3,1,"11b072c",84,2
"861",0,1,369,1,3,1,"11b072c",85,2
"871",0,0,468,3,3,1,"11b072c",86,2
"881",0,1,302,4,1,1,"11b072c",87,2
"891",1,1,236,2,2,1,"11b072c",88,2
"90",1,1,332,1,1,1,"11b072c",89,2
"9110",1,0,372,1,2,1,"11b072c",90,2
"929",1,1,462,4,4,1,"11b072c",91,2
"931",0,1,394,3,1,1,"11b072c",92,2
"941",0,0,752,3,3,1,"11b072c",93,2
"951",1,1,1580,2,2,1,"11b072c",94,2
"961",1,1,329,4,4,1,"11b072c",95,2
"971",1,0,1468,2,1,1,"11b072c",96,2
"981",1,1,592,1,1,1,"11b072c",97,2
"991",0,1,644,1,4,1,"11b072c",98,2
"100",0,0,398,3,3,1,"11b072c",99,2
"10110",0,1,844,1,4,1,"11b072c",100,2
"1029",0,1,355,3,1,1,"11b072c",101,2
"1031",0,0,432,1,1,1,"11b072c",102,2
"1041",1,0,323,2,1,1,"11b072c",103,2
"1051",1,1,447,2,2,1,"11b072c",104,2
"1061",0,0,290,4,4,1,"11b072c",105,2
"2136",1,1,567,1,1,2,"ba23f83",1,2
"3136",1,1,293,3,3,2,"ba23f83",2,2
"4136",0,1,343,3,1,2,"ba23f83",3,2
"5136",0,1,351,4,1,2,"ba23f83",4,2
"6136",0,1,745,1,2,2,"ba23f83",5,2
"740",1,1,355,2,2,2,"ba23f83",6,2
"830",1,1,410,4,4,2,"ba23f83",7,2
"930",1,1,341,4,4,2,"ba23f83",8,2
"1030",-1,0,1009,1,4,2,"ba23f83",9,2
"1129",1,1,443,2,2,2,"ba23f83",10,2
"1229",1,1,326,3,3,2,"ba23f83",11,2
"1329",0,1,342,1,3,2,"ba23f83",12,2
"1429",1,1,252,1,1,2,"ba23f83",13,2
"1529",0,1,129,2,1,2,"ba23f83",14,2
"1629",0,1,424,2,1,2,"ba23f83",15,2
"1729",0,1,395,1,4,2,"ba23f83",16,2
"1829",1,1,326,3,3,2,"ba23f83",17,2
"1929",1,1,659,2,2,2,"ba23f83",18,2
"2029",1,1,274,4,4,2,"ba23f83",19,2
"2137",0,1,329,1,3,2,"ba23f83",20,2
"2231",1,1,403,1,1,2,"ba23f83",21,2
"2329",0,1,365,2,1,2,"ba23f83",22,2
"2429",1,1,334,1,1,2,"ba23f83",23,2
"2529",1,1,317,4,4,2,"ba23f83",24,2
"2629",0,1,350,3,1,2,"ba23f83",25,2
"2729",1,1,544,2,2,2,"ba23f83",26,2
"2829",1,1,270,3,3,2,"ba23f83",27,2
"2929",0,1,319,1,4,2,"ba23f83",28,2
"3029",0,1,468,1,2,2,"ba23f83",29,2
"3137",0,1,590,4,1,2,"ba23f83",30,2
"3231",0,1,524,1,3,2,"ba23f83",31,2
"3329",1,1,303,3,3,2,"ba23f83",32,2
"3429",1,1,1446,4,4,2,"ba23f83",33,2
"3529",1,1,475,1,1,2,"ba23f83",34,2
"3629",1,1,573,2,2,2,"ba23f83",35,2
"3729",1,1,451,1,1,2,"ba23f83",36,2
"3829",0,1,417,2,1,2,"ba23f83",37,2
"3929",0,1,343,4,1,2,"ba23f83",38,2
"4029",1,1,367,4,4,2,"ba23f83",39,2
"4137",1,1,300,3,3,2,"ba23f83",40,2
"4231",1,1,435,2,2,2,"ba23f83",41,2
"4329",0,1,251,1,3,2,"ba23f83",42,2
"4429",1,1,878,4,4,2,"ba23f83",43,2
"4529",0,1,491,1,2,2,"ba23f83",44,2
"4629",0,1,365,1,4,2,"ba23f83",45,2
"4729",0,1,416,1,3,2,"ba23f83",46,2
"4829",1,1,627,1,1,2,"ba23f83",47,2
"4929",1,1,326,2,2,2,"ba23f83",48,2
"5029",1,1,717,3,3,2,"ba23f83",49,2
"5137",0,1,293,1,4,2,"ba23f83",50,2
"5231",1,1,332,2,2,2,"ba23f83",51,2
"5329",0,1,365,1,2,2,"ba23f83",52,2
"5429",1,1,339,3,3,2,"ba23f83",53,2
"5529",0,1,459,3,1,2,"ba23f83",54,2
"5629",1,1,1445,4,4,2,"ba23f83",55,2
"5729",1,1,183,1,1,2,"ba23f83",56,2
"5829",1,1,501,2,2,2,"ba23f83",57,2
"5929",1,1,445,1,1,2,"ba23f83",58,2
"6029",1,1,730,3,3,2,"ba23f83",59,2
"6137",0,1,403,4,1,2,"ba23f83",60,2
"6231",0,1,1058,1,2,2,"ba23f83",61,2
"6329",1,1,435,4,4,2,"ba23f83",62,2
"6429",0,1,366,3,1,2,"ba23f83",63,2
"6529",0,1,389,1,2,2,"ba23f83",64,2
"6629",1,1,447,1,1,2,"ba23f83",65,2
"6729",1,1,414,2,2,2,"ba23f83",66,2
"6829",0,1,357,4,1,2,"ba23f83",67,2
"6929",1,1,378,4,4,2,"ba23f83",68,2
"7029",1,1,479,3,3,2,"ba23f83",69,2
"7129",0,1,627,3,1,2,"ba23f83",70,2
"7211",0,1,451,4,1,2,"ba23f83",71,2
"7310",1,1,388,2,2,2,"ba23f83",72,2
"742",0,1,342,1,2,2,"ba23f83",73,2
"752",0,1,321,1,3,2,"ba23f83",74,2
"762",1,1,497,3,3,2,"ba23f83",75,2
"772",1,1,717,1,1,2,"ba23f83",76,2
"782",1,1,580,4,4,2,"ba23f83",77,2
"792",0,1,218,2,1,2,"ba23f83",78,2
"801",1,1,159,3,3,2,"ba23f83",79,2
"8111",1,1,441,2,2,2,"ba23f83",80,2
"8210",0,1,318,1,4,2,"ba23f83",81,2
"832",1,1,531,4,4,2,"ba23f83",82,2
"842",1,1,576,1,1,2,"ba23f83",83,2
"852",0,1,371,1,3,2,"ba23f83",84,2
"862",1,1,460,3,3,2,"ba23f83",85,2
"872",1,1,289,2,2,2,"ba23f83",86,2
"882",1,1,83,1,1,2,"ba23f83",87,2
"892",0,1,606,4,1,2,"ba23f83",88,2
"901",0,1,132,2,1,2,"ba23f83",89,2
"9111",0,1,386,3,1,2,"ba23f83",90,2
"9210",1,1,369,4,4,2,"ba23f83",91,2
"932",1,1,442,1,1,2,"ba23f83",92,2
"942",1,1,601,2,2,2,"ba23f83",93,2
"952",0,1,1001,4,1,2,"ba23f83",94,2
"962",1,1,278,4,4,2,"ba23f83",95,2
"972",0,1,299,2,1,2,"ba23f83",96,2
"982",0,1,366,3,1,2,"ba23f83",97,2
"992",1,1,440,3,3,2,"ba23f83",98,2
"1001",0,1,296,3,1,2,"ba23f83",99,2
"10111",1,1,457,3,3,2,"ba23f83",100,2
"10210",1,1,450,1,1,2,"ba23f83",101,2
"1032",1,1,296,2,2,2,"ba23f83",102,2
"1042",0,1,662,2,1,2,"ba23f83",103,2
"1052",0,1,719,1,4,2,"ba23f83",104,2
"1062",1,1,271,4,4,2,"ba23f83",105,2
"2138",1,1,398,1,1,1,"1c07056",1,2
"3138",0,1,356,2,1,1,"1c07056",2,2
"4138",1,1,501,2,2,1,"1c07056",3,2
"5138",0,1,422,1,4,1,"1c07056",4,2
"6138",0,1,336,1,3,1,"1c07056",5,2
"743",1,1,334,3,3,1,"1c07056",6,2
"833",1,1,475,4,4,1,"1c07056",7,2
"933",0,1,320,1,2,1,"1c07056",8,2
"1033",0,1,549,4,1,1,"1c07056",9,2
"1130",1,1,364,4,4,1,"1c07056",10,2
"1230",1,1,62,3,3,1,"1c07056",11,2
"1330",1,1,246,2,2,1,"1c07056",12,2
"1430",1,1,280,1,1,1,"1c07056",13,2
"1530",0,1,274,3,1,1,"1c07056",14,2
"1630",1,1,301,2,2,1,"1c07056",15,2
"1730",1,1,296,4,4,1,"1c07056",16,2
"1830",1,1,268,1,1,1,"1c07056",17,2
"1930",0,1,274,2,1,1,"1c07056",18,2
"2030",0,1,236,3,1,1,"1c07056",19,2
"2139",0,1,283,1,4,1,"1c07056",20,2
"2232",1,1,356,3,3,1,"1c07056",21,2
"2330",0,1,333,3,1,1,"1c07056",22,2
"2430",1,1,330,1,1,1,"1c07056",23,2
"2530",1,1,416,4,4,1,"1c07056",24,2
"2630",0,1,1014,4,1,1,"1c07056",25,2
"2730",1,1,270,2,2,1,"1c07056",26,2
"2830",1,1,346,3,3,1,"1c07056",27,2
"2930",1,0,304,1,2,1,"1c07056",28,2
"3030",1,1,266,3,3,1,"1c07056",29,2
"3139",1,1,315,2,2,1,"1c07056",30,2
"3232",1,1,287,4,4,1,"1c07056",31,2
"3330",0,1,152,1,3,1,"1c07056",32,2
"3430",0,1,1341,4,1,1,"1c07056",33,2
"3530",1,1,249,1,1,1,"1c07056",34,2
"3630",1,0,169,2,1,1,"1c07056",35,2
"3730",1,1,300,1,1,1,"1c07056",36,2
"3830",1,1,259,4,4,1,"1c07056",37,2
"3930",1,1,322,3,3,1,"1c07056",38,2
"4030",1,1,418,2,2,1,"1c07056",39,2
"4139",0,1,259,4,1,1,"1c07056",40,2
"4232",0,1,324,1,3,1,"1c07056",41,2
"4330",0,1,220,2,1,1,"1c07056",42,2
"4430",1,1,312,4,4,1,"1c07056",43,2
"4530",0,1,306,3,1,1,"1c07056",44,2
"4630",0,1,75,1,4,1,"1c07056",45,2
"4730",1,1,271,2,2,1,"1c07056",46,2
"4830",1,1,287,3,3,1,"1c07056",47,2
"4930",1,1,324,1,1,1,"1c07056",48,2
"5030",0,1,242,1,2,1,"1c07056",49,2
"5139",0,1,444,3,1,1,"1c07056",50,2
"5232",1,1,272,4,4,1,"1c07056",51,2
"5330",1,1,36,2,2,1,"1c07056",52,2
"5430",1,1,160,1,1,1,"1c07056",53,2
"5530",0,1,266,2,1,1,"1c07056",54,2
"5630",0,1,155,4,1,1,"1c07056",55,2
"5730",1,1,312,3,3,1,"1c07056",56,2
"5830",1,1,126,1,1,1,"1c07056",57,2
"5930",1,1,42,2,2,1,"1c07056",58,2
"6030",0,1,337,1,4,1,"1c07056",59,2
"6139",0,1,368,1,3,1,"1c07056",60,2
"6232",1,1,345,4,4,1,"1c07056",61,2
"6330",0,1,577,2,1,1,"1c07056",62,2
"6430",1,1,259,3,3,1,"1c07056",63,2
"6530",1,1,316,4,4,1,"1c07056",64,2
"6630",1,1,269,2,2,1,"1c07056",65,2
"6730",1,1,284,3,3,1,"1c07056",66,2
"6830",1,1,260,1,1,1,"1c07056",67,2
"6930",0,1,267,1,2,1,"1c07056",68,2
"7030",0,1,650,3,1,1,"1c07056",69,2
"7130",0,1,572,1,4,1,"1c07056",70,2
"7212",1,1,272,3,3,1,"1c07056",71,2
"7311",0,1,269,1,2,1,"1c07056",72,2
"744",1,1,55,2,2,1,"1c07056",73,2
"753",1,1,368,4,4,1,"1c07056",74,2
"763",0,1,419,3,1,1,"1c07056",75,2
"773",0,1,243,4,1,1,"1c07056",76,2
"783",1,1,301,1,1,1,"1c07056",77,2
"793",1,1,362,1,1,1,"1c07056",78,2
"802",0,0,24,4,4,1,"1c07056",79,2
"8112",1,1,89,2,2,1,"1c07056",80,2
"8211",1,1,31,3,3,1,"1c07056",81,2
"834",0,1,188,1,4,1,"1c07056",82,2
"843",0,1,213,1,2,1,"1c07056",83,2
"853",0,1,187,1,3,1,"1c07056",84,2
"863",1,1,269,2,2,1,"1c07056",85,2
"873",0,1,260,3,1,1,"1c07056",86,2
"883",1,1,19,4,4,1,"1c07056",87,2
"893",0,1,251,4,1,1,"1c07056",88,2
"902",1,1,249,3,3,1,"1c07056",89,2
"9112",1,1,232,1,1,1,"1c07056",90,2
"9211",0,1,261,1,2,1,"1c07056",91,2
"934",0,1,276,1,3,1,"1c07056",92,2
"943",1,1,437,1,1,1,"1c07056",93,2
"953",1,1,231,2,2,1,"1c07056",94,2
"963",1,0,239,1,2,1,"1c07056",95,2
"973",1,1,276,4,4,1,"1c07056",96,2
"983",0,0,3,3,3,1,"1c07056",97,2
"993",0,1,296,1,4,1,"1c07056",98,2
"1002",1,1,295,4,4,1,"1c07056",99,2
"10112",1,1,313,3,3,1,"1c07056",100,2
"10211",0,1,644,1,2,1,"1c07056",101,2
"1034",1,1,510,1,1,1,"1c07056",102,2
"1043",0,1,88,4,1,1,"1c07056",103,2
"1053",1,1,339,2,2,1,"1c07056",104,2
"1063",0,1,313,1,3,1,"1c07056",105,2
"2140",1,1,404,1,1,1,"122bd74",1,2
"3140",0,1,238,1,3,1,"122bd74",2,2
"4140",1,1,192,3,3,1,"122bd74",3,2
"5140",1,1,174,2,2,1,"122bd74",4,2
"6140",1,1,270,4,4,1,"122bd74",5,2
"745",0,1,315,1,4,1,"122bd74",6,2
"835",0,1,483,1,2,1,"122bd74",7,2
"935",1,1,37,4,4,1,"122bd74",8,2
"1035",0,1,215,2,1,1,"122bd74",9,2
"1131",1,1,213,3,3,1,"122bd74",10,2
"1231",0,1,161,3,1,1,"122bd74",11,2
"1331",1,1,32,1,1,1,"122bd74",12,2
"1431",1,1,282,2,2,1,"122bd74",13,2
"1531",0,1,134,4,1,1,"122bd74",14,2
"1631",1,0,258,1,2,1,"122bd74",15,2
"1731",1,1,136,1,1,1,"122bd74",16,2
"1831",0,1,241,3,1,1,"122bd74",17,2
"1931",0,1,241,4,1,1,"122bd74",18,2
"2031",1,1,146,4,4,1,"122bd74",19,2
"2141",1,1,261,3,3,1,"122bd74",20,2
"2233",1,1,246,2,2,1,"122bd74",21,2
"2331",0,1,180,1,4,1,"122bd74",22,2
"2431",1,0,223,2,1,1,"122bd74",23,2
"2531",1,1,106,1,1,1,"122bd74",24,2
"2631",0,1,28,1,3,1,"122bd74",25,2
"2731",1,1,151,4,4,1,"122bd74",26,2
"2831",1,1,126,2,2,1,"122bd74",27,2
"2931",1,1,175,3,3,1,"122bd74",28,2
"3031",0,1,125,4,1,1,"122bd74",29,2
"3141",1,1,138,3,3,1,"122bd74",30,2
"3233",0,1,217,1,2,1,"122bd74",31,2
"3331",1,1,218,2,2,1,"122bd74",32,2
"3431",1,1,208,4,4,1,"122bd74",33,2
"3531",0,1,111,1,3,1,"122bd74",34,2
"3631",1,1,189,1,1,1,"122bd74",35,2
"3731",1,1,73,4,4,1,"122bd74",36,2
"3831",1,1,135,3,3,1,"122bd74",37,2
"3931",0,1,62,3,1,1,"122bd74",38,2
"4031",1,1,145,1,1,1,"122bd74",39,2
"4141",1,1,30,2,2,1,"122bd74",40,2
"4233",0,1,125,2,1,1,"122bd74",41,2
"4331",0,1,205,1,4,1,"122bd74",42,2
"4431",1,1,76,2,2,1,"122bd74",43,2
"4531",1,1,108,4,4,1,"122bd74",44,2
"4631",0,1,147,2,1,1,"122bd74",45,2
"4731",1,1,190,1,1,1,"122bd74",46,2
"4831",0,1,92,1,4,1,"122bd74",47,2
"4931",0,1,200,1,3,1,"122bd74",48,2
"5031",1,1,91,3,3,1,"122bd74",49,2
"5141",0,1,158,1,3,1,"122bd74",50,2
"5233",1,1,1064,1,1,1,"122bd74",51,2
"5331",0,1,294,4,1,1,"122bd74",52,2
"5431",0,1,83,2,1,1,"122bd74",53,2
"5531",1,1,69,2,2,1,"122bd74",54,2
"5631",1,1,35,4,4,1,"122bd74",55,2
"5731",1,1,89,3,3,1,"122bd74",56,2
"5831",1,1,58,3,3,1,"122bd74",57,2
"5931",1,1,32,4,4,1,"122bd74",58,2
"6031",0,1,110,2,1,1,"122bd74",59,2
"6141",1,1,114,2,2,1,"122bd74",60,2
"6233",1,1,149,1,1,1,"122bd74",61,2
"6331",0,1,289,1,4,1,"122bd74",62,2
"6431",0,1,332,1,3,1,"122bd74",63,2
"6531",1,1,305,1,1,1,"122bd74",64,2
"6631",0,1,188,3,1,1,"122bd74",65,2
"6731",0,1,104,1,2,1,"122bd74",66,2
"6831",1,1,247,4,4,1,"122bd74",67,2
"6931",0,1,146,1,4,1,"122bd74",68,2
"7031",1,1,239,2,2,1,"122bd74",69,2
"7131",1,1,255,3,3,1,"122bd74",70,2
"7213",1,1,1120,1,1,1,"122bd74",71,2
"7312",1,1,140,4,4,1,"122bd74",72,2
"746",1,1,287,3,3,1,"122bd74",73,2
"754",0,1,63,2,1,1,"122bd74",74,2
"764",0,1,250,1,3,1,"122bd74",75,2
"774",0,1,45,1,4,1,"122bd74",76,2
"784",1,1,84,2,2,1,"122bd74",77,2
"794",0,1,222,1,3,1,"122bd74",78,2
"803",1,1,433,4,4,1,"122bd74",79,2
"8113",0,1,272,4,1,1,"122bd74",80,2
"8212",0,1,140,1,2,1,"122bd74",81,2
"836",1,1,24,3,3,1,"122bd74",82,2
"844",1,1,490,1,1,1,"122bd74",83,2
"854",1,1,334,2,2,1,"122bd74",84,2
"864",1,1,248,4,4,1,"122bd74",85,2
"874",0,1,189,1,2,1,"122bd74",86,2
"884",1,1,158,1,1,1,"122bd74",87,2
"894",1,1,563,2,2,1,"122bd74",88,2
"903",0,1,1965,1,3,1,"122bd74",89,2
"9113",1,1,1996,3,3,1,"122bd74",90,2
"9212",0,1,1793,1,4,1,"122bd74",91,2
"936",1,1,1825,3,3,1,"122bd74",92,2
"944",1,1,1769,1,1,1,"122bd74",93,2
"954",0,1,281,2,1,1,"122bd74",94,2
"964",0,1,123,1,3,1,"122bd74",95,2
"974",1,1,87,2,2,1,"122bd74",96,2
"984",0,1,1567,4,1,1,"122bd74",97,2
"994",1,1,1303,4,4,1,"122bd74",98,2
"1003",1,1,1110,2,2,1,"122bd74",99,2
"10113",0,1,1261,4,1,1,"122bd74",100,2
"10212",1,1,1797,1,1,1,"122bd74",101,2
"1036",0,1,903,3,1,1,"122bd74",102,2
"1044",1,1,304,4,4,1,"122bd74",103,2
"1054",1,1,1779,3,3,1,"122bd74",104,2
"1064",0,1,1217,1,2,1,"122bd74",105,2
"2142",0,1,354,3,1,2,"140306f",1,2
"3142",0,0,406,3,3,2,"140306f",2,2
"4142",0,0,274,4,4,2,"140306f",3,2
"5142",1,0,342,4,1,2,"140306f",4,2
"6142",1,1,412,2,2,2,"140306f",5,2
"747",0,1,246,1,2,2,"140306f",6,2
"837",1,1,237,1,1,2,"140306f",7,2
"937",1,1,247,3,3,2,"140306f",8,2
"1037",0,1,230,1,3,2,"140306f",9,2
"1132",1,1,279,1,1,2,"140306f",10,2
"1232",1,0,29,1,4,2,"140306f",11,2
"1332",1,1,138,2,2,2,"140306f",12,2
"1432",0,1,306,2,1,2,"140306f",13,2
"1532",1,1,285,4,4,2,"140306f",14,2
"1632",1,1,192,1,1,2,"140306f",15,2
"1732",0,1,487,3,1,2,"140306f",16,2
"1832",0,1,258,1,4,2,"140306f",17,2
"1932",1,1,414,2,2,2,"140306f",18,2
"2032",1,1,449,3,3,2,"140306f",19,2
"2143",1,1,311,4,4,2,"140306f",20,2
"2234",0,1,795,1,2,2,"140306f",21,2
"2332",1,1,282,4,4,2,"140306f",22,2
"2432",0,1,218,3,1,2,"140306f",23,2
"2532",1,1,1327,3,3,2,"140306f",24,2
"2632",1,0,291,2,1,2,"140306f",25,2
"2732",0,0,370,2,2,2,"140306f",26,2
"2832",1,1,261,1,1,2,"140306f",27,2
"2932",0,1,752,4,1,2,"140306f",28,2
"3032",0,1,200,1,3,2,"140306f",29,2
"3143",1,1,276,4,4,2,"140306f",30,2
"3234",1,1,1065,1,1,2,"140306f",31,2
"3332",0,0,138,2,2,2,"140306f",32,2
"3432",1,0,443,1,4,2,"140306f",33,2
"3532",1,1,156,3,3,2,"140306f",34,2
"3632",0,1,259,1,2,2,"140306f",35,2
"3732",1,1,203,4,4,2,"140306f",36,2
"3832",0,1,840,1,4,2,"140306f",37,2
"3932",1,1,713,2,2,2,"140306f",38,2
"4032",1,0,283,2,1,2,"140306f",39,2
"4143",1,1,295,3,3,2,"140306f",40,2
"4234",0,0,242,1,1,2,"140306f",41,2
"4332",0,1,278,3,1,2,"140306f",42,2
"4432",1,1,261,3,3,2,"140306f",43,2
"4532",1,1,318,1,1,2,"140306f",44,2
"4632",1,1,381,2,2,2,"140306f",45,2
"4732",1,0,329,4,1,2,"140306f",46,2
"4832",1,1,350,4,4,2,"140306f",47,2
"4932",0,1,1014,1,3,2,"140306f",48,2
"5032",0,1,257,1,2,2,"140306f",49,2
"5143",1,0,247,1,3,2,"140306f",50,2
"5234",1,0,355,2,1,2,"140306f",51,2
"5332",0,0,418,3,3,2,"140306f",52,2
"5432",1,0,263,1,4,2,"140306f",53,2
"5532",0,0,529,2,2,2,"140306f",54,2
"5632",0,0,579,4,4,2,"140306f",55,2
"5732",1,1,211,1,1,2,"140306f",56,2
"5832",1,1,244,4,4,2,"140306f",57,2
"5932",1,0,261,3,1,2,"140306f",58,2
"6032",1,1,229,3,3,2,"140306f",59,2
"6143",0,1,155,2,1,2,"140306f",60,2
"6234",1,0,227,1,4,2,"140306f",61,2
"6332",1,1,395,1,1,2,"140306f",62,2
"6432",1,1,154,2,2,2,"140306f",63,2
"6532",1,1,335,2,2,2,"140306f",64,2
"6632",1,0,352,1,2,2,"140306f",65,2
"6732",1,1,330,1,1,2,"140306f",66,2
"6832",0,0,343,3,3,2,"140306f",67,2
"6932",1,0,111,1,3,2,"140306f",68,2
"7032",1,0,247,4,1,2,"140306f",69,2
"7132",0,0,220,4,4,2,"140306f",70,2
"7214",1,1,269,1,1,2,"140306f",71,2
"7313",1,1,968,2,2,2,"140306f",72,2
"748",1,1,549,3,3,2,"140306f",73,2
"755",1,0,1409,3,1,2,"140306f",74,2
"765",1,0,401,1,4,2,"140306f",75,2
"775",1,1,360,4,4,2,"140306f",76,2
"785",1,0,299,1,2,2,"140306f",77,2
"795",1,0,265,4,1,2,"140306f",78,2
"804",0,1,440,3,1,2,"140306f",79,2
"8114",1,0,265,2,1,2,"140306f",80,2
"8213",0,0,451,2,2,2,"140306f",81,2
"838",1,1,317,4,4,2,"140306f",82,2
"845",1,1,396,1,1,2,"140306f",83,2
"855",1,1,376,3,3,2,"140306f",84,2
"865",1,1,244,3,3,2,"140306f",85,2
"875",1,0,348,1,2,2,"140306f",86,2
"885",1,1,618,4,4,2,"140306f",87,2
"895",1,0,718,3,1,2,"140306f",88,2
"904",1,0,244,4,1,2,"140306f",89,2
"9114",1,1,569,1,1,2,"140306f",90,2
"9213",1,1,273,2,2,2,"140306f",91,2
"938",1,1,387,4,4,2,"140306f",92,2
"945",0,1,276,1,4,2,"140306f",93,2
"955",1,1,246,1,1,2,"140306f",94,2
"965",0,0,310,2,2,2,"140306f",95,2
"975",1,0,315,3,1,2,"140306f",96,2
"985",0,1,89,2,1,2,"140306f",97,2
"995",1,1,274,3,3,2,"140306f",98,2
"1004",1,0,281,1,4,2,"140306f",99,2
"10114",0,0,149,4,4,2,"140306f",100,2
"10213",0,0,274,1,1,2,"140306f",101,2
"1038",1,1,249,2,2,2,"140306f",102,2
"1045",1,0,321,3,1,2,"140306f",103,2
"1055",0,0,226,3,3,2,"140306f",104,2
"1065",1,0,210,2,1,2,"140306f",105,2
"2144",-1,-1,0,3,1,1,"12454bc",1,2
"3144",0,0,1643,1,1,1,"12454bc",2,2
"4144",1,1,1133,4,4,1,"12454bc",3,2
"5144",0,1,1084,2,1,1,"12454bc",4,2
"6144",0,1,1886,1,4,1,"12454bc",5,2
"749",1,1,1144,2,2,1,"12454bc",6,2
"839",1,1,602,3,3,1,"12454bc",7,2
"939",1,0,420,1,3,1,"12454bc",8,2
"1039",1,1,604,4,4,1,"12454bc",9,2
"1133",0,1,1678,1,4,1,"12454bc",10,2
"1233",1,1,1401,3,3,1,"12454bc",11,2
"1333",1,1,1383,2,2,1,"12454bc",12,2
"1433",1,0,915,1,2,1,"12454bc",13,2
"1533",1,1,527,1,1,1,"12454bc",14,2
"1633",1,1,669,4,4,1,"12454bc",15,2
"1733",0,1,612,1,3,1,"12454bc",16,2
"1833",1,1,423,1,1,1,"12454bc",17,2
"1933",0,1,541,1,4,1,"12454bc",18,2
"2033",1,1,820,2,2,1,"12454bc",19,2
"2145",1,1,1699,3,3,1,"12454bc",20,2
"2235",1,0,687,2,1,1,"12454bc",21,2
"2333",1,1,767,1,1,1,"12454bc",22,2
"2433",0,1,1036,1,4,1,"12454bc",23,2
"2533",0,1,1441,3,1,1,"12454bc",24,2
"2633",0,1,1269,1,2,1,"12454bc",25,2
"2733",1,1,687,3,3,1,"12454bc",26,2
"2833",1,1,394,2,2,1,"12454bc",27,2
"2933",1,1,707,4,4,1,"12454bc",28,2
"3033",1,1,560,3,3,1,"12454bc",29,2
"3145",0,1,1252,2,1,1,"12454bc",30,2
"3235",0,1,890,1,4,1,"12454bc",31,2
"3333",1,1,857,1,1,1,"12454bc",32,2
"3433",0,1,523,1,3,1,"12454bc",33,2
"3533",1,1,603,4,4,1,"12454bc",34,2
"3633",0,0,447,2,2,1,"12454bc",35,2
"3733",0,1,576,1,4,1,"12454bc",36,2
"3833",1,1,613,1,1,1,"12454bc",37,2
"3933",0,1,582,3,1,1,"12454bc",38,2
"4033",1,1,508,4,4,1,"12454bc",39,2
"4145",1,0,700,1,2,1,"12454bc",40,2
"4235",1,1,913,3,3,1,"12454bc",41,2
"4333",1,1,420,2,2,1,"12454bc",42,2
"4433",1,1,496,3,3,1,"12454bc",43,2
"4533",0,1,1006,2,1,1,"12454bc",44,2
"4633",0,0,539,2,2,1,"12454bc",45,2
"4733",-1,-1,0,1,4,1,"12454bc",46,2
"4833",1,1,1341,1,1,1,"12454bc",47,2
"4933",-1,-1,0,3,1,1,"12454bc",48,2
"5033",-1,-1,0,4,4,1,"12454bc",49,2
"5145",0,0,778,4,4,1,"12454bc",50,2
"5235",0,1,512,1,3,1,"12454bc",51,2
"5333",-1,-1,0,2,2,1,"12454bc",52,2
"5433",0,1,503,1,4,1,"12454bc",53,2
"5533",0,1,494,2,1,1,"12454bc",54,2
"5633",0,0,570,1,1,1,"12454bc",55,2
"5733",1,1,841,3,3,1,"12454bc",56,2
"5833",1,1,1671,1,1,1,"12454bc",57,2
"5933",1,1,607,3,3,1,"12454bc",58,2
"6033",0,1,494,2,1,1,"12454bc",59,2
"6145",0,1,966,1,3,1,"12454bc",60,2
"6235",0,0,1112,2,2,1,"12454bc",61,2
"6333",1,1,1256,4,4,1,"12454bc",62,2
"6433",0,1,768,4,1,1,"12454bc",63,2
"6533",0,1,400,2,1,1,"12454bc",64,2
"6633",0,1,734,1,3,1,"12454bc",65,2
"6733",1,1,1675,2,2,1,"12454bc",66,2
"6833",0,1,617,1,4,1,"12454bc",67,2
"6933",1,1,742,4,4,1,"12454bc",68,2
"7033",0,0,1998,3,3,1,"12454bc",69,2
"7133",1,1,1898,1,1,1,"12454bc",70,2
"7215",0,0,1311,3,3,1,"12454bc",71,2
"7314",1,0,450,1,2,1,"12454bc",72,2
"7410",0,0,677,4,4,1,"12454bc",73,2
"756",1,1,891,2,2,1,"12454bc",74,2
"766",0,1,621,4,1,1,"12454bc",75,2
"776",0,1,638,3,1,1,"12454bc",76,2
"786",1,1,1295,1,1,1,"12454bc",77,2
"796",1,1,1773,1,1,1,"12454bc",78,2
"805",0,1,583,3,1,1,"12454bc",79,2
"8115",0,1,634,1,4,1,"12454bc",80,2
"8214",1,1,401,4,4,1,"12454bc",81,2
"8310",1,0,498,2,1,1,"12454bc",82,2
"846",1,1,505,2,2,1,"12454bc",83,2
"856",-1,-1,0,3,3,1,"12454bc",84,2
"866",0,1,424,3,1,1,"12454bc",85,2
"876",0,1,673,1,2,1,"12454bc",86,2
"886",1,1,794,4,4,1,"12454bc",87,2
"896",0,0,1607,2,2,1,"12454bc",88,2
"905",0,1,576,4,1,1,"12454bc",89,2
"9115",1,1,340,1,1,1,"12454bc",90,2
"9214",1,1,1815,3,3,1,"12454bc",91,2
"9310",0,1,425,2,1,1,"12454bc",92,2
"946",0,1,499,1,4,1,"12454bc",93,2
"956",1,1,594,3,3,1,"12454bc",94,2
"966",1,1,968,1,1,1,"12454bc",95,2
"976",0,0,1226,4,4,1,"12454bc",96,2
"986",1,1,1453,2,2,1,"12454bc",97,2
"996",0,1,634,3,1,1,"12454bc",98,2
"1005",1,1,789,3,3,1,"12454bc",99,2
"10115",0,1,576,4,1,1,"12454bc",100,2
"10214",1,1,664,4,4,1,"12454bc",101,2
"10310",0,1,538,1,2,1,"12454bc",102,2
"1046",1,1,1355,1,1,1,"12454bc",103,2
"1056",0,1,474,1,3,1,"12454bc",104,2
"1066",1,1,708,2,2,1,"12454bc",105,2
"2146",1,1,415,2,2,2,"1565b1c",1,2
"3146",1,1,320,1,1,2,"1565b1c",2,2
"4146",1,1,326,3,3,2,"1565b1c",3,2
"5146",0,1,413,1,4,2,"1565b1c",4,2
"6146",1,0,361,3,1,2,"1565b1c",5,2
"750",1,1,331,4,4,2,"1565b1c",6,2
"840",1,0,362,1,2,2,"1565b1c",7,2
"940",1,0,707,1,3,2,"1565b1c",8,2
"1040",1,0,624,1,2,2,"1565b1c",9,2
"1134",1,1,709,1,1,2,"1565b1c",10,2
"1234",1,1,541,4,4,2,"1565b1c",11,2
"1334",1,0,409,4,1,2,"1565b1c",12,2
"1434",1,1,647,3,3,2,"1565b1c",13,2
"1534",1,1,283,2,2,2,"1565b1c",14,2
"1634",1,1,390,2,2,2,"1565b1c",15,2
"1734",1,1,342,4,4,2,"1565b1c",16,2
"1834",1,0,333,2,1,2,"1565b1c",17,2
"1934",0,1,299,3,1,2,"1565b1c",18,2
"2034",1,1,290,1,1,2,"1565b1c",19,2
"2147",1,0,753,1,4,2,"1565b1c",20,2
"2236",0,0,338,3,3,2,"1565b1c",21,2
"2334",1,0,299,1,4,2,"1565b1c",22,2
"2434",1,1,319,1,1,2,"1565b1c",23,2
"2534",0,1,351,2,1,2,"1565b1c",24,2
"2634",1,0,338,1,3,2,"1565b1c",25,2
"2734",1,1,302,2,2,2,"1565b1c",26,2
"2834",1,1,1634,4,4,2,"1565b1c",27,2
"2934",1,1,254,3,3,2,"1565b1c",28,2
"3034",0,1,329,1,4,2,"1565b1c",29,2
"3147",0,0,318,1,1,2,"1565b1c",30,2
"3236",1,0,324,2,1,2,"1565b1c",31,2
"3334",1,1,347,4,4,2,"1565b1c",32,2
"3434",1,1,701,2,2,2,"1565b1c",33,2
"3534",1,0,1226,3,1,2,"1565b1c",34,2
"3634",1,1,586,3,3,2,"1565b1c",35,2
"3734",1,1,572,3,3,2,"1565b1c",36,2
"3834",1,1,332,2,2,2,"1565b1c",37,2
"3934",1,1,387,1,1,2,"1565b1c",38,2
"4034",0,1,528,1,3,2,"1565b1c",39,2
"4147",0,1,363,4,1,2,"1565b1c",40,2
"4236",0,0,337,4,4,2,"1565b1c",41,2
"4334",1,0,309,2,1,2,"1565b1c",42,2
"4434",1,1,376,1,1,2,"1565b1c",43,2
"4534",1,1,526,4,4,2,"1565b1c",44,2
"4634",1,0,324,1,3,2,"1565b1c",45,2
"4734",0,1,308,1,4,2,"1565b1c",46,2
"4834",1,1,314,2,2,2,"1565b1c",47,2
"4934",1,1,340,3,3,2,"1565b1c",48,2
"5034",1,0,406,1,2,2,"1565b1c",49,2
"5147",1,1,342,4,4,2,"1565b1c",50,2
"5236",1,1,527,1,1,2,"1565b1c",51,2
"5334",1,1,362,2,2,2,"1565b1c",52,2
"5434",1,1,459,3,3,2,"1565b1c",53,2
"5534",0,1,326,1,2,2,"1565b1c",54,2
"5634",1,0,296,3,1,2,"1565b1c",55,2
"5734",1,0,275,1,4,2,"1565b1c",56,2
"5834",1,0,406,4,1,2,"1565b1c",57,2
"5934",1,0,291,1,3,2,"1565b1c",58,2
"6034",1,1,184,4,4,2,"1565b1c",59,2
"6147",1,1,312,1,1,2,"1565b1c",60,2
"6236",1,1,834,2,2,2,"1565b1c",61,2
"6334",0,0,321,3,3,2,"1565b1c",62,2
"6434",0,1,295,1,2,2,"1565b1c",63,2
"6534",0,0,305,3,3,2,"1565b1c",64,2
"6634",1,0,361,3,1,2,"1565b1c",65,2
"6734",1,0,1480,2,1,2,"1565b1c",66,2
"6834",1,1,380,4,4,2,"1565b1c",67,2
"6934",1,0,557,4,1,2,"1565b1c",68,2
"7034",0,0,1494,1,1,2,"1565b1c",69,2
"7134",1,1,572,2,2,2,"1565b1c",70,2
"7216",1,1,375,1,1,2,"1565b1c",71,2
"7315",1,1,653,2,2,2,"1565b1c",72,2
"7411",1,0,1004,4,1,2,"1565b1c",73,2
"757",1,1,1379,3,3,2,"1565b1c",74,2
"767",0,1,728,2,1,2,"1565b1c",75,2
"777",0,1,468,3,1,2,"1565b1c",76,2
"787",1,1,380,4,4,2,"1565b1c",77,2
"797",1,0,314,3,1,2,"1565b1c",78,2
"806",1,0,331,2,1,2,"1565b1c",79,2
"8116",1,1,364,2,2,2,"1565b1c",80,2
"8215",1,1,932,3,3,2,"1565b1c",81,2
"8311",1,1,365,1,1,2,"1565b1c",82,2
"847",1,1,529,4,4,2,"1565b1c",83,2
"857",1,0,464,1,4,2,"1565b1c",84,2
"867",1,1,430,2,2,2,"1565b1c",85,2
"877",1,0,531,1,3,2,"1565b1c",86,2
"887",1,1,553,4,4,2,"1565b1c",87,2
"897",1,0,969,1,2,2,"1565b1c",88,2
"906",0,0,736,3,3,2,"1565b1c",89,2
"9116",1,1,1593,1,1,2,"1565b1c",90,2
"9215",-1,-1,0,1,4,2,"1565b1c",91,2
"9311",1,0,500,4,1,2,"1565b1c",92,2
"947",0,0,1482,3,3,2,"1565b1c",93,2
"957",0,0,1951,4,4,2,"1565b1c",94,2
"967",1,0,464,1,3,2,"1565b1c",95,2
"977",1,1,307,2,2,2,"1565b1c",96,2
"987",0,0,1611,1,1,2,"1565b1c",97,2
"997",0,1,98,1,2,2,"1565b1c",98,2
"1006",1,1,582,1,1,2,"1565b1c",99,2
"10116",1,0,354,2,1,2,"1565b1c",100,2
"10215",1,1,288,3,3,2,"1565b1c",101,2
"10311",1,0,331,3,1,2,"1565b1c",102,2
"1047",1,1,519,2,2,2,"1565b1c",103,2
"1057",1,1,553,4,4,2,"1565b1c",104,2
"1067",1,0,637,4,1,2,"1565b1c",105,2
"2148",1,1,514,3,3,3,"1929696",1,2
"3148",1,0,347,1,3,3,"1929696",2,2
"4148",1,0,426,1,4,3,"1929696",3,2
"5148",0,0,461,2,2,3,"1929696",4,2
"6148",0,0,467,4,4,3,"1929696",5,2
"758",1,0,637,2,1,3,"1929696",6,2
"848",1,1,562,1,1,3,"1929696",7,2
"948",1,0,349,2,1,3,"1929696",8,2
"1048",1,1,443,3,3,3,"1929696",9,2
"1135",0,0,1386,2,2,3,"1929696",10,2
"1235",0,0,372,4,4,3,"1929696",11,2
"1335",1,0,610,1,4,3,"1929696",12,2
"1435",1,1,353,1,1,3,"1929696",13,2
"1535",1,0,486,1,3,3,"1929696",14,2
"1635",1,1,453,1,1,3,"1929696",15,2
"1735",1,1,422,3,3,3,"1929696",16,2
"1835",1,0,994,3,1,3,"1929696",17,2
"1935",1,1,391,2,2,3,"1929696",18,2
"2035",1,0,1171,2,1,3,"1929696",19,2
"2149",1,0,428,4,1,3,"1929696",20,2
"2237",0,0,380,4,4,3,"1929696",21,2
"2335",1,0,359,2,1,3,"1929696",22,2
"2435",1,1,1519,1,1,3,"1929696",23,2
"2535",0,1,476,3,1,3,"1929696",24,2
"2635",1,0,310,1,4,3,"1929696",25,2
"2735",1,1,377,4,4,3,"1929696",26,2
"2835",1,1,362,2,2,3,"1929696",27,2
"2935",0,0,627,3,3,3,"1929696",28,2
"3035",1,1,449,1,1,3,"1929696",29,2
"3149",1,0,422,2,1,3,"1929696",30,2
"3237",1,0,448,1,4,3,"1929696",31,2
"3335",1,1,511,3,3,3,"1929696",32,2
"3435",1,1,451,2,2,3,"1929696",33,2
"3535",1,0,479,1,3,3,"1929696",34,2
"3635",1,1,753,4,4,3,"1929696",35,2
"3735",0,0,461,1,1,3,"1929696",36,2
"3835",0,1,571,4,1,3,"1929696",37,2
"3935",1,1,619,2,2,3,"1929696",38,2
"4035",1,1,388,4,4,3,"1929696",39,2
"4149",1,0,518,2,1,3,"1929696",40,2
"4237",1,0,469,1,3,3,"1929696",41,2
"4335",1,1,381,3,3,3,"1929696",42,2
"4435",0,1,531,2,1,3,"1929696",43,2
"4535",0,0,435,1,1,3,"1929696",44,2
"4635",1,1,1057,2,2,3,"1929696",45,2
"4735",1,0,418,4,1,3,"1929696",46,2
"4835",1,1,610,4,4,3,"1929696",47,2
"4935",1,0,653,3,1,3,"1929696",48,2
"5035",1,1,760,3,3,3,"1929696",49,2
"5149",1,0,556,1,4,3,"1929696",50,2
"5237",0,0,676,3,3,3,"1929696",51,2
"5335",0,0,409,1,1,3,"1929696",52,2
"5435",0,0,574,2,2,3,"1929696",53,2
"5535",0,1,554,1,3,3,"1929696",54,2
"5635",1,1,533,4,4,3,"1929696",55,2
"5735",0,1,1237,2,1,3,"1929696",56,2
"5835",1,1,510,4,4,3,"1929696",57,2
"5935",0,1,546,2,1,3,"1929696",58,2
"6035",0,0,471,2,2,3,"1929696",59,2
"6149",0,0,376,1,1,3,"1929696",60,2
"6237",0,0,400,3,3,3,"1929696",61,2
"6335",0,1,360,1,3,3,"1929696",62,2
"6435",0,1,653,1,4,3,"1929696",63,2
"6535",0,1,984,3,1,3,"1929696",64,2
"6635",0,1,788,1,4,3,"1929696",65,2
"6735",0,0,561,2,2,3,"1929696",66,2
"6835",1,0,481,1,2,3,"1929696",67,2
"6935",1,1,390,3,3,3,"1929696",68,2
"7035",0,0,376,4,4,3,"1929696",69,2
"7135",1,1,477,1,1,3,"1929696",70,2
"7217",0,0,992,3,3,3,"1929696",71,2
"7316",1,0,1205,2,1,3,"1929696",72,2
"7412",1,0,356,3,1,3,"1929696",73,2
"759",0,1,1731,1,4,3,"1929696",74,2
"768",1,1,1327,1,1,3,"1929696",75,2
"778",1,1,1057,2,2,3,"1929696",76,2
"788",1,1,589,4,4,3,"1929696",77,2
"798",1,1,585,4,4,3,"1929696",78,2
"807",-1,-1,0,2,1,3,"1929696",79,2
"8117",1,1,739,2,2,3,"1929696",80,2
"8216",0,1,951,4,1,3,"1929696",81,2
"8312",0,0,350,1,1,3,"1929696",82,2
"849",1,1,610,3,3,3,"1929696",83,2
"858",1,0,415,3,1,3,"1929696",84,2
"868",1,1,726,4,4,3,"1929696",85,2
"878",1,0,844,1,4,3,"1929696",86,2
"888",0,1,629,3,1,3,"1929696",87,2
"898",1,1,506,3,3,3,"1929696",88,2
"907",1,0,532,1,2,3,"1929696",89,2
"9117",0,0,424,2,2,3,"1929696",90,2
"9216",0,0,424,1,1,3,"1929696",91,2
"9312",1,1,497,4,4,3,"1929696",92,2
"949",1,0,583,1,4,3,"1929696",93,2
"958",1,0,518,3,1,3,"1929696",94,2
"968",1,1,469,2,2,3,"1929696",95,2
"978",1,1,516,1,1,3,"1929696",96,2
"988",1,0,502,2,1,3,"1929696",97,2
"998",0,0,1127,3,3,3,"1929696",98,2
"1007",1,1,565,1,1,3,"1929696",99,2
"10117",0,0,596,4,4,3,"1929696",100,2
"10216",1,1,430,2,2,3,"1929696",101,2
"10312",1,0,584,1,2,3,"1929696",102,2
"1049",1,1,757,3,3,3,"1929696",103,2
"1058",1,0,909,1,4,3,"1929696",104,2
"1068",0,1,841,1,3,3,"1929696",105,2
"2150",0,1,213,1,3,2,"1fc8de2",1,2
"3150",0,1,294,4,1,2,"1fc8de2",2,2
"4150",1,1,98,4,4,2,"1fc8de2",3,2
"5150",1,1,637,2,2,2,"1fc8de2",4,2
"6150",1,1,151,3,3,2,"1fc8de2",5,2
"760",0,1,558,1,2,2,"1fc8de2",6,2
"850",1,1,430,1,1,2,"1fc8de2",7,2
"950",1,1,499,3,3,2,"1fc8de2",8,2
