"","keys","accuracy","rt","Fimg","Simg","feature_index","subID","trialNum","run"
"2",0,1,925,5,1,3,"189e236",1,1
"3",0,1,428,3,1,3,"189e236",2,1
"4",1,1,344,1,1,3,"189e236",3,1
"5",1,1,414,6,6,3,"189e236",4,1
"6",0,0,344,3,3,3,"189e236",5,1
"7",0,0,1684,4,4,3,"189e236",6,1
"8",1,0,1496,4,1,3,"189e236",7,1
"9",0,1,554,1,6,3,"189e236",8,1
"10",1,0,1241,1,2,3,"189e236",9,1
"11",0,0,408,5,5,3,"189e236",10,1
"12",1,1,1305,2,2,3,"189e236",11,1
"13",1,1,1441,1,1,3,"189e236",12,1
"14",1,1,1419,6,6,3,"189e236",13,1
"15",0,1,437,1,6,3,"189e236",14,1
"16",0,0,1798,3,3,3,"189e236",15,1
"17",1,0,472,1,3,3,"189e236",16,1
"18",1,1,935,4,4,3,"189e236",17,1
"19",1,1,1277,2,2,3,"189e236",18,1
"20",0,0,1247,5,5,3,"189e236",19,1
"21",-1,-1,0,1,4,3,"189e236",20,1
"22",1,0,565,5,1,3,"189e236",21,1
"23",1,0,1018,2,1,3,"189e236",22,1
"24",1,0,789,3,1,3,"189e236",23,1
"25",1,1,448,2,2,3,"189e236",24,1
"26",0,1,342,2,1,3,"189e236",25,1
"27",1,1,1281,5,5,3,"189e236",26,1
"28",-1,-1,0,6,6,3,"189e236",27,1
"29",-1,-1,0,3,3,3,"189e236",28,1
"30",1,1,760,4,4,3,"189e236",29,1
"31",1,1,1739,1,1,3,"189e236",30,1
"32",0,1,1251,5,1,3,"189e236",31,1
"33",-1,-1,0,6,1,3,"189e236",32,1
"34",1,0,1863,1,4,3,"189e236",33,1
"35",0,1,1764,1,6,3,"189e236",34,1
"36",1,1,624,1,1,3,"189e236",35,1
"37",1,1,1607,4,4,3,"189e236",36,1
"38",1,0,1703,1,2,3,"189e236",37,1
"39",-1,-1,0,3,3,3,"189e236",38,1
"40",0,0,765,2,2,3,"189e236",39,1
"41",1,0,991,3,1,3,"189e236",40,1
"42",1,1,278,5,5,3,"189e236",41,1
"43",0,1,323,1,5,3,"189e236",42,1
"44",1,1,433,6,6,3,"189e236",43,1
"45",0,1,951,4,1,3,"189e236",44,1
"46",0,1,420,2,1,3,"189e236",45,1
"47",0,1,475,5,1,3,"189e236",46,1
"48",0,1,347,1,3,3,"189e236",47,1
"49",1,1,292,6,6,3,"189e236",48,1
"50",0,1,357,1,6,3,"189e236",49,1
"51",0,0,393,3,3,3,"189e236",50,1
"52",1,1,293,2,2,3,"189e236",51,1
"53",1,0,532,4,1,3,"189e236",52,1
"54",1,1,671,1,1,3,"189e236",53,1
"55",1,1,296,4,4,3,"189e236",54,1
"56",1,1,304,5,5,3,"189e236",55,1
"57",1,0,285,1,2,3,"189e236",56,1
"58",0,0,362,1,1,3,"189e236",57,1
"59",0,1,555,3,1,3,"189e236",58,1
"60",1,1,287,2,2,3,"189e236",59,1
"61",1,1,251,6,6,3,"189e236",60,1
"62",0,1,311,1,4,3,"189e236",61,1
"63",1,0,1060,6,1,3,"189e236",62,1
"64",1,1,348,3,3,3,"189e236",63,1
"65",1,1,394,5,5,3,"189e236",64,1
"66",1,1,582,4,4,3,"189e236",65,1
"67",1,0,332,5,1,3,"189e236",66,1
"68",0,1,923,4,1,3,"189e236",67,1
"69",1,1,376,1,1,3,"189e236",68,1
"70",1,1,309,5,5,3,"189e236",69,1
"71",1,1,262,6,6,3,"189e236",70,1
"72",1,1,335,3,3,3,"189e236",71,1
"73",0,1,351,2,1,3,"189e236",72,1
"74",0,1,447,6,1,3,"189e236",73,1
"75",1,0,414,1,3,3,"189e236",74,1
"76",1,1,406,4,4,3,"189e236",75,1
"77",0,1,378,5,1,3,"189e236",76,1
"78",1,1,1427,2,2,3,"189e236",77,1
"210",1,1,77,3,3,2,"1aeba69",1,1
"310",1,1,248,2,2,2,"1aeba69",2,1
"410",1,0,311,3,1,2,"1aeba69",3,1
"510",1,1,286,1,1,2,"1aeba69",4,1
"610",0,0,457,6,6,2,"1aeba69",5,1
"79",1,1,229,5,5,2,"1aeba69",6,1
"81",0,1,213,6,1,2,"1aeba69",7,1
"91",1,1,180,4,4,2,"1aeba69",8,1
"101",1,0,469,2,1,2,"1aeba69",9,1
"111",0,1,283,4,1,2,"1aeba69",10,1
"121",0,1,236,5,1,2,"1aeba69",11,1
"131",0,1,170,1,2,2,"1aeba69",12,1
"141",0,1,258,6,1,2,"1aeba69",13,1
"151",1,1,88,4,4,2,"1aeba69",14,1
"161",1,1,365,1,1,2,"1aeba69",15,1
"171",0,1,392,3,1,2,"1aeba69",16,1
"181",0,1,251,1,4,2,"1aeba69",17,1
"191",1,1,184,6,6,2,"1aeba69",18,1
"201",1,1,284,2,2,2,"1aeba69",19,1
"211",1,1,52,5,5,2,"1aeba69",20,1
"221",1,1,316,3,3,2,"1aeba69",21,1
"231",0,1,422,1,5,2,"1aeba69",22,1
"241",0,1,204,3,1,2,"1aeba69",23,1
"251",1,1,93,5,5,2,"1aeba69",24,1
"261",1,1,274,1,1,2,"1aeba69",25,1
"271",0,1,203,1,6,2,"1aeba69",26,1
"281",0,1,266,1,4,2,"1aeba69",27,1
"291",1,1,88,2,2,2,"1aeba69",28,1
"301",1,1,256,3,3,2,"1aeba69",29,1
"311",1,1,288,4,4,2,"1aeba69",30,1
"321",0,1,224,1,2,2,"1aeba69",31,1
"331",0,1,297,1,5,2,"1aeba69",32,1
"341",1,1,365,6,6,2,"1aeba69",33,1
"351",1,1,335,5,5,2,"1aeba69",34,1
"361",0,1,234,2,1,2,"1aeba69",35,1
"371",0,1,476,1,3,2,"1aeba69",36,1
"381",0,1,295,5,1,2,"1aeba69",37,1
"391",0,0,207,6,6,2,"1aeba69",38,1
"401",1,1,169,3,3,2,"1aeba69",39,1
"411",0,1,248,6,1,2,"1aeba69",40,1
"421",1,1,1363,4,4,2,"1aeba69",41,1
"431",1,1,511,1,1,2,"1aeba69",42,1
"441",0,1,443,1,4,2,"1aeba69",43,1
"451",1,1,175,2,2,2,"1aeba69",44,1
"461",0,1,192,2,1,2,"1aeba69",45,1
"471",1,1,206,1,1,2,"1aeba69",46,1
"481",0,1,539,1,6,2,"1aeba69",47,1
"491",1,1,240,4,4,2,"1aeba69",48,1
"501",1,1,709,2,2,2,"1aeba69",49,1
"511",0,1,250,3,1,2,"1aeba69",50,1
"521",1,1,189,6,6,2,"1aeba69",51,1
"531",0,1,240,5,1,2,"1aeba69",52,1
"541",1,1,270,5,5,2,"1aeba69",53,1
"551",1,1,189,3,3,2,"1aeba69",54,1
"561",0,1,307,1,4,2,"1aeba69",55,1
"571",1,1,109,2,2,2,"1aeba69",56,1
"581",0,1,535,5,1,2,"1aeba69",57,1
"591",0,1,264,1,3,2,"1aeba69",58,1
"601",0,1,274,1,4,2,"1aeba69",59,1
"611",0,0,293,4,4,2,"1aeba69",60,1
"621",1,1,201,5,5,2,"1aeba69",61,1
"631",1,1,332,1,1,2,"1aeba69",62,1
"641",0,1,309,6,1,2,"1aeba69",63,1
"651",0,1,252,1,2,2,"1aeba69",64,1
"661",1,1,130,6,6,2,"1aeba69",65,1
"671",1,1,4,3,3,2,"1aeba69",66,1
"681",0,1,159,5,1,2,"1aeba69",67,1
"691",1,1,605,6,6,2,"1aeba69",68,1
"701",1,1,185,2,2,2,"1aeba69",69,1
"711",0,1,264,1,6,2,"1aeba69",70,1
"721",0,1,113,1,4,2,"1aeba69",71,1
"731",1,1,243,1,1,2,"1aeba69",72,1
"741",1,1,313,3,3,2,"1aeba69",73,1
"751",0,1,434,1,3,2,"1aeba69",74,1
"761",1,1,164,5,5,2,"1aeba69",75,1
"771",0,1,252,1,2,2,"1aeba69",76,1
"781",1,1,22,4,4,2,"1aeba69",77,1
"212",1,1,529,1,1,3,"1596ba3",1,1
"312",1,0,297,3,1,3,"1596ba3",2,1
"412",0,1,340,5,1,3,"1596ba3",3,1
"512",1,0,528,1,6,3,"1596ba3",4,1
"612",1,1,357,4,4,3,"1596ba3",5,1
"710",1,0,277,2,1,3,"1596ba3",6,1
"82",1,0,286,1,4,3,"1596ba3",7,1
"92",1,1,297,6,6,3,"1596ba3",8,1
"102",1,1,331,2,2,3,"1596ba3",9,1
"112",1,1,319,5,5,3,"1596ba3",10,1
"122",1,1,189,3,3,3,"1596ba3",11,1
"132",0,1,293,3,1,3,"1596ba3",12,1
"142",1,1,351,2,2,3,"1596ba3",13,1
"152",1,0,387,1,6,3,"1596ba3",14,1
"162",1,0,290,1,2,3,"1596ba3",15,1
"172",1,0,445,5,1,3,"1596ba3",16,1
"182",1,1,276,5,5,3,"1596ba3",17,1
"192",1,1,299,6,6,3,"1596ba3",18,1
"202",0,0,274,4,4,3,"1596ba3",19,1
"213",1,1,287,1,1,3,"1596ba3",20,1
"222",1,0,437,1,4,3,"1596ba3",21,1
"232",1,1,258,3,3,3,"1596ba3",22,1
"242",1,1,263,4,4,3,"1596ba3",23,1
"252",0,1,204,1,3,3,"1596ba3",24,1
"262",1,1,296,2,2,3,"1596ba3",25,1
"272",1,1,551,5,5,3,"1596ba3",26,1
"282",1,0,481,1,5,3,"1596ba3",27,1
"292",0,1,672,1,4,3,"1596ba3",28,1
"302",1,1,299,3,3,3,"1596ba3",29,1
"313",1,0,398,1,6,3,"1596ba3",30,1
"322",1,1,315,1,1,3,"1596ba3",31,1
"332",1,0,270,2,1,3,"1596ba3",32,1
"342",1,1,337,6,6,3,"1596ba3",33,1
"352",0,0,342,2,2,3,"1596ba3",34,1
"362",1,0,356,6,1,3,"1596ba3",35,1
"372",1,1,263,4,4,3,"1596ba3",36,1
"382",1,0,358,5,1,3,"1596ba3",37,1
"392",1,0,321,2,1,3,"1596ba3",38,1
"402",1,1,1188,3,3,3,"1596ba3",39,1
"413",1,0,282,1,4,3,"1596ba3",40,1
"422",1,1,288,1,1,3,"1596ba3",41,1
"432",1,0,285,1,3,3,"1596ba3",42,1
"442",1,1,265,5,5,3,"1596ba3",43,1
"452",0,0,330,6,6,3,"1596ba3",44,1
"462",0,1,376,4,1,3,"1596ba3",45,1
"472",1,1,149,5,5,3,"1596ba3",46,1
"482",1,1,755,3,3,3,"1596ba3",47,1
"492",1,0,549,1,6,3,"1596ba3",48,1
"502",0,1,425,3,1,3,"1596ba3",49,1
"513",1,0,275,1,5,3,"1596ba3",50,1
"522",1,0,306,2,1,3,"1596ba3",51,1
"532",1,1,270,1,1,3,"1596ba3",52,1
"542",1,1,545,6,6,3,"1596ba3",53,1
"552",1,1,437,4,4,3,"1596ba3",54,1
"562",1,1,285,2,2,3,"1596ba3",55,1
"572",1,1,321,4,4,3,"1596ba3",56,1
"582",1,1,259,1,1,3,"1596ba3",57,1
"592",1,1,273,6,6,3,"1596ba3",58,1
"602",0,1,407,6,1,3,"1596ba3",59,1
"613",1,1,264,3,3,3,"1596ba3",60,1
"622",1,0,295,1,2,3,"1596ba3",61,1
"632",1,1,277,5,5,3,"1596ba3",62,1
"642",1,1,315,2,2,3,"1596ba3",63,1
"652",1,0,423,5,1,3,"1596ba3",64,1
"662",1,0,1478,1,3,3,"1596ba3",65,1
"672",1,0,252,4,1,3,"1596ba3",66,1
"682",1,0,247,1,3,3,"1596ba3",67,1
"692",0,0,212,5,5,3,"1596ba3",68,1
"702",0,0,243,3,3,3,"1596ba3",69,1
"712",1,1,334,4,4,3,"1596ba3",70,1
"722",1,1,274,2,2,3,"1596ba3",71,1
"732",1,0,287,1,2,3,"1596ba3",72,1
"742",0,1,390,5,1,3,"1596ba3",73,1
"752",0,1,492,6,1,3,"1596ba3",74,1
"762",1,1,298,6,6,3,"1596ba3",75,1
"772",1,1,278,1,1,3,"1596ba3",76,1
"782",0,1,326,1,4,3,"1596ba3",77,1
"214",-1,-1,0,6,6,3,"118e902",1,1
"314",1,1,1539,1,1,3,"118e902",2,1
"414",-1,-1,0,3,3,3,"118e902",3,1
"514",1,1,1318,5,5,3,"118e902",4,1
"614",1,0,1034,2,1,3,"118e902",5,1
"713",1,0,814,5,1,3,"118e902",6,1
"83",-1,-1,0,1,3,3,"118e902",7,1
"93",1,0,763,1,4,3,"118e902",8,1
"103",0,0,603,4,4,3,"118e902",9,1
"113",0,0,1847,2,2,3,"118e902",10,1
"123",0,1,1279,6,1,3,"118e902",11,1
"133",1,1,725,3,3,3,"118e902",12,1
"143",1,1,763,6,6,3,"118e902",13,1
"153",1,0,640,1,2,3,"118e902",14,1
"163",1,1,1036,1,1,3,"118e902",15,1
"173",0,1,490,3,1,3,"118e902",16,1
"183",1,1,735,5,5,3,"118e902",17,1
"193",0,1,614,6,1,3,"118e902",18,1
"203",1,1,730,2,2,3,"118e902",19,1
"215",1,0,595,1,4,3,"118e902",20,1
"223",0,1,703,1,5,3,"118e902",21,1
"233",1,1,654,4,4,3,"118e902",22,1
"243",0,1,798,1,3,3,"118e902",23,1
"253",1,0,819,6,1,3,"118e902",24,1
"263",1,1,503,3,3,3,"118e902",25,1
"273",0,0,582,6,6,3,"118e902",26,1
"283",1,1,1524,2,2,3,"118e902",27,1
"293",1,0,1338,1,2,3,"118e902",28,1
"303",0,1,911,5,1,3,"118e902",29,1
"315",0,0,1352,4,4,3,"118e902",30,1
"323",-1,-1,0,1,1,3,"118e902",31,1
"333",-1,-1,0,5,5,3,"118e902",32,1
"343",0,1,709,1,4,3,"118e902",33,1
"353",1,1,1180,3,3,3,"118e902",34,1
"363",-1,-1,0,2,1,3,"118e902",35,1
"373",0,0,800,1,1,3,"118e902",36,1
"383",1,0,990,5,1,3,"118e902",37,1
"393",1,0,733,1,6,3,"118e902",38,1
"403",1,1,915,6,6,3,"118e902",39,1
"415",1,1,777,2,2,3,"118e902",40,1
"423",1,1,1020,4,4,3,"118e902",41,1
"433",0,1,813,1,4,3,"118e902",42,1
"443",1,1,1306,5,5,3,"118e902",43,1
"453",1,0,850,1,3,3,"118e902",44,1
"463",1,0,966,1,4,3,"118e902",45,1
"473",0,1,677,1,5,3,"118e902",46,1
"483",1,1,766,6,6,3,"118e902",47,1
"493",1,1,548,5,5,3,"118e902",48,1
"503",1,1,624,1,1,3,"118e902",49,1
"515",0,1,614,3,1,3,"118e902",50,1
"523",1,1,663,3,3,3,"118e902",51,1
"533",1,0,1436,1,2,3,"118e902",52,1
"543",0,0,920,4,4,3,"118e902",53,1
"553",1,1,606,2,2,3,"118e902",54,1
"563",0,1,1168,1,6,3,"118e902",55,1
"573",1,0,739,3,1,3,"118e902",56,1
"583",1,0,900,2,1,3,"118e902",57,1
"593",1,1,1025,3,3,3,"118e902",58,1
"603",0,0,553,2,2,3,"118e902",59,1
"615",1,0,852,1,6,3,"118e902",60,1
"623",1,1,963,5,5,3,"118e902",61,1
"633",0,1,1362,1,4,3,"118e902",62,1
"643",1,1,1055,6,6,3,"118e902",63,1
"653",1,0,829,1,5,3,"118e902",64,1
"663",0,0,1012,4,4,3,"118e902",65,1
"673",0,0,513,1,1,3,"118e902",66,1
"683",1,1,1687,3,3,3,"118e902",67,1
"693",1,0,758,2,1,3,"118e902",68,1
"703",0,0,499,2,2,3,"118e902",69,1
"714",1,0,1815,4,1,3,"118e902",70,1
"723",1,0,1827,5,1,3,"118e902",71,1
"733",-1,-1,0,1,3,3,"118e902",72,1
"743",-1,-1,0,1,1,3,"118e902",73,1
"753",-1,-1,0,6,6,3,"118e902",74,1
"763",0,1,636,1,6,3,"118e902",75,1
"773",0,0,531,4,4,3,"118e902",76,1
"783",1,1,1185,5,5,3,"118e902",77,1
"216",1,1,483,6,6,2,"1d735f8",1,1
"316",1,0,233,1,4,2,"1d735f8",2,1
"416",1,1,229,4,4,2,"1d735f8",3,1
"516",1,0,224,1,2,2,"1d735f8",4,1
"616",1,0,245,1,6,2,"1d735f8",5,1
"715",1,1,256,1,1,2,"1d735f8",6,1
"84",1,1,299,5,5,2,"1d735f8",7,1
"94",1,0,266,3,1,2,"1d735f8",8,1
"104",1,1,246,3,3,2,"1d735f8",9,1
"114",0,1,245,5,1,2,"1d735f8",10,1
"124",1,1,254,2,2,2,"1d735f8",11,1
"134",0,0,281,3,3,2,"1d735f8",12,1
"144",0,0,260,5,5,2,"1d735f8",13,1
"154",1,1,261,6,6,2,"1d735f8",14,1
"164",1,1,278,1,1,2,"1d735f8",15,1
"174",1,1,232,4,4,2,"1d735f8",16,1
"184",1,1,275,2,2,2,"1d735f8",17,1
"194",0,1,310,4,1,2,"1d735f8",18,1
"204",0,1,281,1,3,2,"1d735f8",19,1
"217",0,1,499,5,1,2,"1d735f8",20,1
"224",1,0,315,2,1,2,"1d735f8",21,1
"234",0,1,445,1,6,2,"1d735f8",22,1
"244",1,1,245,5,5,2,"1d735f8",23,1
"254",0,1,379,1,6,2,"1d735f8",24,1
"264",1,1,260,3,3,2,"1d735f8",25,1
"274",0,1,520,1,4,2,"1d735f8",26,1
"284",0,1,329,1,5,2,"1d735f8",27,1
"294",1,1,249,1,1,2,"1d735f8",28,1
"304",0,1,245,1,2,2,"1d735f8",29,1
"317",1,1,273,4,4,2,"1d735f8",30,1
"324",0,1,1445,3,1,2,"1d735f8",31,1
"334",1,1,327,6,6,2,"1d735f8",32,1
"344",0,0,445,2,2,2,"1d735f8",33,1
"354",1,1,256,1,1,2,"1d735f8",34,1
"364",0,1,380,1,5,2,"1d735f8",35,1
"374",0,1,1042,1,4,2,"1d735f8",36,1
"384",1,1,1048,2,2,2,"1d735f8",37,1
"394",1,1,308,3,3,2,"1d735f8",38,1
"404",1,1,285,5,5,2,"1d735f8",39,1
"417",0,1,1006,6,1,2,"1d735f8",40,1
"424",1,0,269,2,1,2,"1d735f8",41,1
"434",1,1,481,6,6,2,"1d735f8",42,1
"444",0,1,346,3,1,2,"1d735f8",43,1
"454",1,1,473,4,4,2,"1d735f8",44,1
"464",1,1,255,3,3,2,"1d735f8",45,1
"474",1,1,384,5,5,2,"1d735f8",46,1
"484",1,1,318,2,2,2,"1d735f8",47,1
"494",0,1,261,1,3,2,"1d735f8",48,1
"504",-1,-1,0,6,1,2,"1d735f8",49,1
"517",-1,-1,0,1,1,2,"1d735f8",50,1
"524",-1,-1,0,4,1,2,"1d735f8",51,1
"534",-1,-1,0,4,4,2,"1d735f8",52,1
"544",1,1,405,6,6,2,"1d735f8",53,1
"554",1,0,216,2,1,2,"1d735f8",54,1
"564",0,1,244,5,1,2,"1d735f8",55,1
"574",1,1,396,2,2,2,"1d735f8",56,1
"584",0,1,312,1,4,2,"1d735f8",57,1
"594",0,0,623,5,5,2,"1d735f8",58,1
"604",1,1,228,4,4,2,"1d735f8",59,1
"617",0,1,248,6,1,2,"1d735f8",60,1
"624",0,1,326,3,1,2,"1d735f8",61,1
"634",0,1,1184,1,5,2,"1d735f8",62,1
"644",1,1,540,3,3,2,"1d735f8",63,1
"654",1,0,326,1,2,2,"1d735f8",64,1
"664",1,1,535,1,1,2,"1d735f8",65,1
"674",1,1,413,6,6,2,"1d735f8",66,1
"684",1,1,428,1,1,2,"1d735f8",67,1
"694",0,1,660,1,6,2,"1d735f8",68,1
"704",1,1,301,2,2,2,"1d735f8",69,1
"716",0,1,1528,1,4,2,"1d735f8",70,1
"724",0,1,273,1,3,2,"1d735f8",71,1
"734",0,1,519,1,5,2,"1d735f8",72,1
"744",1,1,658,3,3,2,"1d735f8",73,1
"754",1,1,495,6,6,2,"1d735f8",74,1
"764",0,1,427,2,1,2,"1d735f8",75,1
"774",1,1,442,4,4,2,"1d735f8",76,1
"784",1,1,242,5,5,2,"1d735f8",77,1
"218",1,0,789,4,1,1,"1938b10",1,1
"318",1,1,383,5,5,1,"1938b10",2,1
"418",1,0,254,3,1,1,"1938b10",3,1
"518",1,1,363,1,1,1,"1938b10",4,1
"618",1,0,201,1,2,1,"1938b10",5,1
"717",1,1,327,3,3,1,"1938b10",6,1
"85",0,1,353,5,1,1,"1938b10",7,1
"95",1,1,379,2,2,1,"1938b10",8,1
"105",0,1,273,6,1,1,"1938b10",9,1
"115",1,1,249,6,6,1,"1938b10",10,1
"125",0,0,350,4,4,1,"1938b10",11,1
"135",1,1,196,6,6,1,"1938b10",12,1
"145",0,1,251,2,1,1,"1938b10",13,1
"155",1,1,178,4,4,1,"1938b10",14,1
"165",0,1,389,5,1,1,"1938b10",15,1
"175",1,1,240,5,5,1,"1938b10",16,1
"185",1,1,277,2,2,1,"1938b10",17,1
"195",0,1,469,6,1,1,"1938b10",18,1
"205",1,1,1754,1,1,1,"1938b10",19,1
"219",0,1,501,3,1,1,"1938b10",20,1
"225",0,1,382,4,1,1,"1938b10",21,1
"235",1,1,253,3,3,1,"1938b10",22,1
"245",1,1,417,5,5,1,"1938b10",23,1
"255",0,1,184,1,5,1,"1938b10",24,1
"265",1,1,1902,1,1,1,"1938b10",25,1
"275",0,0,643,2,2,1,"1938b10",26,1
"285",1,1,1941,6,6,1,"1938b10",27,1
"295",0,1,1962,6,1,1,"1938b10",28,1
"305",1,1,1875,4,4,1,"1938b10",29,1
"319",0,1,1860,4,1,1,"1938b10",30,1
"325",0,1,1918,1,2,1,"1938b10",31,1
"335",1,1,1851,3,3,1,"1938b10",32,1
"345",0,1,1923,3,1,1,"1938b10",33,1
"355",1,1,1995,5,5,1,"1938b10",34,1
"365",0,1,1959,1,6,1,"1938b10",35,1
"375",0,1,1917,1,2,1,"1938b10",36,1
"385",0,1,1962,1,4,1,"1938b10",37,1
"395",1,1,1596,6,6,1,"1938b10",38,1
"405",0,1,1344,1,3,1,"1938b10",39,1
"419",1,1,1941,2,2,1,"1938b10",40,1
"425",1,1,1532,1,1,1,"1938b10",41,1
"435",0,1,1948,1,5,1,"1938b10",42,1
"445",1,1,1987,3,3,1,"1938b10",43,1
"455",1,1,1977,4,4,1,"1938b10",44,1
"465",1,1,1969,5,5,1,"1938b10",45,1
"475",0,1,1931,2,1,1,"1938b10",46,1
"485",1,1,1758,3,3,1,"1938b10",47,1
"495",1,1,1856,4,4,1,"1938b10",48,1
"505",1,1,1902,2,2,1,"1938b10",49,1
"519",0,1,1778,3,1,1,"1938b10",50,1
"525",1,1,1805,1,1,1,"1938b10",51,1
"535",1,1,1925,6,6,1,"1938b10",52,1
"545",0,1,1577,1,4,1,"1938b10",53,1
"555",0,1,1722,6,1,1,"1938b10",54,1
"565",0,1,1962,1,5,1,"1938b10",55,1
"575",0,1,1860,5,1,1,"1938b10",56,1
"585",0,1,1747,1,2,1,"1938b10",57,1
"595",0,1,1852,4,1,1,"1938b10",58,1
"605",1,1,1735,6,6,1,"1938b10",59,1
"619",1,1,1886,4,4,1,"1938b10",60,1
"625",0,1,1892,1,6,1,"1938b10",61,1
"635",1,1,1898,2,2,1,"1938b10",62,1
"645",0,1,1744,3,1,1,"1938b10",63,1
"655",1,1,1808,1,1,1,"1938b10",64,1
"665",1,1,1964,5,5,1,"1938b10",65,1
"675",1,1,1877,3,3,1,"1938b10",66,1
"685",1,1,1876,6,6,1,"1938b10",67,1
"695",0,1,1523,1,2,1,"1938b10",68,1
"705",0,1,1979,1,4,1,"1938b10",69,1
"718",0,1,1832,3,1,1,"1938b10",70,1
"725",1,1,1837,3,3,1,"1938b10",71,1
"735",0,1,1909,1,6,1,"1938b10",72,1
"745",1,1,1922,2,2,1,"1938b10",73,1
"755",1,1,1864,4,4,1,"1938b10",74,1
"765",1,1,1168,5,5,1,"1938b10",75,1
"775",1,1,1816,1,1,1,"1938b10",76,1
"785",0,1,1966,5,1,1,"1938b10",77,1
"220",1,1,729,2,2,3,"156d4e2",1,1
"320",1,1,670,3,3,3,"156d4e2",2,1
"420",1,0,511,6,1,3,"156d4e2",3,1
"520",1,0,597,3,1,3,"156d4e2",4,1
"620",0,1,1196,2,1,3,"156d4e2",5,1
"719",0,0,1212,6,6,3,"156d4e2",6,1
"86",1,1,360,1,1,3,"156d4e2",7,1
"96",1,1,760,5,5,3,"156d4e2",8,1
"106",1,1,421,4,4,3,"156d4e2",9,1
"116",1,0,376,5,1,3,"156d4e2",10,1
"126",1,0,486,4,1,3,"156d4e2",11,1
"136",0,0,282,6,6,3,"156d4e2",12,1
"146",0,1,422,1,4,3,"156d4e2",13,1
"156",1,1,350,3,3,3,"156d4e2",14,1
"166",1,0,390,1,2,3,"156d4e2",15,1
"176",0,1,426,6,1,3,"156d4e2",16,1
"186",1,1,316,1,1,3,"156d4e2",17,1
"196",0,1,354,1,3,3,"156d4e2",18,1
"206",0,0,711,5,5,3,"156d4e2",19,1
"2110",1,1,288,4,4,3,"156d4e2",20,1
"226",1,1,341,2,2,3,"156d4e2",21,1
"236",1,0,525,5,1,3,"156d4e2",22,1
"246",0,0,280,3,3,3,"156d4e2",23,1
"256",1,1,620,4,4,3,"156d4e2",24,1
"266",0,1,588,3,1,3,"156d4e2",25,1
"276",1,0,1141,1,6,3,"156d4e2",26,1
"286",1,1,114,6,6,3,"156d4e2",27,1
"296",1,1,530,2,2,3,"156d4e2",28,1
"306",1,0,237,1,5,3,"156d4e2",29,1
"3110",0,0,289,5,5,3,"156d4e2",30,1
"326",1,1,270,1,1,3,"156d4e2",31,1
"336",1,0,601,1,4,3,"156d4e2",32,1
"346",0,1,499,1,2,3,"156d4e2",33,1
"356",1,0,449,1,3,3,"156d4e2",34,1
"366",0,1,734,2,1,3,"156d4e2",35,1
"376",1,1,615,5,5,3,"156d4e2",36,1
"386",0,1,372,5,1,3,"156d4e2",37,1
"396",1,1,369,2,2,3,"156d4e2",38,1
"406",1,1,746,6,6,3,"156d4e2",39,1
"4110",1,0,430,1,6,3,"156d4e2",40,1
"426",1,1,374,4,4,3,"156d4e2",41,1
"436",0,0,503,3,3,3,"156d4e2",42,1
"446",1,1,542,1,1,3,"156d4e2",43,1
"456",0,1,535,4,1,3,"156d4e2",44,1
"466",1,1,1381,6,6,3,"156d4e2",45,1
"476",1,0,482,1,5,3,"156d4e2",46,1
"486",1,0,507,4,1,3,"156d4e2",47,1
"496",0,1,685,1,2,3,"156d4e2",48,1
"506",1,1,606,3,3,3,"156d4e2",49,1
"5110",1,1,224,5,5,3,"156d4e2",50,1
"526",0,1,613,3,1,3,"156d4e2",51,1
"536",1,1,1566,4,4,3,"156d4e2",52,1
"546",1,1,289,1,1,3,"156d4e2",53,1
"556",1,1,335,2,2,3,"156d4e2",54,1
"566",1,0,418,1,6,3,"156d4e2",55,1
"576",1,0,622,5,1,3,"156d4e2",56,1
"586",1,1,695,6,6,3,"156d4e2",57,1
"596",1,1,532,5,5,3,"156d4e2",58,1
"606",1,0,744,2,1,3,"156d4e2",59,1
"6110",1,0,372,1,4,3,"156d4e2",60,1
"626",1,1,546,1,1,3,"156d4e2",61,1
"636",1,1,447,2,2,3,"156d4e2",62,1
"646",0,1,456,1,6,3,"156d4e2",63,1
"656",0,0,720,4,4,3,"156d4e2",64,1
"666",1,1,1072,3,3,3,"156d4e2",65,1
"676",1,0,563,3,1,3,"156d4e2",66,1
"686",1,0,503,2,1,3,"156d4e2",67,1
"696",1,1,530,1,1,3,"156d4e2",68,1
"706",1,1,489,4,4,3,"156d4e2",69,1
"7110",1,0,507,1,5,3,"156d4e2",70,1
"726",0,1,401,1,4,3,"156d4e2",71,1
"736",1,0,405,1,3,3,"156d4e2",72,1
"746",1,1,498,6,6,3,"156d4e2",73,1
"756",0,0,1189,2,2,3,"156d4e2",74,1
"766",1,1,379,5,5,3,"156d4e2",75,1
"776",1,1,656,3,3,3,"156d4e2",76,1
"786",1,0,674,1,6,3,"156d4e2",77,1
"227",1,0,544,3,1,3,"121f918",1,1
"327",1,1,330,3,3,3,"121f918",2,1
"427",0,1,319,1,5,3,"121f918",3,1
"527",1,1,306,1,1,3,"121f918",4,1
"627",1,1,410,5,5,3,"121f918",5,1
"720",1,0,588,1,2,3,"121f918",6,1
"87",1,1,383,2,2,3,"121f918",7,1
"97",0,1,500,4,1,3,"121f918",8,1
"107",1,1,386,6,6,3,"121f918",9,1
"117",0,1,518,6,1,3,"121f918",10,1
"127",1,1,388,4,4,3,"121f918",11,1
"137",0,1,575,2,1,3,"121f918",12,1
"147",0,1,593,1,5,3,"121f918",13,1
"157",1,0,313,1,4,3,"121f918",14,1
"167",1,1,367,6,6,3,"121f918",15,1
"177",1,1,509,5,5,3,"121f918",16,1
"187",1,1,325,2,2,3,"121f918",17,1
"197",1,1,607,3,3,3,"121f918",18,1
"207",0,1,347,1,6,3,"121f918",19,1
"2111",0,0,707,4,4,3,"121f918",20,1
"228",1,1,352,1,1,3,"121f918",21,1
"237",0,1,328,3,1,3,"121f918",22,1
"247",0,1,330,6,1,3,"121f918",23,1
"257",1,1,415,3,3,3,"121f918",24,1
"267",1,1,644,4,4,3,"121f918",25,1
"277",-1,-1,0,5,5,3,"121f918",26,1
"287",0,1,504,1,3,3,"121f918",27,1
"297",0,0,1047,2,2,3,"121f918",28,1
"307",0,1,439,5,1,3,"121f918",29,1
"3111",1,1,414,6,6,3,"121f918",30,1
"328",1,0,668,1,2,3,"121f918",31,1
"337",0,1,454,4,1,3,"121f918",32,1
"347",1,1,523,1,1,3,"121f918",33,1
"357",1,1,302,1,1,3,"121f918",34,1
"367",0,1,357,1,3,3,"121f918",35,1
"377",0,1,663,1,5,3,"121f918",36,1
"387",0,1,378,1,4,3,"121f918",37,1
"397",1,1,400,3,3,3,"121f918",38,1
"407",0,1,798,1,6,3,"121f918",39,1
"4111",1,1,905,5,5,3,"121f918",40,1
"428",1,1,443,6,6,3,"121f918",41,1
"437",0,0,869,4,4,3,"121f918",42,1
"447",0,1,602,1,2,3,"121f918",43,1
"457",0,0,378,2,2,3,"121f918",44,1
"467",0,1,288,1,5,3,"121f918",45,1
"477",1,0,552,1,3,3,"121f918",46,1
"487",1,0,353,1,2,3,"121f918",47,1
"497",1,1,364,4,4,3,"121f918",48,1
"507",0,1,452,1,6,3,"121f918",49,1
"5111",1,1,465,5,5,3,"121f918",50,1
"528",1,1,631,6,6,3,"121f918",51,1
"537",0,1,328,4,1,3,"121f918",52,1
"547",1,1,794,2,2,3,"121f918",53,1
"557",1,1,292,1,1,3,"121f918",54,1
"567",0,0,864,3,3,3,"121f918",55,1
"577",1,1,953,2,2,3,"121f918",56,1
"587",0,1,375,1,5,3,"121f918",57,1
"597",1,1,480,4,4,3,"121f918",58,1
"607",0,1,348,6,1,3,"121f918",59,1
"6111",1,1,335,6,6,3,"121f918",60,1
"628",0,1,565,3,1,3,"121f918",61,1
"637",1,1,343,1,1,3,"121f918",62,1
"647",1,1,696,3,3,3,"121f918",63,1
"657",1,1,475,5,5,3,"121f918",64,1
"667",1,0,560,2,1,3,"121f918",65,1
"677",0,1,608,4,1,3,"121f918",66,1
"687",1,1,697,5,5,3,"121f918",67,1
"697",1,1,514,2,2,3,"121f918",68,1
"707",1,1,384,1,1,3,"121f918",69,1
"7111",0,1,413,3,1,3,"121f918",70,1
"727",1,1,372,6,6,3,"121f918",71,1
"737",0,1,305,5,1,3,"121f918",72,1
"747",0,1,358,1,6,3,"121f918",73,1
"757",0,1,366,1,4,3,"121f918",74,1
"767",1,1,417,4,4,3,"121f918",75,1
"777",1,0,416,1,2,3,"121f918",76,1
"787",1,1,333,3,3,3,"121f918",77,1
"229",1,1,833,2,2,2,"1ada5da",1,1
"329",1,1,318,1,1,2,"1ada5da",2,1
"429",1,0,382,1,4,2,"1ada5da",3,1
"529",1,0,5,5,1,2,"1ada5da",4,1
"629",1,1,422,4,4,2,"1ada5da",5,1
"728",0,1,174,3,1,2,"1ada5da",6,1
"88",1,0,170,1,2,2,"1ada5da",7,1
"98",0,0,253,3,3,2,"1ada5da",8,1
"108",0,1,224,6,1,2,"1ada5da",9,1
"118",1,1,131,5,5,2,"1ada5da",10,1
"128",0,0,86,6,6,2,"1ada5da",11,1
"138",1,1,54,3,3,2,"1ada5da",12,1
"148",1,0,520,1,3,2,"1ada5da",13,1
"158",1,0,2009,1,6,2,"1ada5da",14,1
"168",1,1,1974,1,1,2,"1ada5da",15,1
"178",1,0,1982,4,1,2,"1ada5da",16,1
"188",1,0,1983,1,5,2,"1ada5da",17,1
"198",1,1,1977,4,4,2,"1ada5da",18,1
"208",1,0,1996,1,2,2,"1ada5da",19,1
"2112",1,1,1968,5,5,2,"1ada5da",20,1
"2210",1,1,1996,6,6,2,"1ada5da",21,1
"238",0,0,2014,2,2,2,"1ada5da",22,1
"248",0,1,1984,1,5,2,"1ada5da",23,1
"258",0,0,2002,2,2,2,"1ada5da",24,1
"268",0,0,1978,3,3,2,"1ada5da",25,1
"278",0,1,1988,1,6,2,"1ada5da",26,1
"288",0,0,1975,4,4,2,"1ada5da",27,1
"298",0,0,1993,6,6,2,"1ada5da",28,1
"308",0,1,1999,1,3,2,"1ada5da",29,1
"3112",0,0,1996,5,5,2,"1ada5da",30,1
"3210",0,1,1991,1,2,2,"1ada5da",31,1
"338",0,1,1999,1,4,2,"1ada5da",32,1
"348",0,0,1996,1,1,2,"1ada5da",33,1
"358",0,1,1970,4,1,2,"1ada5da",34,1
"368",0,1,1971,1,3,2,"1ada5da",35,1
"378",0,0,1975,4,4,2,"1ada5da",36,1
"388",1,1,1997,1,1,2,"1ada5da",37,1
"398",1,0,1984,1,2,2,"1ada5da",38,1
"408",1,1,2001,5,5,2,"1ada5da",39,1
"4112",1,1,1978,6,6,2,"1ada5da",40,1
"4210",1,1,1984,2,2,2,"1ada5da",41,1
"438",1,0,1963,5,1,2,"1ada5da",42,1
"448",0,0,1999,3,3,2,"1ada5da",43,1
"458",0,1,2005,1,6,2,"1ada5da",44,1
"468",0,1,1974,2,1,2,"1ada5da",45,1
"478",-1,-1,0,4,4,2,"1ada5da",46,1
"488",-1,-1,0,4,1,2,"1ada5da",47,1
"498",0,0,1981,3,3,2,"1ada5da",48,1
"508",0,1,1974,1,6,2,"1ada5da",49,1
"5112",0,0,2003,5,5,2,"1ada5da",50,1
"5210",0,1,1975,5,1,2,"1ada5da",51,1
"538",0,0,1997,1,1,2,"1ada5da",52,1
"548",0,0,1976,2,2,2,"1ada5da",53,1
"558",0,0,1996,6,6,2,"1ada5da",54,1
"568",0,1,1984,1,3,2,"1ada5da",55,1
"578",0,1,671,5,1,2,"1ada5da",56,1
"588",1,0,1984,4,1,2,"1ada5da",57,1
"598",-1,-1,0,3,3,2,"1ada5da",58,1
"608",-1,-1,0,3,1,2,"1ada5da",59,1
"6112",-1,-1,0,6,1,2,"1ada5da",60,1
"6210",-1,-1,0,4,4,2,"1ada5da",61,1
"638",-1,-1,0,6,6,2,"1ada5da",62,1
"648",-1,-1,0,1,2,2,"1ada5da",63,1
"658",1,1,1817,2,2,2,"1ada5da",64,1
"668",-1,-1,0,1,1,2,"1ada5da",65,1
"678",-1,0,1431,5,5,2,"1ada5da",66,1
"688",1,1,2004,5,5,2,"1ada5da",67,1
"698",1,1,2012,4,4,2,"1ada5da",68,1
"708",1,1,1066,3,3,2,"1ada5da",69,1
"7112",-1,-1,0,6,6,2,"1ada5da",70,1
"729",1,0,1973,3,1,2,"1ada5da",71,1
"738",1,0,2000,4,1,2,"1ada5da",72,1
"748",1,0,1972,5,1,2,"1ada5da",73,1
"758",1,0,1995,1,2,2,"1ada5da",74,1
"768",1,1,1998,2,2,2,"1ada5da",75,1
"778",1,1,2000,1,1,2,"1ada5da",76,1
"788",1,0,2007,1,6,2,"1ada5da",77,1
"230",1,0,900,1,3,1,"12150cd",1,1
"330",1,1,619,6,6,1,"12150cd",2,1
"430",1,1,505,5,5,1,"12150cd",3,1
"530",1,1,507,1,1,1,"12150cd",4,1
"630",1,1,612,3,3,1,"12150cd",5,1
"730",0,0,708,4,4,1,"12150cd",6,1
"89",1,0,401,2,1,1,"12150cd",7,1
"99",0,1,756,1,6,1,"12150cd",8,1
"109",0,1,552,1,4,1,"12150cd",9,1
"119",0,1,268,1,5,1,"12150cd",10,1
"129",1,1,564,2,2,1,"12150cd",11,1
"139",0,1,557,3,1,1,"12150cd",12,1
"149",0,1,283,1,6,1,"12150cd",13,1
"159",1,0,673,2,1,1,"12150cd",14,1
"169",0,1,131,5,1,1,"12150cd",15,1
"179",1,1,261,4,4,1,"12150cd",16,1
"189",1,1,239,2,2,1,"12150cd",17,1
"199",1,1,406,5,5,1,"12150cd",18,1
"209",1,1,269,1,1,1,"12150cd",19,1
"2113",1,1,251,6,6,1,"12150cd",20,1
"2211",1,0,547,4,1,1,"12150cd",21,1
"239",1,1,237,3,3,1,"12150cd",22,1
"249",0,1,261,6,1,1,"12150cd",23,1
"259",1,1,324,4,4,1,"12150cd",24,1
"269",1,1,268,6,6,1,"12150cd",25,1
"279",0,1,239,1,4,1,"12150cd",26,1
"289",0,1,215,1,2,1,"12150cd",27,1
"299",0,1,250,3,1,1,"12150cd",28,1
"309",1,1,526,1,1,1,"12150cd",29,1
"3113",0,1,402,5,1,1,"12150cd",30,1
"3211",0,0,255,5,5,1,"12150cd",31,1
"339",1,1,494,3,3,1,"12150cd",32,1
"349",1,1,275,2,2,1,"12150cd",33,1
"359",0,1,322,3,1,1,"12150cd",34,1
"369",0,1,393,1,4,1,"12150cd",35,1
"379",1,1,232,3,3,1,"12150cd",36,1
"389",0,1,197,5,1,1,"12150cd",37,1
"399",0,0,341,1,1,1,"12150cd",38,1
"409",1,1,219,2,2,1,"12150cd",39,1
"4113",1,1,781,5,5,1,"12150cd",40,1
"4211",1,0,287,1,2,1,"12150cd",41,1
"439",0,1,608,1,6,1,"12150cd",42,1
"449",1,1,597,4,4,1,"12150cd",43,1
"459",1,1,475,6,6,1,"12150cd",44,1
"469",1,1,370,2,2,1,"12150cd",45,1
"479",1,0,551,1,2,1,"12150cd",46,1
"489",0,1,353,4,1,1,"12150cd",47,1
"499",1,1,456,1,1,1,"12150cd",48,1
"509",0,0,257,4,4,1,"12150cd",49,1
"5113",1,1,659,5,5,1,"12150cd",50,1
"5211",1,1,476,3,3,1,"12150cd",51,1
"539",0,1,407,6,1,1,"12150cd",52,1
"549",1,1,262,6,6,1,"12150cd",53,1
"559",0,1,229,1,3,1,"12150cd",54,1
"569",0,1,267,5,1,1,"12150cd",55,1
"579",1,1,277,2,2,1,"12150cd",56,1
"589",1,1,668,4,4,1,"12150cd",57,1
"599",0,1,526,6,1,1,"12150cd",58,1
"609",0,1,349,2,1,1,"12150cd",59,1
"6113",1,1,625,6,6,1,"12150cd",60,1
"6211",0,1,222,1,4,1,"12150cd",61,1
"639",1,1,241,1,1,1,"12150cd",62,1
"649",0,1,382,1,3,1,"12150cd",63,1
"659",0,1,192,1,5,1,"12150cd",64,1
"669",1,1,330,3,3,1,"12150cd",65,1
"679",1,1,351,5,5,1,"12150cd",66,1
"689",0,1,536,3,1,1,"12150cd",67,1
"699",1,1,463,6,6,1,"12150cd",68,1
"709",0,1,221,6,1,1,"12150cd",69,1
"7113",1,1,250,5,5,1,"12150cd",70,1
"7210",0,1,165,1,4,1,"12150cd",71,1
"739",0,1,357,2,1,1,"12150cd",72,1
"749",1,1,475,3,3,1,"12150cd",73,1
"759",1,1,283,1,1,1,"12150cd",74,1
"769",1,1,273,4,4,1,"12150cd",75,1
"779",0,1,305,5,1,1,"12150cd",76,1
"789",1,1,630,2,2,1,"12150cd",77,1
"240",0,1,629,1,6,1,"1b72de7",1,1
"340",0,1,365,5,1,1,"1b72de7",2,1
"440",1,1,923,6,6,1,"1b72de7",3,1
"540",1,1,350,3,3,1,"1b72de7",4,1
"640",0,1,976,1,4,1,"1b72de7",5,1
"740",0,1,297,3,1,1,"1b72de7",6,1
"810",1,1,272,4,4,1,"1b72de7",7,1
"910",1,1,323,2,2,1,"1b72de7",8,1
"1010",1,1,279,1,1,1,"1b72de7",9,1
"1110",1,1,343,5,5,1,"1b72de7",10,1
"1210",0,1,865,2,1,1,"1b72de7",11,1
"1310",0,1,348,1,4,1,"1b72de7",12,1
"1410",0,1,578,1,6,1,"1b72de7",13,1
"1510",0,1,444,3,1,1,"1b72de7",14,1
"1610",0,1,1019,5,1,1,"1b72de7",15,1
"1710",1,1,297,4,4,1,"1b72de7",16,1
"1810",1,0,1149,2,1,1,"1b72de7",17,1
"1910",0,0,368,6,6,1,"1b72de7",18,1
"2010",1,1,510,3,3,1,"1b72de7",19,1
"2114",1,1,344,2,2,1,"1b72de7",20,1
"2212",1,1,266,5,5,1,"1b72de7",21,1
"2310",1,1,1649,1,1,1,"1b72de7",22,1
"2410",0,1,1728,1,2,1,"1b72de7",23,1
"2510",1,1,470,6,6,1,"1b72de7",24,1
"2610",1,1,367,5,5,1,"1b72de7",25,1
"2710",1,1,450,1,1,1,"1b72de7",26,1
"2810",0,1,392,1,5,1,"1b72de7",27,1
"2910",0,1,1221,4,1,1,"1b72de7",28,1
"3010",1,1,1033,2,2,1,"1b72de7",29,1
"3114",1,1,450,4,4,1,"1b72de7",30,1
"3212",0,1,621,6,1,1,"1b72de7",31,1
"3310",0,1,726,1,3,1,"1b72de7",32,1
"3410",1,1,586,3,3,1,"1b72de7",33,1
"3510",1,1,289,5,5,1,"1b72de7",34,1
"3610",1,1,477,1,1,1,"1b72de7",35,1
"3710",1,1,976,2,2,1,"1b72de7",36,1
"3810",1,1,668,3,3,1,"1b72de7",37,1
"3910",0,1,1057,6,1,1,"1b72de7",38,1
"4010",0,1,367,1,5,1,"1b72de7",39,1
"4114",1,1,1348,4,4,1,"1b72de7",40,1
"4212",0,1,301,4,1,1,"1b72de7",41,1
"4310",0,1,1922,2,1,1,"1b72de7",42,1
"4410",1,1,324,6,6,1,"1b72de7",43,1
"4510",0,1,1324,3,1,1,"1b72de7",44,1
"4610",0,1,391,2,1,1,"1b72de7",45,1
"4710",1,1,320,1,1,1,"1b72de7",46,1
"4810",0,1,607,6,1,1,"1b72de7",47,1
"4910",1,1,386,2,2,1,"1b72de7",48,1
"5010",1,1,491,3,3,1,"1b72de7",49,1
"5114",0,1,351,3,1,1,"1b72de7",50,1
"5212",1,1,293,4,4,1,"1b72de7",51,1
"5310",0,1,417,1,4,1,"1b72de7",52,1
"5410",1,1,1075,5,5,1,"1b72de7",53,1
"5510",0,1,368,5,1,1,"1b72de7",54,1
"5610",1,1,371,6,6,1,"1b72de7",55,1
"5710",1,1,334,3,3,1,"1b72de7",56,1
"5810",1,1,307,4,4,1,"1b72de7",57,1
"5910",1,1,513,1,1,1,"1b72de7",58,1
"6010",1,1,653,6,6,1,"1b72de7",59,1
"6114",0,1,420,1,2,1,"1b72de7",60,1
"6212",1,1,1391,2,2,1,"1b72de7",61,1
"6310",0,1,399,6,1,1,"1b72de7",62,1
"6410",0,1,342,1,4,1,"1b72de7",63,1
"6510",0,1,329,3,1,1,"1b72de7",64,1
"6610",1,1,496,5,5,1,"1b72de7",65,1
"6710",0,1,350,5,1,1,"1b72de7",66,1
"6810",0,1,918,1,5,1,"1b72de7",67,1
"6910",0,1,609,1,3,1,"1b72de7",68,1
"7010",1,1,522,4,4,1,"1b72de7",69,1
"7114",1,1,352,1,1,1,"1b72de7",70,1
"7211",1,1,399,3,3,1,"1b72de7",71,1
"7310",1,1,480,2,2,1,"1b72de7",72,1
"7410",0,1,440,6,1,1,"1b72de7",73,1
"7510",1,1,403,5,5,1,"1b72de7",74,1
"7610",0,1,2004,1,2,1,"1b72de7",75,1
"7710",0,1,432,4,1,1,"1b72de7",76,1
"7810",1,1,1005,6,6,1,"1b72de7",77,1
"250",1,1,683,2,2,3,"188486b",1,1
"350",1,0,805,2,1,3,"188486b",2,1
"450",1,1,275,1,1,3,"188486b",3,1
"550",1,1,574,6,6,3,"188486b",4,1
"650",1,1,357,5,5,3,"188486b",5,1
"750",0,1,349,4,1,3,"188486b",6,1
"811",0,1,576,6,1,3,"188486b",7,1
"911",0,1,355,1,5,3,"188486b",8,1
"1011",1,0,369,3,1,3,"188486b",9,1
"1111",1,1,467,3,3,3,"188486b",10,1
"1211",1,1,337,4,4,3,"188486b",11,1
"1311",1,1,409,6,6,3,"188486b",12,1
"1411",0,1,475,1,6,3,"188486b",13,1
"1511",1,0,362,1,2,3,"188486b",14,1
"1611",1,0,463,1,4,3,"188486b",15,1
"1711",1,1,408,1,1,3,"188486b",16,1
"1811",1,1,462,5,5,3,"188486b",17,1
"1911",1,1,391,3,3,3,"188486b",18,1
"2011",0,1,354,5,1,3,"188486b",19,1
"2115",1,1,306,4,4,3,"188486b",20,1
"2213",1,1,312,2,2,3,"188486b",21,1
"2311",1,0,305,3,1,3,"188486b",22,1
"2411",0,1,453,6,1,3,"188486b",23,1
"2511",1,1,484,2,2,3,"188486b",24,1
"2611",1,0,491,2,1,3,"188486b",25,1
"2711",0,1,536,1,4,3,"188486b",26,1
"2811",1,0,455,1,3,3,"188486b",27,1
"2911",1,1,614,3,3,3,"188486b",28,1
"3011",0,1,543,5,1,3,"188486b",29,1
"3115",1,1,338,4,4,3,"188486b",30,1
"3213",1,1,323,5,5,3,"188486b",31,1
"3311",1,1,488,6,6,3,"188486b",32,1
"3411",1,1,373,1,1,3,"188486b",33,1
"3511",1,1,1066,6,6,3,"188486b",34,1
"3611",1,1,531,5,5,3,"188486b",35,1
"3711",1,1,596,2,2,3,"188486b",36,1
"3811",1,1,576,3,3,3,"188486b",37,1
"3911",1,0,472,1,2,3,"188486b",38,1
"4011",0,1,438,6,1,3,"188486b",39,1
"4115",1,1,450,1,1,3,"188486b",40,1
"4213",0,1,413,1,5,3,"188486b",41,1
"4311",1,0,353,1,4,3,"188486b",42,1
"4411",1,1,403,4,4,3,"188486b",43,1
"4511",1,0,486,3,1,3,"188486b",44,1
"4611",0,1,688,6,1,3,"188486b",45,1
"4711",1,1,500,1,1,3,"188486b",46,1
"4811",1,0,687,1,3,3,"188486b",47,1
"4911",1,1,382,3,3,3,"188486b",48,1
"5011",1,1,297,6,6,3,"188486b",49,1
"5115",0,1,314,4,1,3,"188486b",50,1
"5213",1,1,368,4,4,3,"188486b",51,1
"5311",0,1,503,5,1,3,"188486b",52,1
"5411",1,1,371,5,5,3,"188486b",53,1
"5511",1,1,463,2,2,3,"188486b",54,1
"5611",1,0,384,1,2,3,"188486b",55,1
"5711",1,1,339,5,5,3,"188486b",56,1
"5811",1,0,369,3,1,3,"188486b",57,1
"5911",1,0,398,1,4,3,"188486b",58,1
"6011",0,0,1344,1,1,3,"188486b",59,1
"6115",1,0,575,5,1,3,"188486b",60,1
"6213",0,1,574,1,6,3,"188486b",61,1
"6311",1,0,726,2,1,3,"188486b",62,1
"6411",1,1,390,6,6,3,"188486b",63,1
"6511",1,1,441,4,4,3,"188486b",64,1
"6611",1,1,535,2,2,3,"188486b",65,1
"6711",1,1,543,3,3,3,"188486b",66,1
"6811",1,0,376,1,5,3,"188486b",67,1
"6911",1,1,629,3,3,3,"188486b",68,1
"7011",1,1,385,4,4,3,"188486b",69,1
"7115",1,1,339,1,1,3,"188486b",70,1
"7212",1,0,431,6,1,3,"188486b",71,1
"7311",0,1,485,4,1,3,"188486b",72,1
"7411",1,0,367,1,2,3,"188486b",73,1
"7511",1,1,431,2,2,3,"188486b",74,1
"7611",1,1,308,6,6,3,"188486b",75,1
"7711",1,1,424,5,5,3,"188486b",76,1
"7811",1,0,188,3,1,3,"188486b",77,1
"260",0,1,1124,3,1,2,"1101347",1,1
"360",0,1,356,1,6,2,"1101347",2,1
"460",1,1,767,3,3,2,"1101347",3,1
"560",1,1,460,2,2,2,"1101347",4,1
"660",1,1,299,5,5,2,"1101347",5,1
"760",1,0,474,1,4,2,"1101347",6,1
"812",1,1,271,4,4,2,"1101347",7,1
"912",1,1,365,1,1,2,"1101347",8,1
"1012",1,0,837,5,1,2,"1101347",9,1
"1112",1,1,404,6,6,2,"1101347",10,1
"1212",1,0,521,2,1,2,"1101347",11,1
"1312",1,0,405,3,1,2,"1101347",12,1
"1412",0,1,479,6,1,2,"1101347",13,1
"1512",0,0,451,1,1,2,"1101347",14,1
"1612",1,1,271,6,6,2,"1101347",15,1
"1712",1,0,700,1,2,2,"1101347",16,1
"1812",1,0,341,1,5,2,"1101347",17,1
"1912",0,0,199,4,4,2,"1101347",18,1
"2012",1,1,250,5,5,2,"1101347",19,1
"2116",1,1,387,2,2,2,"1101347",20,1
"2214",1,0,839,1,4,2,"1101347",21,1
"2312",1,1,409,3,3,2,"1101347",22,1
"2412",1,1,442,5,5,2,"1101347",23,1
"2512",0,1,312,1,4,2,"1101347",24,1
"2612",0,1,332,5,1,2,"1101347",25,1
"2712",1,1,351,1,1,2,"1101347",26,1
"2812",1,0,410,1,2,2,"1101347",27,1
"2912",1,1,261,4,4,2,"1101347",28,1
"3012",0,1,391,6,1,2,"1101347",29,1
"3116",0,1,360,1,3,2,"1101347",30,1
"3214",1,1,309,2,2,2,"1101347",31,1
"3312",1,1,512,3,3,2,"1101347",32,1
"3412",1,1,347,6,6,2,"1101347",33,1
"3512",1,0,354,4,1,2,"1101347",34,1
"3612",1,1,307,5,5,2,"1101347",35,1
"3712",0,1,397,1,6,2,"1101347",36,1
"3812",1,1,429,4,4,2,"1101347",37,1
"3912",1,1,419,1,1,2,"1101347",38,1
"4012",0,1,338,1,5,2,"1101347",39,1
"4116",1,1,631,6,6,2,"1101347",40,1
"4214",1,1,368,3,3,2,"1101347",41,1
"4312",1,1,403,2,2,2,"1101347",42,1
"4412",1,0,391,3,1,2,"1101347",43,1
"4512",1,0,618,1,2,2,"1101347",44,1
"4612",1,1,412,3,3,2,"1101347",45,1
"4712",1,1,481,1,1,2,"1101347",46,1
"4812",1,1,426,5,5,2,"1101347",47,1
"4912",0,0,369,4,4,2,"1101347",48,1
"5012",0,1,564,1,6,2,"1101347",49,1
"5116",1,1,461,6,6,2,"1101347",50,1
"5214",1,1,298,2,2,2,"1101347",51,1
"5312",0,1,450,5,1,2,"1101347",52,1
"5412",1,0,418,2,1,2,"1101347",53,1
"5512",0,1,271,1,4,2,"1101347",54,1
"5612",1,0,441,1,3,2,"1101347",55,1
"5712",0,1,417,1,6,2,"1101347",56,1
"5812",1,1,456,1,1,2,"1101347",57,1
"5912",0,0,499,5,5,2,"1101347",58,1
"6012",1,0,438,2,1,2,"1101347",59,1
"6116",0,0,267,6,6,2,"1101347",60,1
"6214",1,1,772,4,4,2,"1101347",61,1
"6312",1,1,330,3,3,2,"1101347",62,1
"6412",0,1,442,1,5,2,"1101347",63,1
"6512",1,0,431,1,3,2,"1101347",64,1
"6612",0,1,454,1,4,2,"1101347",65,1
"6712",1,1,499,2,2,2,"1101347",66,1
"6812",0,0,337,5,5,2,"1101347",67,1
"6912",0,1,385,1,4,2,"1101347",68,1
"7012",1,1,592,4,4,2,"1101347",69,1
"7116",1,1,894,3,3,2,"1101347",70,1
"7213",1,1,441,6,6,2,"1101347",71,1
"7312",1,0,241,2,1,2,"1101347",72,1
"7412",0,1,385,1,6,2,"1101347",73,1
"7512",1,0,820,1,5,2,"1101347",74,1
"7612",1,1,290,2,2,2,"1101347",75,1
"7712",1,0,591,1,3,2,"1101347",76,1
"7812",1,1,401,1,1,2,"1101347",77,1
"270",1,1,802,3,3,3,"1138c52",1,1
"370",1,1,391,1,1,3,"1138c52",2,1
"470",1,1,596,2,2,3,"1138c52",3,1
"570",1,0,511,2,1,3,"1138c52",4,1
"670",1,0,468,1,4,3,"1138c52",5,1
"770",1,1,422,5,5,3,"1138c52",6,1
"813",0,0,427,6,6,3,"1138c52",7,1
"913",1,0,431,1,3,3,"1138c52",8,1
"1013",0,1,498,6,1,3,"1138c52",9,1
"1113",1,1,474,4,4,3,"1138c52",10,1
"1213",1,0,363,5,1,3,"1138c52",11,1
"1313",1,1,569,1,1,3,"1138c52",12,1
"1413",0,0,351,4,4,3,"1138c52",13,1
"1513",1,1,339,3,3,3,"1138c52",14,1
"1613",0,0,331,2,2,3,"1138c52",15,1
"1713",1,1,494,5,5,3,"1138c52",16,1
"1813",0,1,402,5,1,3,"1138c52",17,1
"1913",0,1,363,4,1,3,"1138c52",18,1
"2013",1,1,426,6,6,3,"1138c52",19,1
"2117",1,0,375,3,1,3,"1138c52",20,1
"2215",1,0,318,1,6,3,"1138c52",21,1
"2313",1,0,360,1,2,3,"1138c52",22,1
"2413",0,1,407,4,1,3,"1138c52",23,1
"2513",1,0,360,1,6,3,"1138c52",24,1
"2613",1,1,391,1,1,3,"1138c52",25,1
"2713",1,1,469,5,5,3,"1138c52",26,1
"2813",0,0,365,3,3,3,"1138c52",27,1
"2913",0,0,414,6,6,3,"1138c52",28,1
"3013",0,1,318,5,1,3,"1138c52",29,1
"3117",0,0,352,4,4,3,"1138c52",30,1
"3215",1,1,430,2,2,3,"1138c52",31,1
"3313",1,0,390,1,3,3,"1138c52",32,1
"3413",1,0,348,1,2,3,"1138c52",33,1
"3513",1,0,357,1,5,3,"1138c52",34,1
"3613",0,0,324,6,6,3,"1138c52",35,1
"3713",1,1,312,5,5,3,"1138c52",36,1
"3813",1,0,461,1,6,3,"1138c52",37,1
"3913",0,1,304,3,1,3,"1138c52",38,1
"4013",0,0,328,4,4,3,"1138c52",39,1
"4117",0,0,344,2,2,3,"1138c52",40,1
"4215",1,0,326,4,1,3,"1138c52",41,1
"4313",1,1,301,3,3,3,"1138c52",42,1
"4413",0,0,280,1,1,3,"1138c52",43,1
"4513",0,1,271,1,2,3,"1138c52",44,1
"4613",1,1,380,2,2,3,"1138c52",45,1
"4713",1,0,390,1,2,3,"1138c52",46,1
"4813",0,1,345,1,6,3,"1138c52",47,1
"4913",1,1,273,5,5,3,"1138c52",48,1
"5013",0,0,336,4,4,3,"1138c52",49,1
"5117",0,1,263,1,5,3,"1138c52",50,1
"5215",0,1,924,4,1,3,"1138c52",51,1
"5313",0,0,766,3,3,3,"1138c52",52,1
"5413",1,0,270,1,3,3,"1138c52",53,1
"5513",0,0,291,1,1,3,"1138c52",54,1
"5613",1,1,346,6,6,3,"1138c52",55,1
"5713",0,1,367,5,1,3,"1138c52",56,1
"5813",1,0,287,4,1,3,"1138c52",57,1
"5913",0,1,326,2,1,3,"1138c52",58,1
"6013",1,1,405,3,3,3,"1138c52",59,1
"6117",1,1,310,2,2,3,"1138c52",60,1
"6215",0,0,341,6,6,3,"1138c52",61,1
"6313",0,0,302,4,4,3,"1138c52",62,1
"6413",0,0,304,1,1,3,"1138c52",63,1
"6513",1,0,289,3,1,3,"1138c52",64,1
"6613",0,0,300,5,5,3,"1138c52",65,1
"6713",1,0,316,1,6,3,"1138c52",66,1
"6813",0,0,332,5,5,3,"1138c52",67,1
"6913",0,0,292,4,4,3,"1138c52",68,1
"7013",1,0,282,1,6,3,"1138c52",69,1
"7117",0,1,322,2,1,3,"1138c52",70,1
"7214",0,1,343,4,1,3,"1138c52",71,1
"7313",0,1,273,3,1,3,"1138c52",72,1
"7413",0,0,302,3,3,3,"1138c52",73,1
"7513",0,0,290,1,1,3,"1138c52",74,1
"7613",0,1,335,1,5,3,"1138c52",75,1
"7713",0,0,351,6,6,3,"1138c52",76,1
"7813",1,1,316,2,2,3,"1138c52",77,1
"280",1,1,351,3,3,2,"2fe65ce",1,1
"380",1,0,297,1,2,2,"2fe65ce",2,1
"480",1,0,280,1,5,2,"2fe65ce",3,1
"580",1,1,391,6,6,2,"2fe65ce",4,1
"680",0,1,290,4,1,2,"2fe65ce",5,1
"780",0,1,341,1,6,2,"2fe65ce",6,1
"814",1,1,405,1,1,2,"2fe65ce",7,1
"914",0,0,312,5,5,2,"2fe65ce",8,1
"1014",1,1,294,2,2,2,"2fe65ce",9,1
"1114",0,1,394,1,3,2,"2fe65ce",10,1
"1214",1,1,235,4,4,2,"2fe65ce",11,1
"1314",0,1,252,1,3,2,"2fe65ce",12,1
"1414",1,1,271,6,6,2,"2fe65ce",13,1
"1514",1,1,287,1,1,2,"2fe65ce",14,1
"1614",1,1,245,4,4,2,"2fe65ce",15,1
"1714",1,1,251,3,3,2,"2fe65ce",16,1
"1814",0,1,350,5,1,2,"2fe65ce",17,1
"1914",0,1,242,2,1,2,"2fe65ce",18,1
"2014",1,1,276,5,5,2,"2fe65ce",19,1
"2118",0,1,287,1,6,2,"2fe65ce",20,1
"2216",1,1,233,2,2,2,"2fe65ce",21,1
"2314",0,1,233,4,1,2,"2fe65ce",22,1
"2414",1,1,267,1,1,2,"2fe65ce",23,1
"2514",0,1,338,3,1,2,"2fe65ce",24,1
"2614",1,1,241,3,3,2,"2fe65ce",25,1
"2714",1,1,238,5,5,2,"2fe65ce",26,1
"2814",0,1,284,5,1,2,"2fe65ce",27,1
"2914",0,1,351,6,1,2,"2fe65ce",28,1
"3014",0,1,189,4,1,2,"2fe65ce",29,1
"3118",0,0,594,4,4,2,"2fe65ce",30,1
"3216",1,1,266,2,2,2,"2fe65ce",31,1
"3314",0,1,315,1,2,2,"2fe65ce",32,1
"3414",1,1,303,6,6,2,"2fe65ce",33,1
"3514",0,1,356,2,1,2,"2fe65ce",34,1
"3614",1,1,318,4,4,2,"2fe65ce",35,1
"3714",1,1,336,6,6,2,"2fe65ce",36,1
"3814",1,1,463,5,5,2,"2fe65ce",37,1
"3914",1,1,330,2,2,2,"2fe65ce",38,1
"4014",0,1,215,3,1,2,"2fe65ce",39,1
"4118",0,1,297,1,4,2,"2fe65ce",40,1
"4216",1,1,237,3,3,2,"2fe65ce",41,1
"4314",0,1,439,5,1,2,"2fe65ce",42,1
"4414",0,1,245,6,1,2,"2fe65ce",43,1
"4514",1,1,187,1,1,2,"2fe65ce",44,1
"4614",0,1,224,1,2,2,"2fe65ce",45,1
"4714",0,1,316,1,6,2,"2fe65ce",46,1
"4814",1,1,233,1,1,2,"2fe65ce",47,1
"4914",1,1,211,3,3,2,"2fe65ce",48,1
"5014",1,1,211,6,6,2,"2fe65ce",49,1
"5118",1,1,339,4,4,2,"2fe65ce",50,1
"5216",0,1,586,4,1,2,"2fe65ce",51,1
"5314",1,1,688,5,5,2,"2fe65ce",52,1
"5414",0,1,339,1,5,2,"2fe65ce",53,1
"5514",0,1,346,3,1,2,"2fe65ce",54,1
"5614",1,1,301,2,2,2,"2fe65ce",55,1
"5714",0,1,259,4,1,2,"2fe65ce",56,1
"5814",0,0,375,3,3,2,"2fe65ce",57,1
"5914",0,1,217,3,1,2,"2fe65ce",58,1
"6014",0,1,242,1,6,2,"2fe65ce",59,1
"6118",1,1,310,4,4,2,"2fe65ce",60,1
"6216",1,1,325,1,1,2,"2fe65ce",61,1
"6314",1,1,205,5,5,2,"2fe65ce",62,1
"6414",1,1,360,2,2,2,"2fe65ce",63,1
"6514",1,1,443,6,6,2,"2fe65ce",64,1
"6614",1,0,277,2,1,2,"2fe65ce",65,1
"6714",0,1,371,5,1,2,"2fe65ce",66,1
"6814",0,1,225,3,1,2,"2fe65ce",67,1
"6914",1,1,219,3,3,2,"2fe65ce",68,1
"7014",1,1,263,4,4,2,"2fe65ce",69,1
"7118",1,1,54,1,1,2,"2fe65ce",70,1
"7215",1,1,197,2,2,2,"2fe65ce",71,1
"7314",1,1,212,5,5,2,"2fe65ce",72,1
"7414",0,1,223,1,2,2,"2fe65ce",73,1
"7514",1,1,259,6,6,2,"2fe65ce",74,1
"7614",0,1,229,5,1,2,"2fe65ce",75,1
"7714",0,1,219,4,1,2,"2fe65ce",76,1
"7814",0,1,371,1,6,2,"2fe65ce",77,1
"290",1,0,160,3,1,2,"1366b8a",1,1
"390",0,1,48,1,2,2,"1366b8a",2,1
"490",1,1,243,4,4,2,"1366b8a",3,1
"590",0,1,267,4,1,2,"1366b8a",4,1
"690",1,1,29,5,5,2,"1366b8a",5,1
"790",0,1,302,1,5,2,"1366b8a",6,1
"815",1,1,130,1,1,2,"1366b8a",7,1
"915",1,1,300,6,6,2,"1366b8a",8,1
"1015",0,1,370,6,1,2,"1366b8a",9,1
"1115",1,1,249,2,2,2,"1366b8a",10,1
"1215",1,1,15,3,3,2,"1366b8a",11,1
"1315",1,1,350,3,3,2,"1366b8a",12,1
"1415",1,1,175,2,2,2,"1366b8a",13,1
"1515",0,1,22,4,1,2,"1366b8a",14,1
"1615",1,0,253,1,2,2,"1366b8a",15,1
"1715",0,1,274,1,6,2,"1366b8a",16,1
"1815",0,1,68,1,5,2,"1366b8a",17,1
"1915",1,1,84,4,4,2,"1366b8a",18,1
"2015",1,1,275,1,1,2,"1366b8a",19,1
"2119",1,1,165,6,6,2,"1366b8a",20,1
"2217",1,1,461,5,5,2,"1366b8a",21,1
"2315",0,1,88,3,1,2,"1366b8a",22,1
"2415",1,1,168,4,4,2,"1366b8a",23,1
"2515",1,1,289,6,6,2,"1366b8a",24,1
"2615",0,1,231,2,1,2,"1366b8a",25,1
"2715",0,0,72,2,2,2,"1366b8a",26,1
"2815",0,1,162,5,1,2,"1366b8a",27,1
"2915",1,1,138,1,1,2,"1366b8a",28,1
"3015",0,1,247,1,3,2,"1366b8a",29,1
"3119",1,1,134,5,5,2,"1366b8a",30,1
"3217",0,1,350,1,4,2,"1366b8a",31,1
"3315",0,0,90,3,3,2,"1366b8a",32,1
"3415",0,1,132,6,1,2,"1366b8a",33,1
"3515",0,1,1845,3,1,2,"1366b8a",34,1
"3615",1,1,1070,2,2,2,"1366b8a",35,1
"3715",0,1,1040,1,2,2,"1366b8a",36,1
"3815",0,1,1102,1,4,2,"1366b8a",37,1
"3915",0,1,635,5,1,2,"1366b8a",38,1
"4015",1,1,973,4,4,2,"1366b8a",39,1
"4119",1,1,141,3,3,2,"1366b8a",40,1
"4217",0,1,62,6,1,2,"1366b8a",41,1
"4315",1,1,268,5,5,2,"1366b8a",42,1
"4415",1,1,322,1,1,2,"1366b8a",43,1
"4515",1,1,362,6,6,2,"1366b8a",44,1
"4615",0,1,926,1,4,2,"1366b8a",45,1
"4715",1,1,2000,5,5,2,"1366b8a",46,1
"4815",1,1,258,4,4,2,"1366b8a",47,1
"4915",0,1,283,1,3,2,"1366b8a",48,1
"5015",1,1,138,3,3,2,"1366b8a",49,1
"5119",0,1,197,1,6,2,"1366b8a",50,1
"5217",1,1,254,1,1,2,"1366b8a",51,1
"5315",1,1,255,6,6,2,"1366b8a",52,1
"5415",0,1,316,2,1,2,"1366b8a",53,1
"5515",0,1,213,5,1,2,"1366b8a",54,1
"5615",1,1,341,2,2,2,"1366b8a",55,1
"5715",0,1,21,1,5,2,"1366b8a",56,1
"5815",0,1,235,4,1,2,"1366b8a",57,1
"5915",0,1,52,6,1,2,"1366b8a",58,1
"6015",1,1,33,3,3,2,"1366b8a",59,1
"6119",1,1,89,4,4,2,"1366b8a",60,1
"6217",1,1,235,6,6,2,"1366b8a",61,1
"6315",1,1,708,1,1,2,"1366b8a",62,1
"6415",1,1,187,2,2,2,"1366b8a",63,1
"6515",0,1,14,1,3,2,"1366b8a",64,1
"6615",1,1,1691,5,5,2,"1366b8a",65,1
"6715",0,1,780,1,2,2,"1366b8a",66,1
"6815",1,1,989,2,2,2,"1366b8a",67,1
"6915",1,1,98,1,1,2,"1366b8a",68,1
"7015",0,1,300,5,1,2,"1366b8a",69,1
"7119",0,1,2004,1,3,2,"1366b8a",70,1
"7216",0,0,1888,4,4,2,"1366b8a",71,1
"7315",0,1,1326,6,1,2,"1366b8a",72,1
"7415",1,1,90,3,3,2,"1366b8a",73,1
"7515",1,1,369,6,6,2,"1366b8a",74,1
"7615",0,1,1916,4,1,2,"1366b8a",75,1
"7715",1,1,112,5,5,2,"1366b8a",76,1
"7815",0,1,947,2,1,2,"1366b8a",77,1
"2100",1,1,1674,2,2,1,"1aacf8e",1,1
"3100",1,1,425,5,5,1,"1aacf8e",2,1
"4100",1,1,306,3,3,1,"1aacf8e",3,1
"5100",1,0,315,1,4,1,"1aacf8e",4,1
"6100",1,0,348,1,2,1,"1aacf8e",5,1
"791",0,1,257,5,1,1,"1aacf8e",6,1
"816",0,1,394,6,1,1,"1aacf8e",7,1
"916",1,1,852,1,1,1,"1aacf8e",8,1
"1016",0,1,370,1,3,1,"1aacf8e",9,1
"1116",1,1,308,6,6,1,"1aacf8e",10,1
"1216",1,1,470,4,4,1,"1aacf8e",11,1
"1316",0,1,783,1,3,1,"1aacf8e",12,1
"1416",1,0,473,1,2,1,"1aacf8e",13,1
"1516",0,0,225,4,4,1,"1aacf8e",14,1
"1616",0,1,415,4,1,1,"1aacf8e",15,1
"1716",1,1,376,5,5,1,"1aacf8e",16,1
"1816",0,0,394,1,1,1,"1aacf8e",17,1
"1916",1,1,552,2,2,1,"1aacf8e",18,1
"2016",1,1,330,6,6,1,"1aacf8e",19,1
"2120",0,1,513,6,1,1,"1aacf8e",20,1
"2218",0,1,346,1,5,1,"1aacf8e",21,1
"2316",1,1,321,3,3,1,"1aacf8e",22,1
"2416",1,1,315,3,3,1,"1aacf8e",23,1
"2516",1,0,416,2,1,1,"1aacf8e",24,1
"2616",1,1,336,4,4,1,"1aacf8e",25,1
"2716",1,1,424,2,2,1,"1aacf8e",26,1
"2816",0,1,207,1,6,1,"1aacf8e",27,1
"2916",0,1,516,5,1,1,"1aacf8e",28,1
"3016",0,1,455,1,3,1,"1aacf8e",29,1
"3120",1,1,413,1,1,1,"1aacf8e",30,1
"3218",0,0,1584,6,6,1,"1aacf8e",31,1
"3316",0,1,926,4,1,1,"1aacf8e",32,1
"3416",1,1,346,5,5,1,"1aacf8e",33,1
"3516",1,1,291,2,2,1,"1aacf8e",34,1
"3616",1,0,383,2,1,1,"1aacf8e",35,1
"3716",1,1,267,1,1,1,"1aacf8e",36,1
"3816",1,1,285,5,5,1,"1aacf8e",37,1
"3916",0,1,415,1,5,1,"1aacf8e",38,1
"4016",1,1,292,3,3,1,"1aacf8e",39,1
"4120",0,1,217,3,1,1,"1aacf8e",40,1
"4218",1,1,409,6,6,1,"1aacf8e",41,1
"4316",0,1,261,4,1,1,"1aacf8e",42,1
"4416",0,1,408,1,6,1,"1aacf8e",43,1
"4516",1,1,392,4,4,1,"1aacf8e",44,1
"4616",1,1,297,2,2,1,"1aacf8e",45,1
"4716",0,1,310,6,1,1,"1aacf8e",46,1
"4816",0,1,346,3,1,1,"1aacf8e",47,1
"4916",1,1,427,1,1,1,"1aacf8e",48,1
"5016",1,1,426,4,4,1,"1aacf8e",49,1
"5120",0,1,223,5,1,1,"1aacf8e",50,1
"5218",0,1,276,1,2,1,"1aacf8e",51,1
"5316",1,1,265,6,6,1,"1aacf8e",52,1
"5416",1,1,229,5,5,1,"1aacf8e",53,1
"5516",1,1,406,3,3,1,"1aacf8e",54,1
"5616",0,1,378,4,1,1,"1aacf8e",55,1
"5716",0,1,356,2,1,1,"1aacf8e",56,1
"5816",0,1,385,5,1,1,"1aacf8e",57,1
"5916",1,1,310,2,2,1,"1aacf8e",58,1
"6016",1,1,226,1,1,1,"1aacf8e",59,1
"6120",1,1,294,3,3,1,"1aacf8e",60,1
"6218",0,1,339,1,6,1,"1aacf8e",61,1
"6316",1,1,380,4,4,1,"1aacf8e",62,1
"6416",1,1,403,6,6,1,"1aacf8e",63,1
"6516",1,1,455,5,5,1,"1aacf8e",64,1
"6616",0,1,359,4,1,1,"1aacf8e",65,1
"6716",0,1,445,3,1,1,"1aacf8e",66,1
"6816",0,1,208,1,2,1,"1aacf8e",67,1
"6916",1,1,347,1,1,1,"1aacf8e",68,1
"7016",0,1,374,5,1,1,"1aacf8e",69,1
"7120",1,1,464,5,5,1,"1aacf8e",70,1
"7217",1,1,524,3,3,1,"1aacf8e",71,1
"7316",1,1,400,2,2,1,"1aacf8e",72,1
"7416",1,1,312,4,4,1,"1aacf8e",73,1
"7516",0,1,421,6,1,1,"1aacf8e",74,1
"7616",0,1,242,3,1,1,"1aacf8e",75,1
"7716",0,1,43,4,1,1,"1aacf8e",76,1
"7816",1,1,300,6,6,1,"1aacf8e",77,1
"2101",1,0,991,1,4,2,"184ab04",1,1
"3101",1,0,567,1,2,2,"184ab04",2,1
"4101",0,0,306,2,2,2,"184ab04",3,1
"5101",0,1,407,1,5,2,"184ab04",4,1
"6101",0,0,250,3,3,2,"184ab04",5,1
"792",1,0,292,3,1,2,"184ab04",6,1
"817",1,1,589,1,1,2,"184ab04",7,1
"917",0,0,402,5,5,2,"184ab04",8,1
"1017",1,1,379,4,4,2,"184ab04",9,1
"1117",0,1,389,1,6,2,"184ab04",10,1
"1217",1,1,359,6,6,2,"184ab04",11,1
"1317",0,1,430,6,1,2,"184ab04",12,1
"1417",1,1,403,6,6,2,"184ab04",13,1
"1517",0,1,357,2,1,2,"184ab04",14,1
"1617",0,0,396,5,5,2,"184ab04",15,1
"1717",1,1,427,2,2,2,"184ab04",16,1
"1817",0,1,383,1,3,2,"184ab04",17,1
"1917",1,1,421,3,3,2,"184ab04",18,1
"2017",0,1,778,1,4,2,"184ab04",19,1
"2121",1,1,391,1,1,2,"184ab04",20,1
"2219",0,1,507,1,5,2,"184ab04",21,1
"2317",0,0,427,4,4,2,"184ab04",22,1
"2417",1,1,679,5,5,2,"184ab04",23,1
"2517",0,1,591,4,1,2,"184ab04",24,1
"2617",0,0,560,4,4,2,"184ab04",25,1
"2717",0,1,523,1,6,2,"184ab04",26,1
"2817",0,1,552,1,3,2,"184ab04",27,1
"2917",0,1,1987,5,1,2,"184ab04",28,1
"3017",0,0,480,3,3,2,"184ab04",29,1
"3121",1,1,452,2,2,2,"184ab04",30,1
"3219",1,1,816,6,6,2,"184ab04",31,1
"3317",1,0,420,1,2,2,"184ab04",32,1
"3417",1,1,460,1,1,2,"184ab04",33,1
"3517",0,0,426,4,4,2,"184ab04",34,1
"3617",0,1,554,1,5,2,"184ab04",35,1
"3717",1,1,474,1,1,2,"184ab04",36,1
"3817",0,1,534,1,4,2,"184ab04",37,1
"3917",1,0,485,2,1,2,"184ab04",38,1
"4017",1,1,586,3,3,2,"184ab04",39,1
"4121",0,1,647,1,3,2,"184ab04",40,1
"4219",1,1,583,2,2,2,"184ab04",41,1
"4317",1,1,1981,5,5,2,"184ab04",42,1
"4417",0,1,1976,1,6,2,"184ab04",43,1
"4517",1,1,1980,6,6,2,"184ab04",44,1
"4617",1,1,990,6,6,2,"184ab04",45,1
"4717",1,1,1988,2,2,2,"184ab04",46,1
"4817",0,1,906,3,1,2,"184ab04",47,1
"4917",0,1,1985,1,6,2,"184ab04",48,1
"5017",0,1,680,5,1,2,"184ab04",49,1
"5121",1,1,815,5,5,2,"184ab04",50,1
"5219",1,1,395,1,1,2,"184ab04",51,1
"5317",1,1,712,4,4,2,"184ab04",52,1
"5417",1,1,754,3,3,2,"184ab04",53,1
"5517",0,1,627,1,4,2,"184ab04",54,1
"5617",0,1,1705,2,1,2,"184ab04",55,1
"5717",0,1,518,3,1,2,"184ab04",56,1
"5817",1,1,692,6,6,2,"184ab04",57,1
"5917",1,0,420,1,2,2,"184ab04",58,1
"6017",1,1,584,3,3,2,"184ab04",59,1
"6121",0,1,1411,4,1,2,"184ab04",60,1
"6219",0,1,520,6,1,2,"184ab04",61,1
"6317",1,1,975,4,4,2,"184ab04",62,1
"6417",1,1,583,1,1,2,"184ab04",63,1
"6517",0,1,563,1,5,2,"184ab04",64,1
"6617",1,1,1984,2,2,2,"184ab04",65,1
"6717",1,1,1984,5,5,2,"184ab04",66,1
"6817",1,1,1134,3,3,2,"184ab04",67,1
"6917",0,1,1976,5,1,2,"184ab04",68,1
"7017",1,1,1724,1,1,2,"184ab04",69,1
"7121",0,1,513,4,1,2,"184ab04",70,1
"7218",1,1,550,5,5,2,"184ab04",71,1
"7317",0,1,586,3,1,2,"184ab04",72,1
"7417",1,1,561,2,2,2,"184ab04",73,1
"7517",1,1,568,4,4,2,"184ab04",74,1
"7617",0,1,1998,2,1,2,"184ab04",75,1
"7717",1,1,1986,6,6,2,"184ab04",76,1
"7817",0,1,435,1,6,2,"184ab04",77,1
"2102",1,0,1404,2,1,2,"74caa1f",1,1
"3102",1,0,365,5,1,2,"74caa1f",2,1
"4102",0,0,283,6,6,2,"74caa1f",3,1
"5102",1,0,294,1,6,2,"74caa1f",4,1
"6102",1,0,244,1,4,2,"74caa1f",5,1
"793",0,0,19,5,5,2,"74caa1f",6,1
"818",1,1,282,3,3,2,"74caa1f",7,1
"918",0,0,237,2,2,2,"74caa1f",8,1
"1018",1,1,247,4,4,2,"74caa1f",9,1
"1118",1,0,266,3,1,2,"74caa1f",10,1
"1218",1,1,213,1,1,2,"74caa1f",11,1
"1318",1,0,288,5,1,2,"74caa1f",12,1
"1418",1,0,220,2,1,2,"74caa1f",13,1
"1518",1,1,92,5,5,2,"74caa1f",14,1
"1618",0,1,254,1,3,2,"74caa1f",15,1
"1718",0,0,273,1,1,2,"74caa1f",16,1
"1818",0,0,251,4,4,2,"74caa1f",17,1
"1918",1,1,229,3,3,2,"74caa1f",18,1
"2018",0,1,268,4,1,2,"74caa1f",19,1
"2122",0,1,200,1,6,2,"74caa1f",20,1
"2220",1,1,248,6,6,2,"74caa1f",21,1
"2318",1,1,224,2,2,2,"74caa1f",22,1
"2418",0,1,106,4,1,2,"74caa1f",23,1
"2518",0,0,162,2,2,2,"74caa1f",24,1
"2618",1,0,229,1,2,2,"74caa1f",25,1
"2718",1,1,212,3,3,2,"74caa1f",26,1
"2818",1,1,222,1,1,2,"74caa1f",27,1
"2918",0,1,258,6,1,2,"74caa1f",28,1
"3018",1,1,261,6,6,2,"74caa1f",29,1
"3122",1,1,146,4,4,2,"74caa1f",30,1
"3220",0,1,206,1,3,2,"74caa1f",31,1
"3318",1,1,154,5,5,2,"74caa1f",32,1
"3418",0,1,226,5,1,2,"74caa1f",33,1
"3518",0,1,142,1,4,2,"74caa1f",34,1
"3618",0,1,164,3,1,2,"74caa1f",35,1
"3718",1,0,146,1,2,2,"74caa1f",36,1
"3818",1,1,161,4,4,2,"74caa1f",37,1
"3918",1,1,146,6,6,2,"74caa1f",38,1
"4018",0,1,57,5,1,2,"74caa1f",39,1
"4122",1,1,407,2,2,2,"74caa1f",40,1
"4220",1,1,172,5,5,2,"74caa1f",41,1
"4318",1,1,384,1,1,2,"74caa1f",42,1
"4418",1,1,153,3,3,2,"74caa1f",43,1
"4518",0,1,95,6,1,2,"74caa1f",44,1
"4618",0,1,100,1,5,2,"74caa1f",45,1
"4718",0,1,115,1,6,2,"74caa1f",46,1
"4818",1,1,157,4,4,2,"74caa1f",47,1
"4918",0,1,84,3,1,2,"74caa1f",48,1
"5018",1,1,144,3,3,2,"74caa1f",49,1
"5122",1,1,27,5,5,2,"74caa1f",50,1
"5220",0,1,168,4,1,2,"74caa1f",51,1
"5318",1,1,238,2,2,2,"74caa1f",52,1
"5418",1,0,205,1,2,2,"74caa1f",53,1
"5518",1,1,121,1,1,2,"74caa1f",54,1
"5618",1,1,62,6,6,2,"74caa1f",55,1
"5718",1,1,55,5,5,2,"74caa1f",56,1
"5818",0,1,64,6,1,2,"74caa1f",57,1
"5918",0,1,105,4,1,2,"74caa1f",58,1
"6018",1,1,13,1,1,2,"74caa1f",59,1
"6122",1,0,72,2,1,2,"74caa1f",60,1
"6220",1,1,78,3,3,2,"74caa1f",61,1
"6318",1,1,142,2,2,2,"74caa1f",62,1
"6418",0,1,42,3,1,2,"74caa1f",63,1
"6518",0,1,71,5,1,2,"74caa1f",64,1
"6618",1,1,133,4,4,2,"74caa1f",65,1
"6718",1,1,87,6,6,2,"74caa1f",66,1
"6818",1,0,139,1,2,2,"74caa1f",67,1
"6918",1,1,28,2,2,2,"74caa1f",68,1
"7018",0,1,491,1,3,2,"74caa1f",69,1
"7122",1,1,287,6,6,2,"74caa1f",70,1
"7219",0,1,103,6,1,2,"74caa1f",71,1
"7318",1,1,70,5,5,2,"74caa1f",72,1
"7418",1,1,280,3,3,2,"74caa1f",73,1
"7518",0,1,233,1,5,2,"74caa1f",74,1
"7618",0,1,257,4,1,2,"74caa1f",75,1
"7718",1,1,104,1,1,2,"74caa1f",76,1
"7818",1,1,209,4,4,2,"74caa1f",77,1
"2103",1,1,653,2,2,1,"0aa9e0d",1,1
"3103",0,1,282,1,4,1,"0aa9e0d",2,1
"4103",0,1,329,1,5,1,"0aa9e0d",3,1
"5103",0,1,383,1,6,1,"0aa9e0d",4,1
"6103",1,1,289,6,6,1,"0aa9e0d",5,1
"794",0,1,505,2,1,1,"0aa9e0d",6,1
"819",1,1,369,3,3,1,"0aa9e0d",7,1
"919",1,1,325,5,5,1,"0aa9e0d",8,1
"1019",0,1,340,3,1,1,"0aa9e0d",9,1
"1119",1,1,476,1,1,1,"0aa9e0d",10,1
"1219",1,1,294,4,4,1,"0aa9e0d",11,1
"1319",1,1,347,6,6,1,"0aa9e0d",12,1
"1419",1,1,337,3,3,1,"0aa9e0d",13,1
"1519",0,1,291,1,6,1,"0aa9e0d",14,1
"1619",1,1,285,4,4,1,"0aa9e0d",15,1
"1719",0,1,445,1,4,1,"0aa9e0d",16,1
"1819",1,1,319,1,1,1,"0aa9e0d",17,1
"1919",1,1,337,2,2,1,"0aa9e0d",18,1
"2019",0,1,321,5,1,1,"0aa9e0d",19,1
"2123",1,0,292,1,2,1,"0aa9e0d",20,1
"2221",0,1,286,3,1,1,"0aa9e0d",21,1
"2319",1,1,290,5,5,1,"0aa9e0d",22,1
"2419",0,1,311,5,1,1,"0aa9e0d",23,1
"2519",1,1,277,3,3,1,"0aa9e0d",24,1
"2619",0,1,318,6,1,1,"0aa9e0d",25,1
"2719",1,0,273,1,2,1,"0aa9e0d",26,1
"2819",1,1,272,4,4,1,"0aa9e0d",27,1
"2919",0,1,275,1,4,1,"0aa9e0d",28,1
"3019",1,1,259,1,1,1,"0aa9e0d",29,1
"3123",1,1,270,2,2,1,"0aa9e0d",30,1
"3221",1,1,291,6,6,1,"0aa9e0d",31,1
"3319",1,1,293,5,5,1,"0aa9e0d",32,1
"3419",0,1,377,3,1,1,"0aa9e0d",33,1
"3519",1,1,278,5,5,1,"0aa9e0d",34,1
"3619",1,1,277,3,3,1,"0aa9e0d",35,1
"3719",0,1,320,1,6,1,"0aa9e0d",36,1
"3819",0,1,351,5,1,1,"0aa9e0d",37,1
"3919",1,1,263,2,2,1,"0aa9e0d",38,1
"4019",1,1,277,4,4,1,"0aa9e0d",39,1
"4123",0,1,248,1,4,1,"0aa9e0d",40,1
"4221",1,1,277,6,6,1,"0aa9e0d",41,1
"4319",1,0,266,1,2,1,"0aa9e0d",42,1
"4419",1,1,265,1,1,1,"0aa9e0d",43,1
"4519",0,1,310,1,3,1,"0aa9e0d",44,1
"4619",0,1,310,1,5,1,"0aa9e0d",45,1
"4719",0,1,282,1,6,1,"0aa9e0d",46,1
"4819",1,1,292,6,6,1,"0aa9e0d",47,1
"4919",0,1,340,2,1,1,"0aa9e0d",48,1
"5019",0,1,302,4,1,1,"0aa9e0d",49,1
"5123",1,1,288,1,1,1,"0aa9e0d",50,1
"5221",1,1,260,2,2,1,"0aa9e0d",51,1
"5319",1,1,263,3,3,1,"0aa9e0d",52,1
"5419",0,1,300,1,3,1,"0aa9e0d",53,1
"5519",1,1,267,4,4,1,"0aa9e0d",54,1
"5619",1,1,273,5,5,1,"0aa9e0d",55,1
"5719",0,1,409,5,1,1,"0aa9e0d",56,1
"5819",0,1,304,3,1,1,"0aa9e0d",57,1
"5919",0,1,262,1,4,1,"0aa9e0d",58,1
"6019",1,1,251,6,6,1,"0aa9e0d",59,1
"6123",0,1,245,6,1,1,"0aa9e0d",60,1
"6221",1,1,295,5,5,1,"0aa9e0d",61,1
"6319",1,1,246,3,3,1,"0aa9e0d",62,1
"6419",0,1,337,2,1,1,"0aa9e0d",63,1
"6519",1,1,263,4,4,1,"0aa9e0d",64,1
"6619",1,1,307,1,1,1,"0aa9e0d",65,1
"6719",1,1,276,2,2,1,"0aa9e0d",66,1
"6819",1,1,237,5,5,1,"0aa9e0d",67,1
"6919",1,1,269,3,3,1,"0aa9e0d",68,1
"7019",0,1,298,6,1,1,"0aa9e0d",69,1
"7123",0,1,252,4,1,1,"0aa9e0d",70,1
"7220",0,1,244,2,1,1,"0aa9e0d",71,1
"7319",0,1,245,1,3,1,"0aa9e0d",72,1
"7419",1,1,261,4,4,1,"0aa9e0d",73,1
"7519",1,1,299,6,6,1,"0aa9e0d",74,1
"7619",0,1,272,1,5,1,"0aa9e0d",75,1
"7719",1,1,250,1,1,1,"0aa9e0d",76,1
"7819",1,1,254,2,2,1,"0aa9e0d",77,1
"2104",1,0,640,1,2,1,"16acb41",1,1
"3104",0,1,426,1,5,1,"16acb41",2,1
"4104",1,1,323,2,2,1,"16acb41",3,1
"5104",1,1,654,6,6,1,"16acb41",4,1
"6104",0,0,310,5,5,1,"16acb41",5,1
"795",1,1,742,1,1,1,"16acb41",6,1
"820",1,0,416,3,1,1,"16acb41",7,1
"920",1,1,1059,4,4,1,"16acb41",8,1
"1020",0,1,338,1,4,1,"16acb41",9,1
"1120",0,1,426,6,1,1,"16acb41",10,1
"1220",1,1,369,3,3,1,"16acb41",11,1
"1320",1,1,961,4,4,1,"16acb41",12,1
"1420",1,1,503,5,5,1,"16acb41",13,1
"1520",1,1,439,1,1,1,"16acb41",14,1
"1620",1,1,318,3,3,1,"16acb41",15,1
"1720",1,1,326,2,2,1,"16acb41",16,1
"1820",0,1,325,1,3,1,"16acb41",17,1
"1920",0,1,357,5,1,1,"16acb41",18,1
"2020",0,1,797,4,1,1,"16acb41",19,1
"2124",1,1,1684,6,6,1,"16acb41",20,1
"2222",1,0,283,2,1,1,"16acb41",21,1
"2320",0,1,459,1,6,1,"16acb41",22,1
"2420",-1,-1,0,1,3,1,"16acb41",23,1
"2520",1,1,306,2,2,1,"16acb41",24,1
"2620",1,1,306,6,6,1,"16acb41",25,1
"2720",1,1,337,1,1,1,"16acb41",26,1
"2820",1,1,456,4,4,1,"16acb41",27,1
"2920",0,1,305,5,1,1,"16acb41",28,1
"3020",1,0,415,1,2,1,"16acb41",29,1
"3124",0,1,534,6,1,1,"16acb41",30,1
"3222",1,1,407,5,5,1,"16acb41",31,1
"3320",0,1,399,1,4,1,"16acb41",32,1
"3420",1,1,294,3,3,1,"16acb41",33,1
"3520",1,1,381,4,4,1,"16acb41",34,1
"3620",1,1,293,2,2,1,"16acb41",35,1
"3720",0,1,268,2,1,1,"16acb41",36,1
"3820",1,1,549,6,6,1,"16acb41",37,1
"3920",-1,-1,0,1,1,1,"16acb41",38,1
"4020",0,1,298,3,1,1,"16acb41",39,1
"4124",0,1,252,4,1,1,"16acb41",40,1
"4222",1,1,180,5,5,1,"16acb41",41,1
"4320",0,1,302,1,6,1,"16acb41",42,1
"4420",0,1,1510,5,1,1,"16acb41",43,1
"4520",1,1,327,3,3,1,"16acb41",44,1
"4620",-1,-1,0,1,6,1,"16acb41",45,1
"4720",1,1,332,2,2,1,"16acb41",46,1
"4820",1,1,396,1,1,1,"16acb41",47,1
"4920",0,1,308,5,1,1,"16acb41",48,1
"5020",0,1,403,4,1,1,"16acb41",49,1
"5124",0,1,355,3,1,1,"16acb41",50,1
"5222",1,1,337,6,6,1,"16acb41",51,1
"5320",1,1,329,5,5,1,"16acb41",52,1
"5420",1,1,457,4,4,1,"16acb41",53,1
"5520",0,1,432,1,2,1,"16acb41",54,1
"5620",1,1,327,3,3,1,"16acb41",55,1
"5720",0,1,335,1,6,1,"16acb41",56,1
"5820",1,0,462,2,1,1,"16acb41",57,1
"5920",0,1,347,1,3,1,"16acb41",58,1
"6020",1,1,341,2,2,1,"16acb41",59,1
"6124",1,1,443,6,6,1,"16acb41",60,1
"6222",1,1,387,5,5,1,"16acb41",61,1
"6320",1,1,346,4,4,1,"16acb41",62,1
"6420",1,1,320,3,3,1,"16acb41",63,1
"6520",1,1,343,1,1,1,"16acb41",64,1
"6620",0,1,408,1,4,1,"16acb41",65,1
"6720",0,1,294,1,5,1,"16acb41",66,1
"6820",0,1,303,3,1,1,"16acb41",67,1
"6920",1,1,341,6,6,1,"16acb41",68,1
"7020",1,1,333,5,5,1,"16acb41",69,1
"7124",0,1,349,1,5,1,"16acb41",70,1
"7221",0,1,277,1,6,1,"16acb41",71,1
"7320",1,1,269,4,4,1,"16acb41",72,1
"7420",1,1,325,2,2,1,"16acb41",73,1
"7520",1,1,147,3,3,1,"16acb41",74,1
"7620",0,1,316,1,4,1,"16acb41",75,1
"7720",1,0,698,2,1,1,"16acb41",76,1
"7820",1,1,330,1,1,1,"16acb41",77,1
"2105",0,0,1415,3,3,3,"17f7ae6",1,1
"3105",1,1,510,4,4,3,"17f7ae6",2,1
"4105",1,0,651,1,3,3,"17f7ae6",3,1
"5105",1,1,360,1,1,3,"17f7ae6",4,1
"6105",1,0,353,2,1,3,"17f7ae6",5,1
"796",1,1,283,5,5,3,"17f7ae6",6,1
"821",0,1,422,6,1,3,"17f7ae6",7,1
"921",1,1,380,2,2,3,"17f7ae6",8,1
"1021",1,0,270,1,5,3,"17f7ae6",9,1
"1121",1,1,314,6,6,3,"17f7ae6",10,1
"1221",0,1,594,1,4,3,"17f7ae6",11,1
"1321",1,0,627,6,1,3,"17f7ae6",12,1
"1421",1,1,125,5,5,3,"17f7ae6",13,1
"1521",1,0,318,5,1,3,"17f7ae6",14,1
"1621",0,1,332,1,2,3,"17f7ae6",15,1
"1721",1,0,286,1,3,3,"17f7ae6",16,1
"1821",1,1,272,2,2,3,"17f7ae6",17,1
"1921",0,1,318,4,1,3,"17f7ae6",18,1
"2021",0,0,356,3,3,3,"17f7ae6",19,1
"2125",1,1,439,6,6,3,"17f7ae6",20,1
"2223",1,1,1106,4,4,3,"17f7ae6",21,1
"2321",0,0,367,1,1,3,"17f7ae6",22,1
"2421",1,1,496,5,5,3,"17f7ae6",23,1
"2521",1,0,346,4,1,3,"17f7ae6",24,1
"2621",0,1,373,3,1,3,"17f7ae6",25,1
"2721",1,1,457,3,3,3,"17f7ae6",26,1
"2821",1,1,810,4,4,3,"17f7ae6",27,1
"2921",1,1,1109,1,1,3,"17f7ae6",28,1
"3021",0,0,745,6,6,3,"17f7ae6",29,1
"3125",1,1,529,2,2,3,"17f7ae6",30,1
"3223",1,0,564,1,6,3,"17f7ae6",31,1
"3321",0,1,1410,1,2,3,"17f7ae6",32,1
"3421",0,1,539,5,1,3,"17f7ae6",33,1
"3521",1,0,1184,1,4,3,"17f7ae6",34,1
"3621",1,0,690,1,3,3,"17f7ae6",35,1
"3721",1,0,408,6,1,3,"17f7ae6",36,1
"3821",0,0,770,1,1,3,"17f7ae6",37,1
"3921",1,1,399,3,3,3,"17f7ae6",38,1
"4021",1,1,313,2,2,3,"17f7ae6",39,1
"4125",1,0,423,5,1,3,"17f7ae6",40,1
"4223",1,1,1035,5,5,3,"17f7ae6",41,1
"4321",0,0,566,4,4,3,"17f7ae6",42,1
"4421",0,1,492,1,2,3,"17f7ae6",43,1
"4521",1,1,415,6,6,3,"17f7ae6",44,1
"4621",1,1,163,6,6,3,"17f7ae6",45,1
"4721",1,0,419,3,1,3,"17f7ae6",46,1
"4821",0,1,339,6,1,3,"17f7ae6",47,1
"4921",0,0,591,3,3,3,"17f7ae6",48,1
"5021",0,1,401,1,5,3,"17f7ae6",49,1
"5125",1,1,700,4,4,3,"17f7ae6",50,1
"5223",1,1,1399,2,2,3,"17f7ae6",51,1
"5321",1,1,490,1,1,3,"17f7ae6",52,1
"5421",0,1,1257,2,1,3,"17f7ae6",53,1
"5521",1,0,363,1,4,3,"17f7ae6",54,1
"5621",1,1,1142,5,5,3,"17f7ae6",55,1
"5721",0,1,345,6,1,3,"17f7ae6",56,1
"5821",1,1,1136,2,2,3,"17f7ae6",57,1
"5921",1,0,299,1,4,3,"17f7ae6",58,1
"6021",0,1,382,1,2,3,"17f7ae6",59,1
"6125",1,1,317,3,3,3,"17f7ae6",60,1
"6223",0,1,479,1,5,3,"17f7ae6",61,1
"6321",1,1,314,4,4,3,"17f7ae6",62,1
"6421",0,1,358,3,1,3,"17f7ae6",63,1
"6521",1,1,1012,6,6,3,"17f7ae6",64,1
"6621",1,1,430,5,5,3,"17f7ae6",65,1
"6721",1,1,1058,1,1,3,"17f7ae6",66,1
"6821",1,1,273,6,6,3,"17f7ae6",67,1
"6921",1,0,307,3,1,3,"17f7ae6",68,1
"7021",1,1,295,3,3,3,"17f7ae6",69,1
"7125",0,1,393,1,4,3,"17f7ae6",70,1
"7222",1,0,392,1,5,3,"17f7ae6",71,1
"7321",0,1,378,1,6,3,"17f7ae6",72,1
"7421",1,1,294,4,4,3,"17f7ae6",73,1
"7521",1,1,529,5,5,3,"17f7ae6",74,1
"7621",1,0,342,2,1,3,"17f7ae6",75,1
"7721",1,1,297,2,2,3,"17f7ae6",76,1
"7821",1,1,349,1,1,3,"17f7ae6",77,1
"2106",1,1,85,4,4,3,"1dcaf6c",1,1
"3106",1,1,358,6,6,3,"1dcaf6c",2,1
"4106",0,1,327,5,1,3,"1dcaf6c",3,1
"5106",1,1,364,3,3,3,"1dcaf6c",4,1
"6106",1,1,347,5,5,3,"1dcaf6c",5,1
"797",0,1,345,1,3,3,"1dcaf6c",6,1
"822",0,1,380,1,6,3,"1dcaf6c",7,1
"922",0,0,417,1,1,3,"1dcaf6c",8,1
"1022",1,1,535,2,2,3,"1dcaf6c",9,1
"1122",1,0,425,1,2,3,"1dcaf6c",10,1
"1222",0,1,500,4,1,3,"1dcaf6c",11,1
"1322",1,1,361,1,1,3,"1dcaf6c",12,1
"1422",0,1,471,4,1,3,"1dcaf6c",13,1
"1522",1,1,375,3,3,3,"1dcaf6c",14,1
"1622",1,1,579,6,6,3,"1dcaf6c",15,1
"1722",1,1,381,5,5,3,"1dcaf6c",16,1
"1822",0,0,338,2,2,3,"1dcaf6c",17,1
"1922",0,1,888,1,6,3,"1dcaf6c",18,1
"2022",0,1,712,1,5,3,"1dcaf6c",19,1
"2126",0,1,577,2,1,3,"1dcaf6c",20,1
"2224",0,1,606,1,3,3,"1dcaf6c",21,1
"2322",1,1,451,4,4,3,"1dcaf6c",22,1
"2422",0,1,561,3,1,3,"1dcaf6c",23,1
"2522",1,1,555,5,5,3,"1dcaf6c",24,1
"2622",0,1,462,1,6,3,"1dcaf6c",25,1
"2722",0,1,407,5,1,3,"1dcaf6c",26,1
"2822",0,1,403,1,2,3,"1dcaf6c",27,1
"2922",1,1,310,6,6,3,"1dcaf6c",28,1
"3022",1,1,462,3,3,3,"1dcaf6c",29,1
"3126",0,1,623,4,1,3,"1dcaf6c",30,1
"3224",1,1,526,4,4,3,"1dcaf6c",31,1
"3322",1,1,397,1,1,3,"1dcaf6c",32,1
"3422",1,1,503,2,2,3,"1dcaf6c",33,1
"3522",0,1,324,2,1,3,"1dcaf6c",34,1
"3622",1,1,639,1,1,3,"1dcaf6c",35,1
"3722",0,1,763,3,1,3,"1dcaf6c",36,1
"3822",1,1,494,3,3,3,"1dcaf6c",37,1
"3922",0,1,479,1,6,3,"1dcaf6c",38,1
"4022",1,1,338,6,6,3,"1dcaf6c",39,1
"4126",1,1,523,5,5,3,"1dcaf6c",40,1
"4224",0,1,472,1,5,3,"1dcaf6c",41,1
"4322",1,1,378,4,4,3,"1dcaf6c",42,1
"4422",0,1,450,1,4,3,"1dcaf6c",43,1
"4522",1,1,438,2,2,3,"1dcaf6c",44,1
"4622",0,1,403,6,1,3,"1dcaf6c",45,1
"4722",1,1,420,5,5,3,"1dcaf6c",46,1
"4822",0,1,376,1,2,3,"1dcaf6c",47,1
"4922",0,1,491,4,1,3,"1dcaf6c",48,1
"5022",1,1,401,1,1,3,"1dcaf6c",49,1
"5126",0,0,366,2,2,3,"1dcaf6c",50,1
"5224",1,1,431,4,4,3,"1dcaf6c",51,1
"5322",1,1,378,6,6,3,"1dcaf6c",52,1
"5422",0,1,657,3,1,3,"1dcaf6c",53,1
"5522",1,1,435,3,3,3,"1dcaf6c",54,1
"5622",0,1,549,5,1,3,"1dcaf6c",55,1
"5722",1,1,385,3,3,3,"1dcaf6c",56,1
"5822",0,1,715,1,6,3,"1dcaf6c",57,1
"5922",1,1,477,2,2,3,"1dcaf6c",58,1
"6022",0,1,484,5,1,3,"1dcaf6c",59,1
"6126",1,1,412,6,6,3,"1dcaf6c",60,1
"6224",1,1,413,1,1,3,"1dcaf6c",61,1
"6322",1,1,540,4,4,3,"1dcaf6c",62,1
"6422",0,1,400,3,1,3,"1dcaf6c",63,1
"6522",1,1,721,5,5,3,"1dcaf6c",64,1
"6622",1,0,485,2,1,3,"1dcaf6c",65,1
"6722",0,1,536,4,1,3,"1dcaf6c",66,1
"6822",1,1,481,6,6,3,"1dcaf6c",67,1
"6922",1,1,347,2,2,3,"1dcaf6c",68,1
"7022",0,1,384,6,1,3,"1dcaf6c",69,1
"7126",0,1,552,3,1,3,"1dcaf6c",70,1
"7223",1,1,486,4,4,3,"1dcaf6c",71,1
"7322",0,1,515,4,1,3,"1dcaf6c",72,1
"7422",0,1,752,5,1,3,"1dcaf6c",73,1
"7522",0,0,638,1,1,3,"1dcaf6c",74,1
"7622",1,1,658,3,3,3,"1dcaf6c",75,1
"7722",1,1,581,5,5,3,"1dcaf6c",76,1
"7822",1,0,533,2,1,3,"1dcaf6c",77,1
"2107",1,0,633,1,2,1,"1a3f553",1,1
"3107",0,0,554,3,3,1,"1a3f553",2,1
"4107",0,0,262,2,2,1,"1a3f553",3,1
"5107",1,1,317,5,5,1,"1a3f553",4,1
"6107",1,1,92,1,1,1,"1a3f553",5,1
"798",0,1,261,1,5,1,"1a3f553",6,1
"823",1,1,406,6,6,1,"1a3f553",7,1
"923",0,1,438,1,6,1,"1a3f553",8,1
"1023",1,1,390,4,4,1,"1a3f553",9,1
"1123",0,1,381,1,4,1,"1a3f553",10,1
"1223",0,1,415,3,1,1,"1a3f553",11,1
"1323",0,1,230,1,5,1,"1a3f553",12,1
"1423",0,1,336,4,1,1,"1a3f553",13,1
"1523",1,1,366,6,6,1,"1a3f553",14,1
"1623",1,1,373,1,1,1,"1a3f553",15,1
"1723",1,1,311,2,2,1,"1a3f553",16,1
"1823",0,1,444,3,1,1,"1a3f553",17,1
"1923",1,1,447,5,5,1,"1a3f553",18,1
"2023",1,1,201,3,3,1,"1a3f553",19,1
"2127",0,1,342,1,6,1,"1a3f553",20,1
"2225",1,1,342,4,4,1,"1a3f553",21,1
"2323",1,0,621,2,1,1,"1a3f553",22,1
"2423",0,1,532,1,4,1,"1a3f553",23,1
"2523",1,1,486,4,4,1,"1a3f553",24,1
"2623",0,1,319,1,2,1,"1a3f553",25,1
"2723",1,1,372,5,5,1,"1a3f553",26,1
"2823",1,1,334,6,6,1,"1a3f553",27,1
"2923",0,1,331,5,1,1,"1a3f553",28,1
"3023",1,1,399,2,2,1,"1a3f553",29,1
"3127",0,1,775,6,1,1,"1a3f553",30,1
"3225",1,1,312,1,1,1,"1a3f553",31,1
"3323",0,1,324,1,3,1,"1a3f553",32,1
"3423",1,1,286,3,3,1,"1a3f553",33,1
"3523",1,1,430,6,6,1,"1a3f553",34,1
"3623",0,1,573,4,1,1,"1a3f553",35,1
"3723",1,1,333,4,4,1,"1a3f553",36,1
"3823",0,1,546,3,1,1,"1a3f553",37,1
"3923",1,1,320,3,3,1,"1a3f553",38,1
"4023",1,1,153,2,2,1,"1a3f553",39,1
"4127",1,1,527,5,5,1,"1a3f553",40,1
"4225",0,1,475,1,5,1,"1a3f553",41,1
"4323",0,1,402,1,6,1,"1a3f553",42,1
"4423",0,1,289,2,1,1,"1a3f553",43,1
"4523",1,1,297,1,1,1,"1a3f553",44,1
"4623",0,1,313,1,2,1,"1a3f553",45,1
"4723",1,1,499,1,1,1,"1a3f553",46,1
"4823",0,0,651,6,6,1,"1a3f553",47,1
"4923",0,1,170,5,1,1,"1a3f553",48,1
"5023",1,1,306,3,3,1,"1a3f553",49,1
"5127",0,1,346,1,6,1,"1a3f553",50,1
"5225",0,1,308,3,1,1,"1a3f553",51,1
"5323",1,1,370,2,2,1,"1a3f553",52,1
"5423",1,1,82,4,4,1,"1a3f553",53,1
"5523",1,1,305,5,5,1,"1a3f553",54,1
"5623",0,1,194,4,1,1,"1a3f553",55,1
"5723",0,1,269,1,3,1,"1a3f553",56,1
"5823",1,1,278,3,3,1,"1a3f553",57,1
"5923",1,1,335,5,5,1,"1a3f553",58,1
"6023",0,1,367,1,4,1,"1a3f553",59,1
"6127",1,1,236,4,4,1,"1a3f553",60,1
"6225",0,1,261,6,1,1,"1a3f553",61,1
"6323",0,1,281,1,5,1,"1a3f553",62,1
"6423",1,1,265,1,1,1,"1a3f553",63,1
"6523",0,1,251,1,2,1,"1a3f553",64,1
"6623",1,1,188,2,2,1,"1a3f553",65,1
"6723",1,1,254,6,6,1,"1a3f553",66,1
"6823",0,1,257,1,2,1,"1a3f553",67,1
"6923",0,1,180,1,5,1,"1a3f553",68,1
"7023",0,1,125,6,1,1,"1a3f553",69,1
"7127",1,1,189,3,3,1,"1a3f553",70,1
"7224",0,1,143,1,4,1,"1a3f553",71,1
"7323",1,1,372,6,6,1,"1a3f553",72,1
"7423",1,1,211,1,1,1,"1a3f553",73,1
"7523",0,1,292,1,3,1,"1a3f553",74,1
"7623",1,1,317,4,4,1,"1a3f553",75,1
"7723",1,1,304,2,2,1,"1a3f553",76,1
"7823",1,1,419,5,5,1,"1a3f553",77,1
"2108",0,1,769,4,1,1,"1afeeab",1,1
"3108",0,0,233,6,6,1,"1afeeab",2,1
"4108",1,1,83,1,1,1,"1afeeab",3,1
"5108",1,0,164,1,3,1,"1afeeab",4,1
"6108",0,1,184,6,1,1,"1afeeab",5,1
"799",1,1,246,4,4,1,"1afeeab",6,1
"824",0,1,185,1,2,1,"1afeeab",7,1
"924",1,1,135,2,2,1,"1afeeab",8,1
"1024",0,0,1313,5,5,1,"1afeeab",9,1
"1124",0,1,337,1,5,1,"1afeeab",10,1
"1224",1,1,388,3,3,1,"1afeeab",11,1
"1324",0,1,215,6,1,1,"1afeeab",12,1
"1424",0,0,495,4,4,1,"1afeeab",13,1
"1524",0,1,129,3,1,1,"1afeeab",14,1
"1624",0,1,832,2,1,1,"1afeeab",15,1
"1724",0,0,1718,5,5,1,"1afeeab",16,1
"1824",0,1,178,5,1,1,"1afeeab",17,1
"1924",1,1,1613,2,2,1,"1afeeab",18,1
"2024",1,1,481,6,6,1,"1afeeab",19,1
"2128",0,0,84,3,3,1,"1afeeab",20,1
"2226",0,1,434,1,4,1,"1afeeab",21,1
"2324",1,1,66,1,1,1,"1afeeab",22,1
"2424",0,0,179,3,3,1,"1afeeab",23,1
"2524",1,1,97,1,1,1,"1afeeab",24,1
"2624",1,1,23,6,6,1,"1afeeab",25,1
"2724",0,0,82,2,2,1,"1afeeab",26,1
"2824",1,0,239,2,1,1,"1afeeab",27,1
"2924",1,1,146,4,4,1,"1afeeab",28,1
"3024",0,1,232,1,5,1,"1afeeab",29,1
"3128",0,1,199,6,1,1,"1afeeab",30,1
"3226",0,1,384,1,3,1,"1afeeab",31,1
"3324",0,1,502,4,1,1,"1afeeab",32,1
"3424",1,1,336,5,5,1,"1afeeab",33,1
"3524",1,1,441,3,3,1,"1afeeab",34,1
"3624",0,1,322,6,1,1,"1afeeab",35,1
"3724",0,1,302,1,4,1,"1afeeab",36,1
"3824",0,0,321,4,4,1,"1afeeab",37,1
"3924",0,1,444,2,1,1,"1afeeab",38,1
"4024",1,1,236,5,5,1,"1afeeab",39,1
"4128",0,0,1063,6,6,1,"1afeeab",40,1
"4226",0,1,267,3,1,1,"1afeeab",41,1
"4324",1,1,220,1,1,1,"1afeeab",42,1
"4424",0,1,343,1,5,1,"1afeeab",43,1
"4524",0,0,38,2,2,1,"1afeeab",44,1
"4624",0,1,362,6,1,1,"1afeeab",45,1
"4724",0,1,280,4,1,1,"1afeeab",46,1
"4824",1,1,114,3,3,1,"1afeeab",47,1
"4924",1,1,40,2,2,1,"1afeeab",48,1
"5024",1,0,1134,3,1,1,"1afeeab",49,1
"5128",1,1,115,6,6,1,"1afeeab",50,1
"5226",0,0,1160,5,5,1,"1afeeab",51,1
"5324",1,0,71,1,2,1,"1afeeab",52,1
"5424",1,1,19,4,4,1,"1afeeab",53,1
"5524",0,1,195,1,5,1,"1afeeab",54,1
"5624",1,1,34,1,1,1,"1afeeab",55,1
"5724",0,0,306,5,5,1,"1afeeab",56,1
"5824",1,0,299,6,1,1,"1afeeab",57,1
"5924",0,1,101,1,3,1,"1afeeab",58,1
"6024",0,1,389,1,5,1,"1afeeab",59,1
"6128",0,0,79,1,1,1,"1afeeab",60,1
"6226",1,1,755,2,2,1,"1afeeab",61,1
"6324",0,1,697,1,4,1,"1afeeab",62,1
"6424",1,1,208,6,6,1,"1afeeab",63,1
"6524",1,1,117,3,3,1,"1afeeab",64,1
"6624",0,0,27,4,4,1,"1afeeab",65,1
"6724",0,1,37,2,1,1,"1afeeab",66,1
"6824",1,1,491,2,2,1,"1afeeab",67,1
"6924",0,1,50,1,3,1,"1afeeab",68,1
"7024",1,1,99,3,3,1,"1afeeab",69,1
"7128",0,1,267,1,2,1,"1afeeab",70,1
"7225",1,1,132,1,1,1,"1afeeab",71,1
"7324",0,1,155,5,1,1,"1afeeab",72,1
"7424",0,1,97,6,1,1,"1afeeab",73,1
"7524",1,1,168,5,5,1,"1afeeab",74,1
"7624",1,0,710,1,4,1,"1afeeab",75,1
"7724",0,0,150,4,4,1,"1afeeab",76,1
"7824",1,1,54,6,6,1,"1afeeab",77,1
"2109",1,0,392,1,3,2,"1399f07",1,1
"3109",0,1,282,1,4,2,"1399f07",2,1
"4109",0,0,227,2,2,2,"1399f07",3,1
"5109",1,1,265,1,1,2,"1399f07",4,1
"6109",0,1,313,1,5,2,"1399f07",5,1
"7100",1,1,251,5,5,2,"1399f07",6,1
"825",1,1,289,4,4,2,"1399f07",7,1
"925",1,0,249,1,2,2,"1399f07",8,1
"1025",0,0,575,3,3,2,"1399f07",9,1
"1125",0,1,318,1,6,2,"1399f07",10,1
"1225",1,1,262,6,6,2,"1399f07",11,1
"1325",0,1,309,1,5,2,"1399f07",12,1
"1425",1,0,249,6,1,2,"1399f07",13,1
"1525",0,0,162,2,2,2,"1399f07",14,1
"1625",1,1,291,5,5,2,"1399f07",15,1
"1725",1,0,258,2,1,2,"1399f07",16,1
"1825",0,0,253,3,3,2,"1399f07",17,1
"1925",1,1,258,1,1,2,"1399f07",18,1
"2025",0,0,166,4,4,2,"1399f07",19,1
"2129",0,1,256,4,1,2,"1399f07",20,1
"2227",1,1,331,6,6,2,"1399f07",21,1
"2325",1,0,601,1,3,2,"1399f07",22,1
"2425",1,1,242,6,6,2,"1399f07",23,1
"2525",1,1,452,3,3,2,"1399f07",24,1
"2625",0,1,522,1,4,2,"1399f07",25,1
"2725",1,0,558,1,3,2,"1399f07",26,1
"2825",1,1,385,2,2,2,"1399f07",27,1
"2925",0,1,395,1,6,2,"1399f07",28,1
"3025",1,1,450,5,5,2,"1399f07",29,1
"3129",0,1,265,5,1,2,"1399f07",30,1
"3227",1,1,332,4,4,2,"1399f07",31,1
"3325",1,1,250,1,1,2,"1399f07",32,1
"3425",1,0,234,1,2,2,"1399f07",33,1
"3525",0,1,268,5,1,2,"1399f07",34,1
"3625",1,1,513,2,2,2,"1399f07",35,1
"3725",0,0,844,5,5,2,"1399f07",36,1
"3825",1,1,250,4,4,2,"1399f07",37,1
"3925",1,0,317,2,1,2,"1399f07",38,1
"4025",0,1,234,1,6,2,"1399f07",39,1
"4129",1,1,295,3,3,2,"1399f07",40,1
"4227",1,1,432,6,6,2,"1399f07",41,1
"4325",0,1,553,4,1,2,"1399f07",42,1
"4425",0,1,634,1,3,2,"1399f07",43,1
"4525",1,1,238,1,1,2,"1399f07",44,1
"4625",1,1,309,4,4,2,"1399f07",45,1
"4725",0,1,453,1,4,2,"1399f07",46,1
"4825",1,1,437,6,6,2,"1399f07",47,1
"4925",0,1,270,1,2,2,"1399f07",48,1
"5025",1,0,302,3,1,2,"1399f07",49,1
"5129",1,1,323,1,1,2,"1399f07",50,1
"5227",0,1,253,1,6,2,"1399f07",51,1
"5325",1,1,219,3,3,2,"1399f07",52,1
"5425",0,1,474,5,1,2,"1399f07",53,1
"5525",1,1,346,5,5,2,"1399f07",54,1
"5625",1,1,547,2,2,2,"1399f07",55,1
"5725",0,1,260,1,5,2,"1399f07",56,1
"5825",0,1,491,1,6,2,"1399f07",57,1
"5925",1,1,233,1,1,2,"1399f07",58,1
"6025",0,1,353,3,1,2,"1399f07",59,1
"6129",1,0,312,2,1,2,"1399f07",60,1
"6227",1,1,533,3,3,2,"1399f07",61,1
"6325",1,1,236,6,6,2,"1399f07",62,1
"6425",1,1,359,2,2,2,"1399f07",63,1
"6525",1,1,257,4,4,2,"1399f07",64,1
"6625",0,0,178,5,5,2,"1399f07",65,1
"6725",0,1,223,1,4,2,"1399f07",66,1
"6825",0,1,879,1,3,2,"1399f07",67,1
"6925",1,1,244,3,3,2,"1399f07",68,1
"7025",1,1,485,5,5,2,"1399f07",69,1
"7129",0,1,321,4,1,2,"1399f07",70,1
"7226",1,0,225,1,2,2,"1399f07",71,1
"7325",1,1,368,2,2,2,"1399f07",72,1
"7425",1,1,244,1,1,2,"1399f07",73,1
"7525",1,1,286,4,4,2,"1399f07",74,1
"7625",0,1,531,5,1,2,"1399f07",75,1
"7725",1,1,323,6,6,2,"1399f07",76,1
"7825",0,1,317,6,1,2,"1399f07",77,1
"2130",1,1,898,5,5,3,"17e736d",1,1
"3130",1,1,573,6,6,3,"17e736d",2,1
"4130",0,0,329,1,1,3,"17e736d",3,1
"5130",1,1,528,4,4,3,"17e736d",4,1
"6130",1,0,265,1,2,3,"17e736d",5,1
"7101",1,0,325,1,3,3,"17e736d",6,1
"826",1,1,444,2,2,3,"17e736d",7,1
"926",0,1,281,1,5,3,"17e736d",8,1
"1026",0,1,379,4,1,3,"17e736d",9,1
"1126",1,1,331,3,3,3,"17e736d",10,1
"1226",0,1,371,1,6,3,"17e736d",11,1
"1326",1,0,309,1,2,3,"17e736d",12,1
"1426",1,1,352,3,3,3,"17e736d",13,1
"1526",1,1,301,1,1,3,"17e736d",14,1
"1626",0,1,256,1,6,3,"17e736d",15,1
"1726",0,1,322,1,5,3,"17e736d",16,1
"1826",1,1,681,6,6,3,"17e736d",17,1
"1926",1,1,306,5,5,3,"17e736d",18,1
"2026",1,1,778,2,2,3,"17e736d",19,1
"2131",0,1,351,1,4,3,"17e736d",20,1
"2228",0,1,455,3,1,3,"17e736d",21,1
"2326",1,1,302,4,4,3,"17e736d",22,1
"2426",1,1,438,4,4,3,"17e736d",23,1
"2526",0,1,530,5,1,3,"17e736d",24,1
"2626",1,1,301,3,3,3,"17e736d",25,1
"2726",1,1,366,1,1,3,"17e736d",26,1
"2826",0,1,362,3,1,3,"17e736d",27,1
"2926",1,1,243,5,5,3,"17e736d",28,1
"3026",0,1,372,1,6,3,"17e736d",29,1
"3131",1,0,354,1,2,3,"17e736d",30,1
"3228",1,0,339,4,1,3,"17e736d",31,1
"3326",1,1,385,6,6,3,"17e736d",32,1
"3426",1,1,356,2,2,3,"17e736d",33,1
"3526",1,0,269,2,1,3,"17e736d",34,1
"3626",0,1,270,1,4,3,"17e736d",35,1
"3726",1,1,366,6,6,3,"17e736d",36,1
"3826",1,0,617,1,3,3,"17e736d",37,1
"3926",1,1,277,2,2,3,"17e736d",38,1
"4026",0,1,402,1,6,3,"17e736d",39,1
"4131",1,1,288,5,5,3,"17e736d",40,1
"4228",0,0,233,3,3,3,"17e736d",41,1
"4326",-1,-1,0,5,1,3,"17e736d",42,1
"4426",1,1,269,1,1,3,"17e736d",43,1
"4526",1,1,338,4,4,3,"17e736d",44,1
"4626",0,1,309,1,6,3,"17e736d",45,1
"4726",0,1,328,1,3,3,"17e736d",46,1
"4826",1,1,268,3,3,3,"17e736d",47,1
"4926",1,0,827,1,2,3,"17e736d",48,1
"5026",1,1,430,1,1,3,"17e736d",49,1
"5131",1,1,253,2,2,3,"17e736d",50,1
"5228",0,0,264,5,5,3,"17e736d",51,1
"5326",1,1,304,4,4,3,"17e736d",52,1
"5426",0,1,280,4,1,3,"17e736d",53,1
"5526",1,0,1195,5,1,3,"17e736d",54,1
"5626",1,1,362,6,6,3,"17e736d",55,1
"5726",0,1,351,1,6,3,"17e736d",56,1
"5826",0,0,384,1,1,3,"17e736d",57,1
"5926",1,1,247,2,2,3,"17e736d",58,1
"6026",1,1,242,5,5,3,"17e736d",59,1
"6131",1,0,310,1,3,3,"17e736d",60,1
"6228",1,1,235,4,4,3,"17e736d",61,1
"6326",1,1,256,6,6,3,"17e736d",62,1
"6426",0,1,350,5,1,3,"17e736d",63,1
"6526",1,0,285,1,2,3,"17e736d",64,1
"6626",0,1,411,1,4,3,"17e736d",65,1
"6726",1,1,410,3,3,3,"17e736d",66,1
"6826",1,1,420,6,6,3,"17e736d",67,1
"6926",0,1,346,1,2,3,"17e736d",68,1
"7026",0,0,225,1,1,3,"17e736d",69,1
"7130",0,1,454,5,1,3,"17e736d",70,1
"7227",0,1,274,1,4,3,"17e736d",71,1
"7326",0,1,262,6,1,3,"17e736d",72,1
"7426",1,1,322,3,3,3,"17e736d",73,1
"7526",1,1,435,2,2,3,"17e736d",74,1
"7626",1,1,303,4,4,3,"17e736d",75,1
"7726",0,1,407,1,3,3,"17e736d",76,1
"7826",1,1,327,5,5,3,"17e736d",77,1
"2132",0,1,1972,4,1,1,"184d8a6",1,1
"3132",1,1,358,5,5,1,"184d8a6",2,1
"4132",1,1,325,4,4,1,"184d8a6",3,1
"5132",0,1,299,5,1,1,"184d8a6",4,1
"6132",1,1,335,3,3,1,"184d8a6",5,1
"7102",1,1,229,2,2,1,"184d8a6",6,1
"827",0,1,282,3,1,1,"184d8a6",7,1
"927",1,1,239,1,1,1,"184d8a6",8,1
"1027",0,1,348,6,1,1,"184d8a6",9,1
"1127",0,1,288,2,1,1,"184d8a6",10,1
"1227",1,1,270,6,6,1,"184d8a6",11,1
"1327",0,1,374,5,1,1,"184d8a6",12,1
"1427",0,1,482,1,4,1,"184d8a6",13,1
"1527",1,1,338,4,4,1,"184d8a6",14,1
"1627",1,1,458,1,1,1,"184d8a6",15,1
"1727",1,1,201,5,5,1,"184d8a6",16,1
"1827",1,1,394,2,2,1,"184d8a6",17,1
"1927",0,1,556,3,1,1,"184d8a6",18,1
"2027",1,1,204,6,6,1,"184d8a6",19,1
"2133",0,1,398,6,1,1,"184d8a6",20,1
"2229",1,1,211,3,3,1,"184d8a6",21,1
"2327",0,1,823,2,1,1,"184d8a6",22,1
"2427",0,1,427,4,1,1,"184d8a6",23,1
"2527",0,1,857,2,1,1,"184d8a6",24,1
"2627",1,1,637,6,6,1,"184d8a6",25,1
"2727",0,1,359,6,1,1,"184d8a6",26,1
"2827",1,1,490,4,4,1,"184d8a6",27,1
"2927",1,1,413,5,5,1,"184d8a6",28,1
"3027",1,1,666,2,2,1,"184d8a6",29,1
"3133",0,1,441,1,3,1,"184d8a6",30,1
"3229",1,1,352,1,1,1,"184d8a6",31,1
"3327",1,1,290,3,3,1,"184d8a6",32,1
"3427",0,1,527,1,5,1,"184d8a6",33,1
"3527",1,1,629,1,1,1,"184d8a6",34,1
"3627",1,1,457,3,3,1,"184d8a6",35,1
"3727",1,1,511,6,6,1,"184d8a6",36,1
"3827",0,1,1152,4,1,1,"184d8a6",37,1
"3927",1,1,1074,2,2,1,"184d8a6",38,1
"4027",0,1,512,6,1,1,"184d8a6",39,1
"4133",0,1,1693,5,1,1,"184d8a6",40,1
"4229",0,1,1175,1,2,1,"184d8a6",41,1
"4327",0,1,333,3,1,1,"184d8a6",42,1
"4427",1,1,487,4,4,1,"184d8a6",43,1
"4527",1,1,674,5,5,1,"184d8a6",44,1
"4627",0,1,1036,4,1,1,"184d8a6",45,1
"4727",0,1,292,3,1,1,"184d8a6",46,1
"4827",1,1,750,5,5,1,"184d8a6",47,1
"4927",0,1,667,6,1,1,"184d8a6",48,1
"5027",0,1,1308,1,5,1,"184d8a6",49,1
"5133",0,1,1780,2,1,1,"184d8a6",50,1
"5229",1,1,1182,6,6,1,"184d8a6",51,1
"5327",1,1,589,3,3,1,"184d8a6",52,1
"5427",1,1,1477,2,2,1,"184d8a6",53,1
"5527",1,1,566,1,1,1,"184d8a6",54,1
"5627",1,1,393,4,4,1,"184d8a6",55,1
"5727",0,1,859,1,3,1,"184d8a6",56,1
"5827",1,1,388,4,4,1,"184d8a6",57,1
"5927",1,1,1102,2,2,1,"184d8a6",58,1
"6027",1,1,376,3,3,1,"184d8a6",59,1
"6133",-1,-1,0,6,1,1,"184d8a6",60,1
"6229",1,1,251,6,6,1,"184d8a6",61,1
"6327",0,1,1179,2,1,1,"184d8a6",62,1
"6427",1,1,985,1,1,1,"184d8a6",63,1
"6527",0,1,385,5,1,1,"184d8a6",64,1
"6627",0,1,359,4,1,1,"184d8a6",65,1
"6727",1,1,1139,5,5,1,"184d8a6",66,1
"6827",0,1,439,1,6,1,"184d8a6",67,1
"6927",0,1,1146,1,5,1,"184d8a6",68,1
"7027",1,1,510,6,6,1,"184d8a6",69,1
"7131",1,1,503,4,4,1,"184d8a6",70,1
"7228",0,1,956,1,2,1,"184d8a6",71,1
"7327",1,1,276,1,1,1,"184d8a6",72,1
"7427",0,1,346,3,1,1,"184d8a6",73,1
"7527",0,1,413,1,4,1,"184d8a6",74,1
"7627",1,1,502,3,3,1,"184d8a6",75,1
"7727",1,1,701,5,5,1,"184d8a6",76,1
"7827",1,1,208,2,2,1,"184d8a6",77,1
"2134",1,0,457,1,5,1,"1b41c00",1,1
"3134",1,0,320,1,6,1,"1b41c00",2,1
"4134",0,0,434,1,1,1,"1b41c00",3,1
"5134",0,1,380,3,1,1,"1b41c00",4,1
"6134",0,0,374,5,5,1,"1b41c00",5,1
"7103",1,1,374,4,4,1,"1b41c00",6,1
"828",1,1,532,6,6,1,"1b41c00",7,1
"928",1,1,357,2,2,1,"1b41c00",8,1
"1028",0,1,345,1,4,1,"1b41c00",9,1
"1128",1,0,442,1,2,1,"1b41c00",10,1
"1228",1,1,639,3,3,1,"1b41c00",11,1
"1328",0,1,504,6,1,1,"1b41c00",12,1
"1428",1,1,488,4,4,1,"1b41c00",13,1
"1528",1,1,553,2,2,1,"1b41c00",14,1
"1628",1,1,547,3,3,1,"1b41c00",15,1
"1728",1,1,303,5,5,1,"1b41c00",16,1
"1828",1,0,372,2,1,1,"1b41c00",17,1
"1928",1,1,457,6,6,1,"1b41c00",18,1
"2028",0,1,407,1,4,1,"1b41c00",19,1
"2135",1,0,381,3,1,1,"1b41c00",20,1
"2230",1,1,444,1,1,1,"1b41c00",21,1
"2328",0,1,483,5,1,1,"1b41c00",22,1
"2428",1,0,577,2,1,1,"1b41c00",23,1
"2528",1,1,437,3,3,1,"1b41c00",24,1
"2628",0,1,413,1,3,1,"1b41c00",25,1
"2728",0,1,736,4,1,1,"1b41c00",26,1
"2828",1,1,291,2,2,1,"1b41c00",27,1
"2928",1,1,506,5,5,1,"1b41c00",28,1
"3028",1,1,494,1,1,1,"1b41c00",29,1
"3135",1,1,531,4,4,1,"1b41c00",30,1
"3230",0,1,444,6,1,1,"1b41c00",31,1
"3328",1,1,694,6,6,1,"1b41c00",32,1
"3428",0,1,433,5,1,1,"1b41c00",33,1
"3528",1,1,387,3,3,1,"1b41c00",34,1
"3628",0,1,299,1,5,1,"1b41c00",35,1
"3728",1,1,1091,5,5,1,"1b41c00",36,1
"3828",1,0,283,1,2,1,"1b41c00",37,1
"3928",1,1,347,1,1,1,"1b41c00",38,1
"4028",0,1,571,1,3,1,"1b41c00",39,1
"4135",1,0,359,1,4,1,"1b41c00",40,1
"4230",0,1,449,1,6,1,"1b41c00",41,1
"4328",0,0,1207,4,4,1,"1b41c00",42,1
"4428",0,0,743,6,6,1,"1b41c00",43,1
"4528",1,1,911,2,2,1,"1b41c00",44,1
"4628",0,1,689,1,4,1,"1b41c00",45,1
"4728",-1,-1,0,1,2,1,"1b41c00",46,1
"4828",1,0,660,1,3,1,"1b41c00",47,1
"4928",1,1,494,4,4,1,"1b41c00",48,1
"5028",1,1,1024,3,3,1,"1b41c00",49,1
"5135",1,1,647,5,5,1,"1b41c00",50,1
"5230",0,1,703,6,1,1,"1b41c00",51,1
"5328",0,1,658,5,1,1,"1b41c00",52,1
"5428",1,1,497,6,6,1,"1b41c00",53,1
"5528",1,1,409,1,1,1,"1b41c00",54,1
"5628",1,1,1158,2,2,1,"1b41c00",55,1
"5728",1,1,667,3,3,1,"1b41c00",56,1
"5828",1,1,946,5,5,1,"1b41c00",57,1
"5928",1,0,464,1,2,1,"1b41c00",58,1
"6028",1,0,1007,4,1,1,"1b41c00",59,1
"6135",1,0,1198,3,1,1,"1b41c00",60,1
"6230",0,1,1334,5,1,1,"1b41c00",61,1
"6328",1,0,1322,6,1,1,"1b41c00",62,1
"6428",1,1,372,2,2,1,"1b41c00",63,1
"6528",1,1,604,1,1,1,"1b41c00",64,1
"6628",1,1,1006,4,4,1,"1b41c00",65,1
"6728",1,1,578,6,6,1,"1b41c00",66,1
"6828",1,0,499,1,2,1,"1b41c00",67,1
"6928",0,1,531,3,1,1,"1b41c00",68,1
"7028",1,1,679,4,4,1,"1b41c00",69,1
"7132",0,1,521,1,4,1,"1b41c00",70,1
"7229",1,1,634,1,1,1,"1b41c00",71,1
"7328",1,1,417,3,3,1,"1b41c00",72,1
"7428",1,1,578,2,2,1,"1b41c00",73,1
"7528",1,1,473,5,5,1,"1b41c00",74,1
"7628",0,1,776,5,1,1,"1b41c00",75,1
"7728",1,1,602,6,6,1,"1b41c00",76,1
"7828",0,1,1042,6,1,1,"1b41c00",77,1
"2136",1,1,1098,6,6,3,"189e236",1,2
"3136",1,1,414,2,2,3,"189e236",2,2
"4136",1,1,888,1,1,3,"189e236",3,2
"5136",1,0,473,4,1,3,"189e236",4,2
"6136",0,0,425,3,3,3,"189e236",5,2
"7104",0,1,453,3,1,3,"189e236",6,2
"829",1,1,359,5,5,3,"189e236",7,2
"929",0,1,751,1,5,3,"189e236",8,2
"1029",0,1,1183,6,1,3,"189e236",9,2
"1129",0,0,564,4,4,3,"189e236",10,2
"1229",1,0,381,1,2,3,"189e236",11,2
"1329",0,1,319,6,1,3,"189e236",12,2
"1429",1,1,323,2,2,3,"189e236",13,2
"1529",0,1,374,1,3,3,"189e236",14,2
"1629",0,1,590,1,5,3,"189e236",15,2
"1729",0,0,663,6,6,3,"189e236",16,2
"1829",0,1,596,1,4,3,"189e236",17,2
"1929",1,0,389,1,2,3,"189e236",18,2
"2029",1,1,465,1,1,3,"189e236",19,2
"2137",1,1,403,5,5,3,"189e236",20,2
"2231",1,1,359,3,3,3,"189e236",21,2
"2329",1,1,350,4,4,3,"189e236",22,2
"2429",1,0,791,1,6,3,"189e236",23,2
"2529",1,1,609,3,3,3,"189e236",24,2
"2629",1,1,1320,6,6,3,"189e236",25,2
"2729",0,1,509,1,5,3,"189e236",26,2
"2829",0,1,399,1,3,3,"189e236",27,2
"2929",1,1,399,2,2,3,"189e236",28,2
"3029",0,1,487,4,1,3,"189e236",29,2
"3137",1,1,471,1,1,3,"189e236",30,2
"3231",0,0,424,5,5,3,"189e236",31,2
"3329",1,1,444,4,4,3,"189e236",32,2
"3429",0,1,617,1,2,3,"189e236",33,2
"3529",0,1,762,1,4,3,"189e236",34,2
"3629",1,1,731,1,1,3,"189e236",35,2
"3729",0,1,400,1,5,3,"189e236",36,2
"3829",0,1,410,1,3,3,"189e236",37,2
"3929",1,1,488,4,4,3,"189e236",38,2
"4029",1,1,443,5,5,3,"189e236",39,2
"4137",0,1,873,1,6,3,"189e236",40,2
"4231",1,1,460,3,3,3,"189e236",41,2
"4329",1,1,773,2,2,3,"189e236",42,2
"4429",1,0,687,2,1,3,"189e236",43,2
"4529",1,1,305,6,6,3,"189e236",44,2
"4629",1,1,1162,5,5,3,"189e236",45,2
"4729",0,0,1497,3,3,3,"189e236",46,2
"4829",0,1,409,5,1,3,"189e236",47,2
"4929",1,0,489,1,6,3,"189e236",48,2
"5029",1,0,1028,2,1,3,"189e236",49,2
"5137",0,1,1793,1,3,3,"189e236",50,2
"5231",1,0,386,4,1,3,"189e236",51,2
"5329",1,1,403,1,1,3,"189e236",52,2
"5429",1,1,325,4,4,3,"189e236",53,2
"5529",1,1,350,6,6,3,"189e236",54,2
"5629",1,1,542,2,2,3,"189e236",55,2
"5729",1,1,707,5,5,3,"189e236",56,2
"5829",1,1,543,1,1,3,"189e236",57,2
"5929",1,1,501,4,4,3,"189e236",58,2
"6029",0,1,371,1,5,3,"189e236",59,2
"6137",1,1,361,6,6,3,"189e236",60,2
"6231",-1,-1,0,4,1,3,"189e236",61,2
"6329",-1,-1,0,3,3,3,"189e236",62,2
"6429",1,0,1821,2,1,3,"189e236",63,2
"6529",-1,-1,0,1,6,3,"189e236",64,2
"6629",-1,-1,0,3,1,3,"189e236",65,2
"6729",1,1,622,2,2,3,"189e236",66,2
"6829",1,1,249,4,4,3,"189e236",67,2
"6929",1,1,943,3,3,3,"189e236",68,2
"7029",0,1,886,1,4,3,"189e236",69,2
"7133",1,1,262,2,2,3,"189e236",70,2
"7230",-1,-1,0,1,2,3,"189e236",71,2
"7329",0,0,395,6,6,3,"189e236",72,2
"7429",1,0,465,1,6,3,"189e236",73,2
"7529",0,1,832,3,1,3,"189e236",74,2
"7629",1,1,557,5,5,3,"189e236",75,2
"7729",1,1,314,1,1,3,"189e236",76,2
"7829",1,0,625,1,5,3,"189e236",77,2
"2138",1,1,235,4,4,2,"1aeba69",1,2
"3138",1,1,124,5,5,2,"1aeba69",2,2
"4138",0,1,34,1,3,2,"1aeba69",3,2
"5138",1,1,290,3,3,2,"1aeba69",4,2
"6138",0,1,700,2,1,2,"1aeba69",5,2
"7105",0,1,489,1,6,2,"1aeba69",6,2
"830",1,1,200,1,1,2,"1aeba69",7,2
"930",0,1,60,4,1,2,"1aeba69",8,2
"1030",0,1,309,1,5,2,"1aeba69",9,2
"1130",1,1,317,6,6,2,"1aeba69",10,2
"1230",1,1,386,2,2,2,"1aeba69",11,2
"1330",0,1,1058,3,1,2,"1aeba69",12,2
"1430",0,1,67,5,1,2,"1aeba69",13,2
"1530",-1,-1,0,2,1,2,"1aeba69",14,2
"1630",0,1,7,4,1,2,"1aeba69",15,2
"1730",1,1,363,5,5,2,"1aeba69",16,2
"1830",1,1,340,3,3,2,"1aeba69",17,2
"1930",1,1,390,6,6,2,"1aeba69",18,2
"2030",1,1,648,1,1,2,"1aeba69",19,2
"2139",0,1,960,6,1,2,"1aeba69",20,2
"2232",1,1,314,4,4,2,"1aeba69",21,2
"2330",1,1,338,2,2,2,"1aeba69",22,2
"2430",0,1,375,2,1,2,"1aeba69",23,2
"2530",1,1,253,5,5,2,"1aeba69",24,2
"2630",0,1,25,1,5,2,"1aeba69",25,2
"2730",1,1,313,6,6,2,"1aeba69",26,2
"2830",1,1,51,1,1,2,"1aeba69",27,2
"2930",0,1,452,3,1,2,"1aeba69",28,2
"3030",1,1,792,4,4,2,"1aeba69",29,2
"3139",1,1,672,2,2,2,"1aeba69",30,2
"3232",0,1,717,4,1,2,"1aeba69",31,2
"3330",0,1,371,1,6,2,"1aeba69",32,2
"3430",1,1,522,3,3,2,"1aeba69",33,2
"3530",0,0,330,4,4,2,"1aeba69",34,2
"3630",1,1,302,6,6,2,"1aeba69",35,2
"3730",1,1,353,3,3,2,"1aeba69",36,2
"3830",1,0,1436,2,1,2,"1aeba69",37,2
"3930",1,1,340,2,2,2,"1aeba69",38,2
"4030",1,1,275,5,5,2,"1aeba69",39,2
"4139",1,1,436,1,1,2,"1aeba69",40,2
"4232",0,1,381,5,1,2,"1aeba69",41,2
"4330",0,1,640,4,1,2,"1aeba69",42,2
"4430",0,1,251,3,1,2,"1aeba69",43,2
"4530",0,1,528,1,6,2,"1aeba69",44,2
"4630",0,0,1064,3,3,2,"1aeba69",45,2
"4730",1,1,551,6,6,2,"1aeba69",46,2
"4830",0,1,316,5,1,2,"1aeba69",47,2
"4930",0,0,1113,4,4,2,"1aeba69",48,2
"5030",1,1,786,2,2,2,"1aeba69",49,2
"5139",0,1,155,4,1,2,"1aeba69",50,2
"5232",0,1,200,2,1,2,"1aeba69",51,2
"5330",1,1,329,5,5,2,"1aeba69",52,2
"5430",0,1,268,1,3,2,"1aeba69",53,2
"5530",0,1,97,6,1,2,"1aeba69",54,2
"5630",1,1,69,1,1,2,"1aeba69",55,2
"5730",0,1,387,1,3,2,"1aeba69",56,2
"5830",1,1,430,1,1,2,"1aeba69",57,2
"5930",0,1,592,1,6,2,"1aeba69",58,2
"6030",1,1,160,4,4,2,"1aeba69",59,2
"6139",0,1,447,5,1,2,"1aeba69",60,2
"6232",0,1,118,4,1,2,"1aeba69",61,2
"6330",0,0,47,2,2,2,"1aeba69",62,2
"6430",1,1,199,6,6,2,"1aeba69",63,2
"6530",1,1,71,3,3,2,"1aeba69",64,2
"6630",1,0,18,2,1,2,"1aeba69",65,2
"6730",1,1,297,5,5,2,"1aeba69",66,2
"6830",1,1,73,6,6,2,"1aeba69",67,2
"6930",1,1,419,2,2,2,"1aeba69",68,2
"7030",0,1,303,1,4,2,"1aeba69",69,2
"7134",0,1,428,1,2,2,"1aeba69",70,2
"7231",1,1,80,4,4,2,"1aeba69",71,2
"7330",1,1,238,5,5,2,"1aeba69",72,2
"7430",1,1,760,3,3,2,"1aeba69",73,2
"7530",0,1,355,1,3,2,"1aeba69",74,2
"7630",0,1,397,6,1,2,"1aeba69",75,2
"7730",0,1,524,5,1,2,"1aeba69",76,2
"7830",1,1,307,1,1,2,"1aeba69",77,2
"2140",0,1,265,1,2,3,"1596ba3",1,2
"3140",1,1,276,4,4,3,"1596ba3",2,2
"4140",0,1,305,3,1,3,"1596ba3",3,2
"5140",1,1,317,5,5,3,"1596ba3",4,2
"6140",0,1,298,4,1,3,"1596ba3",5,2
"7106",0,1,471,1,6,3,"1596ba3",6,2
"831",1,1,343,2,2,3,"1596ba3",7,2
"931",0,1,322,1,5,3,"1596ba3",8,2
"1031",1,1,533,1,1,3,"1596ba3",9,2
"1131",1,1,417,3,3,3,"1596ba3",10,2
"1231",1,1,286,6,6,3,"1596ba3",11,2
"1331",1,1,291,1,1,3,"1596ba3",12,2
"1431",1,1,328,4,4,3,"1596ba3",13,2
"1531",0,1,411,6,1,3,"1596ba3",14,2
"1631",1,1,304,2,2,3,"1596ba3",15,2
"1731",1,0,1146,1,2,3,"1596ba3",16,2
"1831",1,1,291,6,6,3,"1596ba3",17,2
"1931",0,1,342,1,4,3,"1596ba3",18,2
"2031",1,1,316,5,5,3,"1596ba3",19,2
"2141",1,0,307,1,3,3,"1596ba3",20,2
"2233",0,0,279,3,3,3,"1596ba3",21,2
"2331",0,1,507,1,5,3,"1596ba3",22,2
"2431",1,1,254,3,3,3,"1596ba3",23,2
"2531",1,1,276,5,5,3,"1596ba3",24,2
"2631",1,1,312,2,2,3,"1596ba3",25,2
"2731",1,1,299,1,1,3,"1596ba3",26,2
"2831",0,1,334,4,1,3,"1596ba3",27,2
"2931",0,1,438,5,1,3,"1596ba3",28,2
"3031",1,0,515,1,2,3,"1596ba3",29,2
"3141",0,1,305,6,1,3,"1596ba3",30,2
"3233",1,0,289,1,3,3,"1596ba3",31,2
"3331",1,1,302,6,6,3,"1596ba3",32,2
"3431",1,1,298,4,4,3,"1596ba3",33,2
"3531",0,1,343,1,4,3,"1596ba3",34,2
"3631",1,1,316,2,2,3,"1596ba3",35,2
"3731",1,0,267,2,1,3,"1596ba3",36,2
"3831",0,1,363,1,6,3,"1596ba3",37,2
"3931",0,1,297,5,1,3,"1596ba3",38,2
"4031",1,1,332,5,5,3,"1596ba3",39,2
"4141",1,0,1298,1,3,3,"1596ba3",40,2
"4233",1,1,844,1,1,3,"1596ba3",41,2
"4331",1,1,339,3,3,3,"1596ba3",42,2
"4431",1,1,253,4,4,3,"1596ba3",43,2
"4531",1,1,298,6,6,3,"1596ba3",44,2
"4631",0,1,431,1,3,3,"1596ba3",45,2
"4731",1,1,272,2,2,3,"1596ba3",46,2
"4831",1,0,597,1,2,3,"1596ba3",47,2
"4931",1,1,297,3,3,3,"1596ba3",48,2
"5031",0,1,323,1,6,3,"1596ba3",49,2
"5141",1,1,382,5,5,3,"1596ba3",50,2
"5233",1,0,803,4,1,3,"1596ba3",51,2
"5331",1,1,730,1,1,3,"1596ba3",52,2
"5431",1,1,245,4,4,3,"1596ba3",53,2
"5531",0,1,290,5,1,3,"1596ba3",54,2
"5631",1,1,327,6,6,3,"1596ba3",55,2
"5731",1,1,299,5,5,3,"1596ba3",56,2
"5831",1,1,374,3,3,3,"1596ba3",57,2
"5931",1,1,1993,6,6,3,"1596ba3",58,2
"6031",0,1,525,1,5,3,"1596ba3",59,2
"6141",1,1,607,2,2,3,"1596ba3",60,2
"6233",1,0,561,1,2,3,"1596ba3",61,2
"6331",0,1,316,6,1,3,"1596ba3",62,2
"6431",1,1,320,4,4,3,"1596ba3",63,2
"6531",0,1,318,4,1,3,"1596ba3",64,2
"6631",1,1,578,1,1,3,"1596ba3",65,2
"6731",0,1,380,1,3,3,"1596ba3",66,2
"6831",0,1,752,1,4,3,"1596ba3",67,2
"6931",1,1,331,6,6,3,"1596ba3",68,2
"7031",0,1,337,3,1,3,"1596ba3",69,2
"7135",0,1,359,1,6,3,"1596ba3",70,2
"7232",0,1,356,5,1,3,"1596ba3",71,2
"7331",0,0,328,4,4,3,"1596ba3",72,2
"7431",0,0,293,1,1,3,"1596ba3",73,2
"7531",1,1,288,5,5,3,"1596ba3",74,2
"7631",1,1,482,2,2,3,"1596ba3",75,2
"7731",1,0,311,1,2,3,"1596ba3",76,2
"7831",1,1,307,3,3,3,"1596ba3",77,2
"2142",1,1,1296,1,1,3,"118e902",1,2
"3142",1,1,1047,2,2,3,"118e902",2,2
"4142",0,1,555,1,6,3,"118e902",3,2
"5142",0,0,531,3,3,3,"118e902",4,2
"6142",0,0,697,5,5,3,"118e902",5,2
"7107",1,0,936,1,4,3,"118e902",6,2
"832",1,1,1147,4,4,3,"118e902",7,2
"932",1,0,760,1,5,3,"118e902",8,2
"1032",0,1,790,2,1,3,"118e902",9,2
"1132",1,1,428,6,6,3,"118e902",10,2
"1232",1,0,721,1,3,3,"118e902",11,2
"1332",0,1,1031,5,1,3,"118e902",12,2
"1432",1,1,999,4,4,3,"118e902",13,2
"1532",1,0,1142,2,1,3,"118e902",14,2
"1632",1,1,1091,5,5,3,"118e902",15,2
"1732",-1,-1,0,1,1,3,"118e902",16,2
"1832",-1,-1,0,6,1,3,"118e902",17,2
"1932",-1,-1,0,1,3,3,"118e902",18,2
"2032",-1,-1,0,2,2,3,"118e902",19,2
"2143",1,1,421,3,3,3,"118e902",20,2
"2234",-1,-1,0,4,1,3,"118e902",21,2
"2332",0,0,1135,6,6,3,"118e902",22,2
"2432",1,1,389,3,3,3,"118e902",23,2
"2532",1,0,724,2,1,3,"118e902",24,2
"2632",1,0,531,1,6,3,"118e902",25,2
"2732",1,0,465,1,4,3,"118e902",26,2
"2832",1,1,504,6,6,3,"118e902",27,2
"2932",-1,-1,0,1,3,3,"118e902",28,2
"3032",0,0,1261,4,4,3,"118e902",29,2
"3143",-1,-1,0,5,5,3,"118e902",30,2
"3234",1,1,516,2,2,3,"118e902",31,2
"3332",1,1,1216,1,1,3,"118e902",32,2
"3432",0,1,950,1,5,3,"118e902",33,2
"3532",0,0,387,4,4,3,"118e902",34,2
"3632",1,0,1906,1,6,3,"118e902",35,2
"3732",1,0,1144,1,2,3,"118e902",36,2
"3832",0,1,909,1,4,3,"118e902",37,2
"3932",1,1,1114,2,2,3,"118e902",38,2
"4032",0,0,969,6,6,3,"118e902",39,2
"4143",1,1,713,1,1,3,"118e902",40,2
"4234",0,0,783,5,5,3,"118e902",41,2
"4332",1,0,484,3,1,3,"118e902",42,2
"4432",-1,-1,0,3,3,3,"118e902",43,2
"4532",1,0,1271,1,5,3,"118e902",44,2
"4632",0,0,1077,5,5,3,"118e902",45,2
"4732",1,1,532,1,1,3,"118e902",46,2
"4832",1,1,1105,6,6,3,"118e902",47,2
"4932",1,0,631,1,4,3,"118e902",48,2
"5032",-1,-1,0,3,1,3,"118e902",49,2
"5143",1,0,1475,1,2,3,"118e902",50,2
"5234",0,0,671,2,2,3,"118e902",51,2
"5332",1,1,975,3,3,3,"118e902",52,2
"5432",-1,-1,0,6,1,3,"118e902",53,2
"5532",1,0,391,5,1,3,"118e902",54,2
"5632",1,1,941,4,4,3,"118e902",55,2
"5732",1,0,517,3,1,3,"118e902",56,2
"5832",1,0,1243,1,5,3,"118e902",57,2
"5932",1,1,1016,6,6,3,"118e902",58,2
"6032",-1,-1,0,1,2,3,"118e902",59,2
"6143",-1,-1,0,2,2,3,"118e902",60,2
"6234",1,0,572,4,1,3,"118e902",61,2
"6332",0,0,813,5,5,3,"118e902",62,2
"6432",-1,-1,0,4,4,3,"118e902",63,2
"6532",1,1,495,3,3,3,"118e902",64,2
"6632",0,1,582,6,1,3,"118e902",65,2
"6732",0,0,870,1,1,3,"118e902",66,2
"6832",-1,-1,0,4,1,3,"118e902",67,2
"6932",-1,-1,0,1,1,3,"118e902",68,2
"7032",1,1,570,3,3,3,"118e902",69,2
"7136",1,1,760,6,6,3,"118e902",70,2
"7233",-1,-1,0,4,4,3,"118e902",71,2
"7332",1,0,939,2,1,3,"118e902",72,2
"7432",0,0,1010,5,5,3,"118e902",73,2
"7532",1,0,632,1,6,3,"118e902",74,2
"7632",1,0,613,1,5,3,"118e902",75,2
"7732",-1,-1,0,2,2,3,"118e902",76,2
"7832",1,0,629,1,3,3,"118e902",77,2
"2144",1,1,250,4,4,2,"1d735f8",1,2
"3144",0,1,510,4,1,2,"1d735f8",2,2
"4144",0,1,353,1,5,2,"1d735f8",3,2
"5144",0,1,261,1,2,2,"1d735f8",4,2
"6144",1,1,335,3,3,2,"1d735f8",5,2
"7108",1,1,213,5,5,2,"1d735f8",6,2
"833",1,1,65,1,1,2,"1d735f8",7,2
"933",1,1,668,2,2,2,"1d735f8",8,2
"1033",0,1,313,6,1,2,"1d735f8",9,2
"1133",0,0,912,6,6,2,"1d735f8",10,2
"1233",1,0,913,3,1,2,"1d735f8",11,2
"1333",1,1,283,1,1,2,"1d735f8",12,2
"1433",0,1,276,1,4,2,"1d735f8",13,2
"1533",1,1,831,3,3,2,"1d735f8",14,2
"1633",1,1,791,5,5,2,"1d735f8",15,2
"1733",0,1,261,3,1,2,"1d735f8",16,2
"1833",1,0,523,2,1,2,"1d735f8",17,2
"1933",0,1,433,5,1,2,"1d735f8",18,2
"2033",1,1,249,6,6,2,"1d735f8",19,2
"2145",1,1,375,4,4,2,"1d735f8",20,2
"2235",0,1,518,1,6,2,"1d735f8",21,2
"2333",1,1,353,2,2,2,"1d735f8",22,2
"2433",1,1,578,6,6,2,"1d735f8",23,2
"2533",-1,-1,0,1,3,2,"1d735f8",24,2
"2633",1,1,280,4,4,2,"1d735f8",25,2
"2733",0,1,411,2,1,2,"1d735f8",26,2
"2833",1,1,503,3,3,2,"1d735f8",27,2
"2933",1,1,377,5,5,2,"1d735f8",28,2
"3033",0,1,302,1,5,2,"1d735f8",29,2
"3145",1,1,332,2,2,2,"1d735f8",30,2
"3235",0,1,530,1,6,2,"1d735f8",31,2
"3333",0,1,807,4,1,2,"1d735f8",32,2
"3433",1,1,311,1,1,2,"1d735f8",33,2
"3533",-1,-1,0,1,6,2,"1d735f8",34,2
"3633",1,0,487,1,2,2,"1d735f8",35,2
"3733",0,1,1272,1,5,2,"1d735f8",36,2
"3833",1,1,478,1,1,2,"1d735f8",37,2
"3933",0,1,1217,3,1,2,"1d735f8",38,2
"4033",0,1,367,1,4,2,"1d735f8",39,2
"4145",1,1,762,6,6,2,"1d735f8",40,2
"4235",1,1,1144,2,2,2,"1d735f8",41,2
"4333",1,1,1395,4,4,2,"1d735f8",42,2
"4433",1,1,597,3,3,2,"1d735f8",43,2
"4533",1,1,489,5,5,2,"1d735f8",44,2
"4633",0,1,267,6,1,2,"1d735f8",45,2
"4733",1,1,297,1,1,2,"1d735f8",46,2
"4833",1,1,407,3,3,2,"1d735f8",47,2
"4933",0,1,575,4,1,2,"1d735f8",48,2
"5033",0,1,432,1,2,2,"1d735f8",49,2
"5145",1,1,265,5,5,2,"1d735f8",50,2
"5235",1,1,368,2,2,2,"1d735f8",51,2
"5333",0,1,233,3,1,2,"1d735f8",52,2
"5433",1,1,408,4,4,2,"1d735f8",53,2
"5533",1,1,264,6,6,2,"1d735f8",54,2
"5633",0,1,256,1,5,2,"1d735f8",55,2
"5733",0,1,263,2,1,2,"1d735f8",56,2
"5833",1,1,287,3,3,2,"1d735f8",57,2
"5933",1,1,46,1,1,2,"1d735f8",58,2
"6033",1,1,327,6,6,2,"1d735f8",59,2
"6145",1,0,264,1,4,2,"1d735f8",60,2
"6235",1,1,382,5,5,2,"1d735f8",61,2
"6333",1,1,415,2,2,2,"1d735f8",62,2
"6433",0,1,375,5,1,2,"1d735f8",63,2
"6533",1,1,252,4,4,2,"1d735f8",64,2
"6633",0,1,324,1,6,2,"1d735f8",65,2
"6733",0,1,269,3,1,2,"1d735f8",66,2
"6833",1,1,523,3,3,2,"1d735f8",67,2
"6933",1,1,213,6,6,2,"1d735f8",68,2
"7033",0,1,532,1,4,2,"1d735f8",69,2
"7137",1,1,1175,1,1,2,"1d735f8",70,2
"7234",0,0,573,5,5,2,"1d735f8",71,2
"7333",1,1,374,2,2,2,"1d735f8",72,2
"7433",1,1,419,4,4,2,"1d735f8",73,2
"7533",0,1,660,5,1,2,"1d735f8",74,2
"7633",0,1,555,1,3,2,"1d735f8",75,2
"7733",1,0,959,1,2,2,"1d735f8",76,2
"7833",0,1,966,6,1,2,"1d735f8",77,2
"2146",1,1,1950,4,4,1,"1938b10",1,2
"3146",0,1,1885,4,1,1,"1938b10",2,2
"4146",0,1,1797,1,3,1,"1938b10",3,2
"5146",0,1,1966,5,1,1,"1938b10",4,2
"6146",1,1,1859,6,6,1,"1938b10",5,2
"7109",1,1,1754,3,3,1,"1938b10",6,2
"834",1,1,1873,2,2,1,"1938b10",7,2
"934",1,1,1958,1,1,1,"1938b10",8,2
"1034",1,1,1999,5,5,1,"1938b10",9,2
"1134",0,1,1905,1,6,1,"1938b10",10,2
"1234",0,1,1970,1,2,1,"1938b10",11,2
"1334",1,1,1837,3,3,1,"1938b10",12,2
"1434",0,1,1994,1,4,1,"1938b10",13,2
"1534",1,1,1851,5,5,1,"1938b10",14,2
"1634",1,1,183,6,6,1,"1938b10",15,2
"1734",-1,-1,0,1,1,1,"1938b10",16,2
"1834",-1,-1,0,2,2,1,"1938b10",17,2
"1934",-1,-1,0,1,6,1,"1938b10",18,2
"2034",-1,-1,0,1,2,1,"1938b10",19,2
"2147",0,1,477,3,1,1,"1938b10",20,2
"2236",1,1,406,4,4,1,"1938b10",21,2
"2334",-1,-1,0,1,5,1,"1938b10",22,2
"2434",-1,-1,0,1,3,1,"1938b10",23,2
"2534",-1,-1,0,6,6,1,"1938b10",24,2
"2634",-1,-1,0,1,6,1,"1938b10",25,2
"2734",-1,-1,0,3,3,1,"1938b10",26,2
"2834",1,1,1891,4,4,1,"1938b10",27,2
"2934",1,1,364,5,5,1,"1938b10",28,2
"3034",0,1,972,2,1,1,"1938b10",29,2
"3147",-1,-1,0,1,5,1,"1938b10",30,2
"3236",1,1,221,1,1,1,"1938b10",31,2
"3334",1,1,1432,2,2,1,"1938b10",32,2
"3434",0,1,1258,4,1,1,"1938b10",33,2
"3534",1,1,1815,5,5,1,"1938b10",34,2
"3634",0,1,1891,1,5,1,"1938b10",35,2
"3734",0,1,1825,2,1,1,"1938b10",36,2
"3834",0,1,1857,1,4,1,"1938b10",37,2
"3934",0,1,1276,1,6,1,"1938b10",38,2
"4034",1,1,1935,4,4,1,"1938b10",39,2
"4147",1,1,1838,2,2,1,"1938b10",40,2
"4236",1,1,1793,1,1,1,"1938b10",41,2
"4334",1,1,1906,3,3,1,"1938b10",42,2
"4434",0,1,1831,3,1,1,"1938b10",43,2
"4534",1,1,1921,6,6,1,"1938b10",44,2
"4634",0,1,1801,1,2,1,"1938b10",45,2
"4734",0,1,1934,5,1,1,"1938b10",46,2
"4834",1,1,1923,5,5,1,"1938b10",47,2
"4934",1,1,1970,4,4,1,"1938b10",48,2
"5034",1,1,1949,6,6,1,"1938b10",49,2
"5147",1,1,1841,3,3,1,"1938b10",50,2
"5236",0,1,1840,1,6,1,"1938b10",51,2
"5334",1,1,1977,1,1,1,"1938b10",52,2
"5434",0,1,1837,4,1,1,"1938b10",53,2
"5534",1,1,1787,2,2,1,"1938b10",54,2
"5634",0,1,1936,1,3,1,"1938b10",55,2
"5734",0,1,1941,4,1,1,"1938b10",56,2
"5834",1,1,1755,6,6,1,"1938b10",57,2
"5934",0,1,1990,1,5,1,"1938b10",58,2
"6034",1,1,290,4,4,1,"1938b10",59,2
"6147",1,1,1992,5,5,1,"1938b10",60,2
"6236",1,1,1876,1,1,1,"1938b10",61,2
"6334",1,1,1958,3,3,1,"1938b10",62,2
"6434",1,1,1896,2,2,1,"1938b10",63,2
"6534",0,1,1910,1,6,1,"1938b10",64,2
"6634",0,1,1912,1,3,1,"1938b10",65,2
"6734",0,1,1763,2,1,1,"1938b10",66,2
"6834",0,1,1958,1,4,1,"1938b10",67,2
"6934",0,1,1813,1,2,1,"1938b10",68,2
"7034",0,1,1987,1,3,1,"1938b10",69,2
"7138",1,1,1858,6,6,1,"1938b10",70,2
"7235",0,1,1867,1,6,1,"1938b10",71,2
"7334",1,1,1967,1,1,1,"1938b10",72,2
"7434",1,1,1996,2,2,1,"1938b10",73,2
"7534",1,1,1797,5,5,1,"1938b10",74,2
"7634",1,1,1869,4,4,1,"1938b10",75,2
"7734",1,1,1968,3,3,1,"1938b10",76,2
"7834",0,1,1968,5,1,1,"1938b10",77,2
"2148",0,1,547,5,1,3,"156d4e2",1,2
"3148",1,1,831,4,4,3,"156d4e2",2,2
"4148",1,0,905,1,6,3,"156d4e2",3,2
"5148",0,0,503,1,1,3,"156d4e2",4,2
"6148",1,1,402,6,6,3,"156d4e2",5,2
"7139",-1,-1,0,5,5,3,"156d4e2",6,2
"835",1,0,423,3,1,3,"156d4e2",7,2
"935",1,1,284,2,2,3,"156d4e2",8,2
"1035",1,1,441,3,3,3,"156d4e2",9,2
"1135",1,0,551,2,1,3,"156d4e2",10,2
"1235",1,0,734,4,1,3,"156d4e2",11,2
"1335",1,1,506,5,5,3,"156d4e2",12,2
"1435",1,1,662,1,1,3,"156d4e2",13,2
"1535",0,1,748,1,5,3,"156d4e2",14,2
"1635",1,1,900,6,6,3,"156d4e2",15,2
"1735",1,1,453,3,3,3,"156d4e2",16,2
"1835",1,0,354,1,2,3,"156d4e2",17,2
"1935",0,1,573,4,1,3,"156d4e2",18,2
"2035",0,1,567,3,1,3,"156d4e2",19,2
"2149",0,0,649,4,4,3,"156d4e2",20,2
"2237",0,1,716,6,1,3,"156d4e2",21,2
"2335",0,0,623,2,2,3,"156d4e2",22,2
"2435",0,0,734,6,6,3,"156d4e2",23,2
"2535",0,1,574,1,6,3,"156d4e2",24,2
"2635",1,1,567,4,4,3,"156d4e2",25,2
"2735",0,1,556,5,1,3,"156d4e2",26,2
"2835",1,1,552,2,2,3,"156d4e2",27,2
"2935",0,1,785,2,1,3,"156d4e2",28,2
"3035",1,1,1073,5,5,3,"156d4e2",29,2
"3149",0,1,521,1,4,3,"156d4e2",30,2
"3237",0,1,862,3,1,3,"156d4e2",31,2
"3335",1,1,485,3,3,3,"156d4e2",32,2
"3435",1,1,427,1,1,3,"156d4e2",33,2
"3535",1,1,465,2,2,3,"156d4e2",34,2
"3635",1,0,553,5,1,3,"156d4e2",35,2
"3735",1,1,582,4,4,3,"156d4e2",36,2
"3835",1,1,930,5,5,3,"156d4e2",37,2
"3935",1,1,378,3,3,3,"156d4e2",38,2
"4035",1,0,323,2,1,3,"156d4e2",39,2
"4149",1,1,593,1,1,3,"156d4e2",40,2
"4237",0,1,517,6,1,3,"156d4e2",41,2
"4335",-1,-1,0,6,6,3,"156d4e2",42,2
"4435",0,1,721,1,4,3,"156d4e2",43,2
"4535",0,1,660,3,1,3,"156d4e2",44,2
"4635",1,1,431,6,6,3,"156d4e2",45,2
"4735",0,1,645,5,1,3,"156d4e2",46,2
"4835",0,0,490,2,2,3,"156d4e2",47,2
"4935",1,1,537,3,3,3,"156d4e2",48,2
"5035",1,1,519,1,1,3,"156d4e2",49,2
"5149",0,1,464,1,6,3,"156d4e2",50,2
"5237",0,1,810,4,1,3,"156d4e2",51,2
"5335",1,0,361,2,1,3,"156d4e2",52,2
"5435",1,1,489,5,5,3,"156d4e2",53,2
"5535",1,1,598,4,4,3,"156d4e2",54,2
"5635",0,1,623,3,1,3,"156d4e2",55,2
"5735",1,0,746,3,1,3,"156d4e2",56,2
"5835",0,1,515,6,1,3,"156d4e2",57,2
"5935",0,0,452,6,6,3,"156d4e2",58,2
"6035",1,1,595,2,2,3,"156d4e2",59,2
"6149",1,1,564,3,3,3,"156d4e2",60,2
"6237",0,1,673,5,1,3,"156d4e2",61,2
"6335",1,1,532,1,1,3,"156d4e2",62,2
"6435",1,1,374,5,5,3,"156d4e2",63,2
"6535",0,1,632,4,1,3,"156d4e2",64,2
"6635",1,0,610,1,2,3,"156d4e2",65,2
"6735",1,1,671,4,4,3,"156d4e2",66,2
"6835",1,0,432,1,2,3,"156d4e2",67,2
"6935",1,1,510,3,3,3,"156d4e2",68,2
"7035",1,1,553,5,5,3,"156d4e2",69,2
"7140",0,1,969,1,6,3,"156d4e2",70,2
"7236",1,0,820,1,3,3,"156d4e2",71,2
"7335",1,1,536,6,6,3,"156d4e2",72,2
"7435",0,1,681,4,1,3,"156d4e2",73,2
"7535",0,0,758,2,2,3,"156d4e2",74,2
"7635",0,0,536,4,4,3,"156d4e2",75,2
"7735",0,0,551,1,1,3,"156d4e2",76,2
"7835",0,1,546,1,5,3,"156d4e2",77,2
"2150",0,0,319,1,1,3,"121f918",1,2
"3150",1,1,533,4,4,3,"121f918",2,2
"4150",1,1,302,5,5,3,"121f918",3,2
"5150",0,1,323,5,1,3,"121f918",4,2
"6150",1,1,648,6,6,3,"121f918",5,2
"7141",0,1,296,3,1,3,"121f918",6,2
"836",1,0,375,2,1,3,"121f918",7,2
"936",0,1,336,1,4,3,"121f918",8,2
"1036",0,0,462,3,3,3,"121f918",9,2
"1136",0,1,326,6,1,3,"121f918",10,2
"1236",1,1,346,2,2,3,"121f918",11,2
"1336",1,1,205,6,6,3,"121f918",12,2
"1436",1,1,936,1,1,3,"121f918",13,2
"1536",0,1,333,1,6,3,"121f918",14,2
"1636",1,1,547,3,3,3,"121f918",15,2
"1736",0,1,324,2,1,3,"121f918",16,2
"1836",1,1,357,5,5,3,"121f918",17,2
"1936",1,0,368,1,3,3,"121f918",18,2
"2036",0,1,668,1,5,3,"121f918",19,2
"2151",1,1,561,2,2,3,"121f918",20,2
"2238",0,1,369,4,1,3,"121f918",21,2
"2336",1,1,462,4,4,3,"121f918",22,2
"2436",0,1,473,3,1,3,"121f918",23,2
"2536",1,0,478,1,2,3,"121f918",24,2
"2636",1,1,395,3,3,3,"121f918",25,2
"2736",1,1,322,2,2,3,"121f918",26,2
"2836",0,1,820,1,6,3,"121f918",27,2
"2936",1,1,433,6,6,3,"121f918",28,2
"3036",1,1,365,4,4,3,"121f918",29,2
"3151",1,1,366,1,1,3,"121f918",30,2
"3238",0,1,472,5,1,3,"121f918",31,2
