"","keys","accuracy","rt","Fimg","Simg","feature_index","subID","trialNum","run"
"2",0,1,500,5,1,1,"1f931a2",1,1
"3",1,1,389,5,5,1,"1f931a2",2,1
"4",1,1,1227,1,1,1,"1f931a2",3,1
"5",0,0,1653,3,3,1,"1f931a2",4,1
"6",1,0,500,1,3,1,"1f931a2",5,1
"7",0,1,322,1,2,1,"1f931a2",6,1
"8",1,1,156,4,4,1,"1f931a2",7,1
"9",1,1,360,2,2,1,"1f931a2",8,1
"10",0,0,255,6,6,1,"1f931a2",9,1
"11",1,0,313,6,1,1,"1f931a2",10,1
"12",0,1,285,1,4,1,"1f931a2",11,1
"13",1,0,28,1,5,1,"1f931a2",12,1
"14",1,1,1171,6,6,1,"1f931a2",13,1
"15",1,1,549,2,2,1,"1f931a2",14,1
"16",0,1,370,2,1,1,"1f931a2",15,1
"17",1,1,268,1,1,1,"1f931a2",16,1
"18",0,1,396,1,3,1,"1f931a2",17,1
"19",0,1,1104,6,1,1,"1f931a2",18,1
"20",1,1,887,5,5,1,"1f931a2",19,1
"21",0,0,398,4,4,1,"1f931a2",20,1
"22",1,0,205,4,1,1,"1f931a2",21,1
"23",0,0,367,3,3,1,"1f931a2",22,1
"24",1,0,418,1,2,1,"1f931a2",23,1
"25",0,0,242,6,6,1,"1f931a2",24,1
"26",0,0,621,2,2,1,"1f931a2",25,1
"27",0,0,404,1,1,1,"1f931a2",26,1
"28",0,1,270,1,5,1,"1f931a2",27,1
"29",1,1,152,3,3,1,"1f931a2",28,1
"30",0,1,402,3,1,1,"1f931a2",29,1
"31",0,1,348,4,1,1,"1f931a2",30,1
"32",1,1,270,4,4,1,"1f931a2",31,1
"33",1,1,327,5,5,1,"1f931a2",32,1
"34",0,1,211,6,1,1,"1f931a2",33,1
"35",1,0,31,2,1,1,"1f931a2",34,1
"36",1,1,0,4,4,1,"1f931a2",35,1
"37",0,0,530,3,3,1,"1f931a2",36,1
"38",1,0,581,1,6,1,"1f931a2",37,1
"39",0,0,633,5,5,1,"1f931a2",38,1
"40",1,1,346,2,2,1,"1f931a2",39,1
"41",0,1,91,3,1,1,"1f931a2",40,1
"42",1,1,371,6,6,1,"1f931a2",41,1
"43",1,1,390,1,1,1,"1f931a2",42,1
"44",0,1,329,1,5,1,"1f931a2",43,1
"45",0,1,256,4,1,1,"1f931a2",44,1
"46",0,1,416,4,1,1,"1f931a2",45,1
"47",1,1,322,6,6,1,"1f931a2",46,1
"48",1,1,104,5,5,1,"1f931a2",47,1
"49",1,1,1109,3,3,1,"1f931a2",48,1
"50",1,1,662,2,2,1,"1f931a2",49,1
"51",1,0,305,1,5,1,"1f931a2",50,1
"52",1,0,1379,1,3,1,"1f931a2",51,1
"53",1,0,1835,6,1,1,"1f931a2",52,1
"54",0,0,866,1,1,1,"1f931a2",53,1
"55",1,0,284,2,1,1,"1f931a2",54,1
"56",1,1,308,4,4,1,"1f931a2",55,1
"57",1,1,168,2,2,1,"1f931a2",56,1
"58",0,1,899,1,2,1,"1f931a2",57,1
"59",0,1,270,1,5,1,"1f931a2",58,1
"60",0,0,662,1,1,1,"1f931a2",59,1
"61",0,0,217,3,3,1,"1f931a2",60,1
"62",1,1,923,6,6,1,"1f931a2",61,1
"63",1,1,805,4,4,1,"1f931a2",62,1
"64",1,1,350,5,5,1,"1f931a2",63,1
"65",0,1,268,1,4,1,"1f931a2",64,1
"66",0,1,464,1,6,1,"1f931a2",65,1
"67",0,1,363,1,3,1,"1f931a2",66,1
"68",1,1,389,4,4,1,"1f931a2",67,1
"69",1,1,1285,2,2,1,"1f931a2",68,1
"70",0,1,322,4,1,1,"1f931a2",69,1
"71",1,1,438,6,6,1,"1f931a2",70,1
"72",0,1,237,3,1,1,"1f931a2",71,1
"73",1,1,258,1,1,1,"1f931a2",72,1
"74",0,1,164,1,5,1,"1f931a2",73,1
"75",1,1,1062,5,5,1,"1f931a2",74,1
"76",1,1,318,3,3,1,"1f931a2",75,1
"77",0,1,455,1,2,1,"1f931a2",76,1
"78",0,1,534,1,6,1,"1f931a2",77,1
"210",1,1,811,4,4,3,"161dd02",1,1
"310",0,0,615,1,1,3,"161dd02",2,1
"410",1,1,731,6,6,3,"161dd02",3,1
"510",1,0,502,3,1,3,"161dd02",4,1
"610",1,1,433,2,2,3,"161dd02",5,1
"79",1,0,459,1,5,3,"161dd02",6,1
"81",0,0,490,3,3,3,"161dd02",7,1
"91",1,0,802,4,1,3,"161dd02",8,1
"101",1,1,371,5,5,3,"161dd02",9,1
"111",1,0,800,2,1,3,"161dd02",10,1
"121",1,0,439,6,1,3,"161dd02",11,1
"131",1,1,370,5,5,3,"161dd02",12,1
"141",1,1,409,4,4,3,"161dd02",13,1
"151",1,0,640,5,1,3,"161dd02",14,1
"161",1,0,450,1,4,3,"161dd02",15,1
"171",1,0,645,1,2,3,"161dd02",16,1
"181",1,1,447,1,1,3,"161dd02",17,1
"191",1,1,415,2,2,3,"161dd02",18,1
"201",1,0,377,3,1,3,"161dd02",19,1
"211",0,0,404,6,6,3,"161dd02",20,1
"221",0,1,324,6,1,3,"161dd02",21,1
"231",1,1,359,3,3,3,"161dd02",22,1
"241",1,1,460,3,3,3,"161dd02",23,1
"251",1,1,593,2,2,3,"161dd02",24,1
"261",1,1,422,5,5,3,"161dd02",25,1
"271",1,1,403,4,4,3,"161dd02",26,1
"281",1,1,642,6,6,3,"161dd02",27,1
"291",0,1,1230,1,5,3,"161dd02",28,1
"301",0,1,430,4,1,3,"161dd02",29,1
"311",1,0,394,3,1,3,"161dd02",30,1
"321",0,1,394,6,1,3,"161dd02",31,1
"331",0,1,338,2,1,3,"161dd02",32,1
"341",1,1,325,1,1,3,"161dd02",33,1
"351",1,1,300,2,2,3,"161dd02",34,1
"361",1,1,343,5,5,3,"161dd02",35,1
"371",0,1,609,3,1,3,"161dd02",36,1
"381",0,1,529,2,1,3,"161dd02",37,1
"391",0,1,491,1,4,3,"161dd02",38,1
"401",1,1,350,6,6,3,"161dd02",39,1
"411",0,1,338,6,1,3,"161dd02",40,1
"421",1,1,181,4,4,3,"161dd02",41,1
"431",1,1,390,1,1,3,"161dd02",42,1
"441",0,1,452,5,1,3,"161dd02",43,1
"451",1,1,651,3,3,3,"161dd02",44,1
"461",0,1,569,6,1,3,"161dd02",45,1
"471",1,1,424,4,4,3,"161dd02",46,1
"481",0,1,360,1,3,3,"161dd02",47,1
"491",0,1,422,5,1,3,"161dd02",48,1
"501",0,1,317,1,4,3,"161dd02",49,1
"511",1,1,309,3,3,3,"161dd02",50,1
"521",1,1,304,1,1,3,"161dd02",51,1
"531",1,1,358,2,2,3,"161dd02",52,1
"541",1,1,323,6,6,3,"161dd02",53,1
"551",0,1,428,2,1,3,"161dd02",54,1
"561",1,1,228,5,5,3,"161dd02",55,1
"571",0,1,485,1,5,3,"161dd02",56,1
"581",0,1,374,4,1,3,"161dd02",57,1
"591",0,1,455,1,6,3,"161dd02",58,1
"601",1,1,520,3,3,3,"161dd02",59,1
"611",1,1,442,1,1,3,"161dd02",60,1
"621",1,1,338,6,6,3,"161dd02",61,1
"631",1,1,439,2,2,3,"161dd02",62,1
"641",1,1,321,5,5,3,"161dd02",63,1
"651",0,1,357,2,1,3,"161dd02",64,1
"661",0,1,357,3,1,3,"161dd02",65,1
"671",1,1,452,4,4,3,"161dd02",66,1
"681",0,1,335,1,2,3,"161dd02",67,1
"691",1,1,368,2,2,3,"161dd02",68,1
"701",1,1,507,4,4,3,"161dd02",69,1
"711",0,1,311,1,6,3,"161dd02",70,1
"721",0,1,399,1,3,3,"161dd02",71,1
"731",1,1,611,3,3,3,"161dd02",72,1
"741",0,1,552,1,5,3,"161dd02",73,1
"751",1,1,271,5,5,3,"161dd02",74,1
"761",0,1,436,1,4,3,"161dd02",75,1
"771",0,0,527,1,1,3,"161dd02",76,1
"781",1,1,303,6,6,3,"161dd02",77,1
"212",1,1,703,1,1,1,"1b9c78e",1,1
"312",1,0,500,1,4,1,"1b9c78e",2,1
"412",1,0,573,5,1,1,"1b9c78e",3,1
"512",0,0,504,4,4,1,"1b9c78e",4,1
"612",1,1,534,3,3,1,"1b9c78e",5,1
"710",1,1,502,2,2,1,"1b9c78e",6,1
"82",1,0,520,1,2,1,"1b9c78e",7,1
"92",0,0,791,6,6,1,"1b9c78e",8,1
"102",1,0,331,6,1,1,"1b9c78e",9,1
"112",1,0,401,1,3,1,"1b9c78e",10,1
"122",1,1,531,5,5,1,"1b9c78e",11,1
"132",0,0,776,1,1,1,"1b9c78e",12,1
"142",1,0,535,4,1,1,"1b9c78e",13,1
"152",0,0,632,4,4,1,"1b9c78e",14,1
"162",0,1,339,1,3,1,"1b9c78e",15,1
"172",1,0,567,1,5,1,"1b9c78e",16,1
"182",1,1,712,3,3,1,"1b9c78e",17,1
"192",1,1,371,2,2,1,"1b9c78e",18,1
"202",0,1,303,1,6,1,"1b9c78e",19,1
"213",1,1,481,6,6,1,"1b9c78e",20,1
"222",1,1,351,5,5,1,"1b9c78e",21,1
"232",0,1,489,2,1,1,"1b9c78e",22,1
"242",1,0,406,1,2,1,"1b9c78e",23,1
"252",1,1,480,4,4,1,"1b9c78e",24,1
"262",0,0,284,5,5,1,"1b9c78e",25,1
"272",0,1,402,4,1,1,"1b9c78e",26,1
"282",1,1,294,1,1,1,"1b9c78e",27,1
"292",1,1,350,6,6,1,"1b9c78e",28,1
"302",0,1,298,3,1,1,"1b9c78e",29,1
"313",0,1,401,5,1,1,"1b9c78e",30,1
"322",1,1,313,2,2,1,"1b9c78e",31,1
"332",0,1,376,6,1,1,"1b9c78e",32,1
"342",1,1,307,3,3,1,"1b9c78e",33,1
"352",1,1,448,6,6,1,"1b9c78e",34,1
"362",0,1,500,5,1,1,"1b9c78e",35,1
"372",0,1,262,1,3,1,"1b9c78e",36,1
"382",1,1,417,3,3,1,"1b9c78e",37,1
"392",0,1,340,1,6,1,"1b9c78e",38,1
"402",1,0,330,2,1,1,"1b9c78e",39,1
"413",1,1,419,4,4,1,"1b9c78e",40,1
"422",1,1,479,1,1,1,"1b9c78e",41,1
"432",1,1,336,2,2,1,"1b9c78e",42,1
"442",0,1,441,4,1,1,"1b9c78e",43,1
"452",1,1,501,5,5,1,"1b9c78e",44,1
"462",1,1,331,6,6,1,"1b9c78e",45,1
"472",0,1,280,1,2,1,"1b9c78e",46,1
"482",1,1,569,5,5,1,"1b9c78e",47,1
"492",1,1,559,3,3,1,"1b9c78e",48,1
"502",0,1,291,1,4,1,"1b9c78e",49,1
"513",0,1,580,1,6,1,"1b9c78e",50,1
"522",0,1,431,1,5,1,"1b9c78e",51,1
"532",1,1,623,4,4,1,"1b9c78e",52,1
"542",1,1,487,2,2,1,"1b9c78e",53,1
"552",1,1,424,1,1,1,"1b9c78e",54,1
"562",0,1,448,1,3,1,"1b9c78e",55,1
"572",0,0,321,2,2,1,"1b9c78e",56,1
"582",1,1,291,6,6,1,"1b9c78e",57,1
"592",1,0,373,1,3,1,"1b9c78e",58,1
"602",0,1,317,1,2,1,"1b9c78e",59,1
"613",1,1,401,4,4,1,"1b9c78e",60,1
"622",0,1,642,4,1,1,"1b9c78e",61,1
"632",1,1,323,3,3,1,"1b9c78e",62,1
"642",0,1,728,5,1,1,"1b9c78e",63,1
"652",0,1,387,1,6,1,"1b9c78e",64,1
"662",1,1,312,5,5,1,"1b9c78e",65,1
"672",1,1,362,1,1,1,"1b9c78e",66,1
"682",0,1,347,5,1,1,"1b9c78e",67,1
"692",1,1,535,2,2,1,"1b9c78e",68,1
"702",1,1,349,5,5,1,"1b9c78e",69,1
"712",1,1,401,6,6,1,"1b9c78e",70,1
"722",0,1,287,1,3,1,"1b9c78e",71,1
"732",1,1,305,4,4,1,"1b9c78e",72,1
"742",1,0,667,2,1,1,"1b9c78e",73,1
"752",0,1,373,6,1,1,"1b9c78e",74,1
"762",1,1,389,3,3,1,"1b9c78e",75,1
"772",0,0,308,1,1,1,"1b9c78e",76,1
"782",0,1,341,4,1,1,"1b9c78e",77,1
"214",1,0,826,5,1,3,"1b87947",1,1
"314",1,1,510,5,5,3,"1b87947",2,1
"414",1,1,548,3,3,3,"1b87947",3,1
"514",0,0,412,2,2,3,"1b87947",4,1
"614",1,0,401,1,4,3,"1b87947",5,1
"713",1,0,391,1,3,3,"1b87947",6,1
"83",0,1,717,1,6,3,"1b87947",7,1
"93",1,1,562,6,6,3,"1b87947",8,1
"103",1,0,297,2,1,3,"1b87947",9,1
"113",1,1,334,4,4,3,"1b87947",10,1
"123",0,0,276,1,1,3,"1b87947",11,1
"133",0,1,442,2,1,3,"1b87947",12,1
"143",0,1,303,3,1,3,"1b87947",13,1
"153",0,0,262,5,5,3,"1b87947",14,1
"163",0,1,300,4,1,3,"1b87947",15,1
"173",0,0,289,6,6,3,"1b87947",16,1
"183",1,1,327,1,1,3,"1b87947",17,1
"193",0,0,415,2,2,3,"1b87947",18,1
"203",1,0,724,1,5,3,"1b87947",19,1
"215",1,1,345,3,3,3,"1b87947",20,1
"223",1,1,592,4,4,3,"1b87947",21,1
"233",0,1,246,6,1,3,"1b87947",22,1
"243",1,1,386,2,2,3,"1b87947",23,1
"253",0,1,162,1,3,3,"1b87947",24,1
"263",0,1,423,1,4,3,"1b87947",25,1
"273",0,1,108,6,1,3,"1b87947",26,1
"283",1,0,275,2,1,3,"1b87947",27,1
"293",1,1,73,1,1,3,"1b87947",28,1
"303",1,1,303,4,4,3,"1b87947",29,1
"315",1,1,197,6,6,3,"1b87947",30,1
"323",0,1,266,5,1,3,"1b87947",31,1
"333",0,0,49,3,3,3,"1b87947",32,1
"343",1,1,343,5,5,3,"1b87947",33,1
"353",0,1,764,1,3,3,"1b87947",34,1
"363",1,0,609,2,1,3,"1b87947",35,1
"373",1,1,279,1,1,3,"1b87947",36,1
"383",1,1,254,6,6,3,"1b87947",37,1
"393",0,1,403,5,1,3,"1b87947",38,1
"403",0,1,393,1,6,3,"1b87947",39,1
"415",1,1,303,2,2,3,"1b87947",40,1
"423",1,1,164,4,4,3,"1b87947",41,1
"433",1,1,267,5,5,3,"1b87947",42,1
"443",1,1,417,3,3,3,"1b87947",43,1
"453",1,0,71,1,4,3,"1b87947",44,1
"463",1,1,236,4,4,3,"1b87947",45,1
"473",1,1,340,2,2,3,"1b87947",46,1
"483",1,1,603,5,5,3,"1b87947",47,1
"493",0,1,353,3,1,3,"1b87947",48,1
"503",1,0,501,1,2,3,"1b87947",49,1
"515",0,1,267,4,1,3,"1b87947",50,1
"523",1,1,385,6,6,3,"1b87947",51,1
"533",0,1,391,6,1,3,"1b87947",52,1
"543",1,1,444,3,3,3,"1b87947",53,1
"553",0,1,259,5,1,3,"1b87947",54,1
"563",1,1,456,1,1,3,"1b87947",55,1
"573",0,1,318,3,1,3,"1b87947",56,1
"583",1,1,339,1,1,3,"1b87947",57,1
"593",1,1,267,2,2,3,"1b87947",58,1
"603",1,1,290,5,5,3,"1b87947",59,1
"615",0,1,470,6,1,3,"1b87947",60,1
"623",0,1,346,4,1,3,"1b87947",61,1
"633",1,1,385,3,3,3,"1b87947",62,1
"643",1,1,391,4,4,3,"1b87947",63,1
"653",0,1,269,2,1,3,"1b87947",64,1
"663",1,1,259,6,6,3,"1b87947",65,1
"673",0,1,264,5,1,3,"1b87947",66,1
"683",1,1,430,6,6,3,"1b87947",67,1
"693",0,1,420,1,4,3,"1b87947",68,1
"703",0,0,393,5,5,3,"1b87947",69,1
"714",0,1,158,6,1,3,"1b87947",70,1
"723",1,1,325,4,4,3,"1b87947",71,1
"733",0,1,59,1,3,3,"1b87947",72,1
"743",0,1,319,1,2,3,"1b87947",73,1
"753",1,1,101,3,3,3,"1b87947",74,1
"763",1,1,331,1,1,3,"1b87947",75,1
"773",1,1,370,2,2,3,"1b87947",76,1
"783",0,1,152,5,1,3,"1b87947",77,1
"216",1,1,1514,2,2,1,"11b15d7",1,1
"316",1,0,376,4,1,1,"11b15d7",2,1
"416",1,0,99,1,2,1,"11b15d7",3,1
"516",0,1,274,6,1,1,"11b15d7",4,1
"616",0,1,225,5,1,1,"11b15d7",5,1
"715",1,1,181,1,1,1,"11b15d7",6,1
"84",0,0,539,3,3,1,"11b15d7",7,1
"94",1,1,233,4,4,1,"11b15d7",8,1
"104",1,0,360,1,3,1,"11b15d7",9,1
"114",1,1,123,6,6,1,"11b15d7",10,1
"124",0,0,601,5,5,1,"11b15d7",11,1
"134",1,1,197,3,3,1,"11b15d7",12,1
"144",1,1,59,1,1,1,"11b15d7",13,1
"154",0,0,23,2,2,1,"11b15d7",14,1
"164",1,1,262,5,5,1,"11b15d7",15,1
"174",0,0,157,4,4,1,"11b15d7",16,1
"184",0,1,160,3,1,1,"11b15d7",17,1
"194",0,1,248,1,4,1,"11b15d7",18,1
"204",0,1,378,6,1,1,"11b15d7",19,1
"217",0,1,718,1,2,1,"11b15d7",20,1
"224",0,0,206,6,6,1,"11b15d7",21,1
"234",0,1,314,1,5,1,"11b15d7",22,1
"244",0,1,48,1,6,1,"11b15d7",23,1
"254",1,1,476,5,5,1,"11b15d7",24,1
"264",0,0,849,1,1,1,"11b15d7",25,1
"274",0,1,245,4,1,1,"11b15d7",26,1
"284",1,0,63,1,2,1,"11b15d7",27,1
"294",0,0,312,3,3,1,"11b15d7",28,1
"304",1,1,139,6,6,1,"11b15d7",29,1
"317",0,1,166,1,3,1,"11b15d7",30,1
"324",0,1,322,5,1,1,"11b15d7",31,1
"334",1,1,104,2,2,1,"11b15d7",32,1
"344",1,1,346,4,4,1,"11b15d7",33,1
"354",1,1,289,6,6,1,"11b15d7",34,1
"364",0,0,46,4,4,1,"11b15d7",35,1
"374",1,1,12,3,3,1,"11b15d7",36,1
"384",1,1,252,1,1,1,"11b15d7",37,1
"394",0,1,291,6,1,1,"11b15d7",38,1
"404",0,1,743,1,5,1,"11b15d7",39,1
"417",0,1,276,2,1,1,"11b15d7",40,1
"424",1,0,63,3,1,1,"11b15d7",41,1
"434",1,1,1848,5,5,1,"11b15d7",42,1
"444",0,1,592,4,1,1,"11b15d7",43,1
"454",1,1,264,2,2,1,"11b15d7",44,1
"464",0,1,360,2,1,1,"11b15d7",45,1
"474",1,1,300,2,2,1,"11b15d7",46,1
"484",0,0,344,5,5,1,"11b15d7",47,1
"494",0,1,19,1,4,1,"11b15d7",48,1
"504",0,1,263,1,3,1,"11b15d7",49,1
"517",0,1,82,5,1,1,"11b15d7",50,1
"524",0,1,164,6,1,1,"11b15d7",51,1
"534",1,1,162,4,4,1,"11b15d7",52,1
"544",1,1,383,1,1,1,"11b15d7",53,1
"554",1,1,302,6,6,1,"11b15d7",54,1
"564",1,1,346,3,3,1,"11b15d7",55,1
"574",0,1,1196,1,2,1,"11b15d7",56,1
"584",0,1,312,1,4,1,"11b15d7",57,1
"594",1,1,704,6,6,1,"11b15d7",58,1
"604",1,1,294,2,2,1,"11b15d7",59,1
"617",0,1,1086,1,6,1,"11b15d7",60,1
"624",1,1,15,5,5,1,"11b15d7",61,1
"634",1,1,222,4,4,1,"11b15d7",62,1
"644",0,1,318,3,1,1,"11b15d7",63,1
"654",1,1,42,3,3,1,"11b15d7",64,1
"664",0,1,408,1,5,1,"11b15d7",65,1
"674",1,1,84,1,1,1,"11b15d7",66,1
"684",-1,-1,0,1,3,1,"11b15d7",67,1
"694",0,0,1553,6,6,1,"11b15d7",68,1
"704",1,1,459,3,3,1,"11b15d7",69,1
"716",1,1,11,4,4,1,"11b15d7",70,1
"724",1,0,608,2,1,1,"11b15d7",71,1
"734",0,1,849,4,1,1,"11b15d7",72,1
"744",0,1,135,1,6,1,"11b15d7",73,1
"754",1,1,258,2,2,1,"11b15d7",74,1
"764",1,1,385,1,1,1,"11b15d7",75,1
"774",0,1,327,5,1,1,"11b15d7",76,1
"784",1,1,553,5,5,1,"11b15d7",77,1
"218",1,1,899,1,1,1,"1d2f220",1,1
"318",1,0,482,1,3,1,"1d2f220",2,1
"418",1,1,1137,3,3,1,"1d2f220",3,1
"518",0,1,422,6,1,1,"1d2f220",4,1
"618",1,0,977,1,2,1,"1d2f220",5,1
"717",0,1,402,1,5,1,"1d2f220",6,1
"85",1,1,332,2,2,1,"1d2f220",7,1
"95",1,1,284,4,4,1,"1d2f220",8,1
"105",1,0,83,4,1,1,"1d2f220",9,1
"115",1,1,574,5,5,1,"1d2f220",10,1
"125",1,1,233,6,6,1,"1d2f220",11,1
"135",0,1,534,5,1,1,"1d2f220",12,1
"145",1,0,250,1,2,1,"1d2f220",13,1
"155",1,1,273,2,2,1,"1d2f220",14,1
"165",1,1,282,6,6,1,"1d2f220",15,1
"175",1,1,650,4,4,1,"1d2f220",16,1
"185",1,1,266,3,3,1,"1d2f220",17,1
"195",0,1,259,4,1,1,"1d2f220",18,1
"205",1,1,363,1,1,1,"1d2f220",19,1
"219",0,0,287,5,5,1,"1d2f220",20,1
"225",0,1,831,6,1,1,"1d2f220",21,1
"235",0,1,376,1,3,1,"1d2f220",22,1
"245",1,1,289,2,2,1,"1d2f220",23,1
"255",0,1,247,5,1,1,"1d2f220",24,1
"265",1,1,301,6,6,1,"1d2f220",25,1
"275",0,1,336,4,1,1,"1d2f220",26,1
"285",1,1,276,5,5,1,"1d2f220",27,1
"295",1,1,279,3,3,1,"1d2f220",28,1
"305",1,1,302,4,4,1,"1d2f220",29,1
"319",0,1,392,1,6,1,"1d2f220",30,1
"325",1,0,272,1,2,1,"1d2f220",31,1
"335",0,1,327,3,1,1,"1d2f220",32,1
"345",1,1,374,1,1,1,"1d2f220",33,1
"355",1,1,420,2,2,1,"1d2f220",34,1
"365",0,1,459,6,1,1,"1d2f220",35,1
"375",1,1,325,5,5,1,"1d2f220",36,1
"385",0,1,396,1,3,1,"1d2f220",37,1
"395",1,1,356,6,6,1,"1d2f220",38,1
"405",0,1,330,5,1,1,"1d2f220",39,1
"419",0,1,230,2,1,1,"1d2f220",40,1
"425",1,1,341,4,4,1,"1d2f220",41,1
"435",1,1,1330,1,1,1,"1d2f220",42,1
"445",1,1,285,3,3,1,"1d2f220",43,1
"455",0,1,245,1,4,1,"1d2f220",44,1
"465",1,1,351,1,1,1,"1d2f220",45,1
"475",0,1,213,5,1,1,"1d2f220",46,1
"485",1,1,229,5,5,1,"1d2f220",47,1
"495",1,1,404,6,6,1,"1d2f220",48,1
"505",1,1,706,4,4,1,"1d2f220",49,1
"519",0,1,248,1,4,1,"1d2f220",50,1
"525",0,0,404,3,3,1,"1d2f220",51,1
"535",0,1,318,1,6,1,"1d2f220",52,1
"545",1,1,379,2,2,1,"1d2f220",53,1
"555",0,1,893,3,1,1,"1d2f220",54,1
"565",0,1,297,2,1,1,"1d2f220",55,1
"575",1,1,316,6,6,1,"1d2f220",56,1
"585",1,1,446,2,2,1,"1d2f220",57,1
"595",0,1,238,4,1,1,"1d2f220",58,1
"605",0,1,297,3,1,1,"1d2f220",59,1
"619",1,1,337,4,4,1,"1d2f220",60,1
"625",0,1,248,1,2,1,"1d2f220",61,1
"635",1,1,285,1,1,1,"1d2f220",62,1
"645",0,1,248,1,6,1,"1d2f220",63,1
"655",1,1,526,3,3,1,"1d2f220",64,1
"665",0,1,799,1,5,1,"1d2f220",65,1
"675",1,1,249,5,5,1,"1d2f220",66,1
"685",0,1,321,1,5,1,"1d2f220",67,1
"695",1,1,263,1,1,1,"1d2f220",68,1
"705",1,1,256,4,4,1,"1d2f220",69,1
"718",0,1,386,1,2,1,"1d2f220",70,1
"725",1,1,255,6,6,1,"1d2f220",71,1
"735",0,1,284,1,4,1,"1d2f220",72,1
"745",0,1,415,6,1,1,"1d2f220",73,1
"755",0,1,328,1,3,1,"1d2f220",74,1
"765",0,0,332,5,5,1,"1d2f220",75,1
"775",1,1,206,2,2,1,"1d2f220",76,1
"785",1,1,283,3,3,1,"1d2f220",77,1
"220",1,1,971,1,1,2,"1ff6494",1,1
"320",1,0,552,2,1,2,"1ff6494",2,1
"420",1,1,401,4,4,2,"1ff6494",3,1
"520",1,1,326,5,5,2,"1ff6494",4,1
"620",1,1,400,6,6,2,"1ff6494",5,1
"719",1,1,380,3,3,2,"1ff6494",6,1
"86",1,0,456,5,1,2,"1ff6494",7,1
"96",1,1,572,2,2,2,"1ff6494",8,1
"106",1,0,683,1,3,2,"1ff6494",9,1
"116",1,0,595,4,1,2,"1ff6494",10,1
"126",0,1,446,6,1,2,"1ff6494",11,1
"136",0,0,814,1,1,2,"1ff6494",12,1
"146",1,0,390,3,1,2,"1ff6494",13,1
"156",0,0,401,2,2,2,"1ff6494",14,1
"166",1,0,396,1,2,2,"1ff6494",15,1
"176",0,0,151,3,3,2,"1ff6494",16,1
"186",1,0,957,5,1,2,"1ff6494",17,1
"196",0,0,675,4,4,2,"1ff6494",18,1
"206",0,0,463,5,5,2,"1ff6494",19,1
"2110",0,1,277,1,6,2,"1ff6494",20,1
"226",1,1,329,6,6,2,"1ff6494",21,1
"236",0,1,360,1,4,2,"1ff6494",22,1
"246",1,1,367,2,2,2,"1ff6494",23,1
"256",1,1,537,5,5,2,"1ff6494",24,1
"266",1,0,268,3,1,2,"1ff6494",25,1
"276",0,1,559,1,6,2,"1ff6494",26,1
"286",0,1,332,2,1,2,"1ff6494",27,1
"296",1,1,297,4,4,2,"1ff6494",28,1
"306",1,1,454,6,6,2,"1ff6494",29,1
"3110",0,1,346,1,5,2,"1ff6494",30,1
"326",1,1,272,3,3,2,"1ff6494",31,1
"336",1,1,574,1,1,2,"1ff6494",32,1
"346",0,1,381,4,1,2,"1ff6494",33,1
"356",1,1,306,6,6,2,"1ff6494",34,1
"366",0,1,325,6,1,2,"1ff6494",35,1
"376",0,0,296,3,3,2,"1ff6494",36,1
"386",1,0,380,2,1,2,"1ff6494",37,1
"396",0,0,337,1,1,2,"1ff6494",38,1
"406",1,1,1054,4,4,2,"1ff6494",39,1
"4110",0,1,245,1,3,2,"1ff6494",40,1
"426",1,1,595,5,5,2,"1ff6494",41,1
"436",0,1,746,1,4,2,"1ff6494",42,1
"446",1,1,340,2,2,2,"1ff6494",43,1
"456",0,1,790,1,5,2,"1ff6494",44,1
"466",0,1,341,5,1,2,"1ff6494",45,1
"476",1,1,304,5,5,2,"1ff6494",46,1
"486",1,1,493,2,2,2,"1ff6494",47,1
"496",0,1,425,1,3,2,"1ff6494",48,1
"506",1,1,347,4,4,2,"1ff6494",49,1
"5110",0,1,425,1,4,2,"1ff6494",50,1
"526",1,1,319,1,1,2,"1ff6494",51,1
"536",1,1,335,3,3,2,"1ff6494",52,1
"546",1,1,274,6,6,2,"1ff6494",53,1
"556",0,1,481,6,1,2,"1ff6494",54,1
"566",1,0,403,1,2,2,"1ff6494",55,1
"576",1,1,262,6,6,2,"1ff6494",56,1
"586",0,1,473,1,3,2,"1ff6494",57,1
"596",0,1,539,1,5,2,"1ff6494",58,1
"606",1,1,305,1,1,2,"1ff6494",59,1
"6110",0,1,366,6,1,2,"1ff6494",60,1
"626",1,1,342,5,5,2,"1ff6494",61,1
"636",0,1,385,1,2,2,"1ff6494",62,1
"646",1,1,479,3,3,2,"1ff6494",63,1
"656",1,1,264,2,2,2,"1ff6494",64,1
"666",0,1,343,4,1,2,"1ff6494",65,1
"676",1,1,290,4,4,2,"1ff6494",66,1
"686",0,1,558,6,1,2,"1ff6494",67,1
"696",0,1,368,1,4,2,"1ff6494",68,1
"706",1,1,330,3,3,2,"1ff6494",69,1
"7110",0,1,310,3,1,2,"1ff6494",70,1
"726",1,1,313,5,5,2,"1ff6494",71,1
"736",1,1,518,6,6,2,"1ff6494",72,1
"746",1,1,424,1,1,2,"1ff6494",73,1
"756",0,1,289,5,1,2,"1ff6494",74,1
"766",1,1,319,2,2,2,"1ff6494",75,1
"776",0,1,290,1,2,2,"1ff6494",76,1
"786",1,1,335,4,4,2,"1ff6494",77,1
"227",1,0,489,2,1,3,"b4a8d6e",1,1
"327",1,1,341,3,3,3,"b4a8d6e",2,1
"427",1,1,328,1,1,3,"b4a8d6e",3,1
"527",0,0,270,2,2,3,"b4a8d6e",4,1
"627",1,1,335,6,6,3,"b4a8d6e",5,1
"720",0,1,352,6,1,3,"b4a8d6e",6,1
"87",0,1,280,1,4,3,"b4a8d6e",7,1
"97",0,1,311,5,1,3,"b4a8d6e",8,1
"107",0,1,250,1,3,3,"b4a8d6e",9,1
"117",1,1,258,4,4,3,"b4a8d6e",10,1
"127",1,1,216,5,5,3,"b4a8d6e",11,1
"137",1,1,234,2,2,3,"b4a8d6e",12,1
"147",0,1,289,1,2,3,"b4a8d6e",13,1
"157",1,1,273,5,5,3,"b4a8d6e",14,1
"167",0,1,384,1,5,3,"b4a8d6e",15,1
"177",1,1,294,1,1,3,"b4a8d6e",16,1
"187",0,1,463,1,6,3,"b4a8d6e",17,1
"197",1,0,223,1,3,3,"b4a8d6e",18,1
"207",1,1,206,4,4,3,"b4a8d6e",19,1
"2111",1,1,249,6,6,3,"b4a8d6e",20,1
"228",1,1,279,3,3,3,"b4a8d6e",21,1
"237",0,1,327,4,1,3,"b4a8d6e",22,1
"247",1,1,346,1,1,3,"b4a8d6e",23,1
"257",0,0,216,4,4,3,"b4a8d6e",24,1
"267",1,1,224,3,3,3,"b4a8d6e",25,1
"277",1,0,264,2,1,3,"b4a8d6e",26,1
"287",0,1,342,4,1,3,"b4a8d6e",27,1
"297",1,1,278,5,5,3,"b4a8d6e",28,1
"307",1,1,254,6,6,3,"b4a8d6e",29,1
"3111",0,1,348,6,1,3,"b4a8d6e",30,1
"328",1,1,220,2,2,3,"b4a8d6e",31,1
"337",0,1,364,5,1,3,"b4a8d6e",32,1
"347",0,1,293,1,3,3,"b4a8d6e",33,1
"357",1,1,278,3,3,3,"b4a8d6e",34,1
"367",0,1,352,1,4,3,"b4a8d6e",35,1
"377",1,1,270,6,6,3,"b4a8d6e",36,1
"387",1,1,333,5,5,3,"b4a8d6e",37,1
"397",1,0,227,2,1,3,"b4a8d6e",38,1
"407",1,1,218,2,2,3,"b4a8d6e",39,1
"4111",1,0,257,1,3,3,"b4a8d6e",40,1
"428",0,0,268,4,4,3,"b4a8d6e",41,1
"437",0,1,220,6,1,3,"b4a8d6e",42,1
"447",0,1,343,5,1,3,"b4a8d6e",43,1
"457",1,1,266,1,1,3,"b4a8d6e",44,1
"467",0,1,250,1,5,3,"b4a8d6e",45,1
"477",0,1,316,4,1,3,"b4a8d6e",46,1
"487",1,1,172,2,2,3,"b4a8d6e",47,1
"497",0,1,294,1,6,3,"b4a8d6e",48,1
"507",1,1,211,5,5,3,"b4a8d6e",49,1
"5111",1,1,250,1,1,3,"b4a8d6e",50,1
"528",1,1,133,4,4,3,"b4a8d6e",51,1
"537",1,0,306,2,1,3,"b4a8d6e",52,1
"547",1,1,255,3,3,3,"b4a8d6e",53,1
"557",1,1,241,6,6,3,"b4a8d6e",54,1
"567",0,1,259,1,3,3,"b4a8d6e",55,1
"577",1,1,790,6,6,3,"b4a8d6e",56,1
"587",1,1,276,2,2,3,"b4a8d6e",57,1
"597",0,1,246,6,1,3,"b4a8d6e",58,1
"607",0,1,436,2,1,3,"b4a8d6e",59,1
"6111",1,1,238,3,3,3,"b4a8d6e",60,1
"628",0,1,289,1,5,3,"b4a8d6e",61,1
"637",0,1,573,3,1,3,"b4a8d6e",62,1
"647",1,1,234,1,1,3,"b4a8d6e",63,1
"657",0,1,138,4,1,3,"b4a8d6e",64,1
"667",1,1,263,5,5,3,"b4a8d6e",65,1
"677",0,0,256,4,4,3,"b4a8d6e",66,1
"687",0,1,323,3,1,3,"b4a8d6e",67,1
"697",0,1,344,1,4,3,"b4a8d6e",68,1
"707",1,1,358,6,6,3,"b4a8d6e",69,1
"7111",1,1,234,3,3,3,"b4a8d6e",70,1
"727",0,0,256,1,1,3,"b4a8d6e",71,1
"737",0,1,303,6,1,3,"b4a8d6e",72,1
"747",0,1,285,2,1,3,"b4a8d6e",73,1
"757",1,1,289,5,5,3,"b4a8d6e",74,1
"767",0,1,260,5,1,3,"b4a8d6e",75,1
"777",1,1,270,2,2,3,"b4a8d6e",76,1
"787",1,1,240,4,4,3,"b4a8d6e",77,1
"229",1,1,720,6,6,3,"136284a",1,1
"329",1,1,459,1,1,3,"136284a",2,1
"429",1,0,207,3,1,3,"136284a",3,1
"529",0,0,239,5,5,3,"136284a",4,1
"629",1,1,342,3,3,3,"136284a",5,1
"728",1,0,375,1,2,3,"136284a",6,1
"88",1,0,410,4,1,3,"136284a",7,1
"98",1,1,334,2,2,3,"136284a",8,1
"108",1,1,366,4,4,3,"136284a",9,1
"118",1,0,471,5,1,3,"136284a",10,1
"128",1,0,359,1,6,3,"136284a",11,1
"138",1,1,441,6,6,3,"136284a",12,1
"148",0,0,416,1,1,3,"136284a",13,1
"158",0,0,364,2,2,3,"136284a",14,1
"168",1,0,443,1,4,3,"136284a",15,1
"178",1,1,357,4,4,3,"136284a",16,1
"188",1,0,303,6,1,3,"136284a",17,1
"198",0,0,649,3,3,3,"136284a",18,1
"208",0,1,451,3,1,3,"136284a",19,1
"2112",0,1,336,5,1,3,"136284a",20,1
"2210",1,1,411,5,5,3,"136284a",21,1
"238",0,1,283,2,1,3,"136284a",22,1
"248",1,1,252,2,2,3,"136284a",23,1
"258",0,1,205,1,3,3,"136284a",24,1
"268",0,0,321,1,1,3,"136284a",25,1
"278",1,0,213,4,1,3,"136284a",26,1
"288",0,1,386,5,1,3,"136284a",27,1
"298",0,0,271,3,3,3,"136284a",28,1
"308",1,0,259,1,6,3,"136284a",29,1
"3112",1,1,222,4,4,3,"136284a",30,1
"3210",0,1,342,1,2,3,"136284a",31,1
"338",1,1,416,6,6,3,"136284a",32,1
"348",1,1,571,5,5,3,"136284a",33,1
"358",0,0,348,4,4,3,"136284a",34,1
"368",1,1,321,2,2,3,"136284a",35,1
"378",0,0,802,1,1,3,"136284a",36,1
"388",1,0,110,6,1,3,"136284a",37,1
"398",1,1,47,3,3,3,"136284a",38,1
"408",0,1,12,1,4,3,"136284a",39,1
"4112",1,0,356,5,1,3,"136284a",40,1
"4210",1,0,683,1,3,3,"136284a",41,1
"438",1,1,148,5,5,3,"136284a",42,1
"448",1,0,1537,2,1,3,"136284a",43,1
"458",1,1,252,6,6,3,"136284a",44,1
"468",1,0,200,1,4,3,"136284a",45,1
"478",1,1,219,4,4,3,"136284a",46,1
"488",0,0,266,2,2,3,"136284a",47,1
"498",0,0,271,6,6,3,"136284a",48,1
"508",1,1,236,3,3,3,"136284a",49,1
"5112",0,1,265,1,6,3,"136284a",50,1
"5210",1,0,322,5,1,3,"136284a",51,1
"538",1,0,54,1,3,3,"136284a",52,1
"548",0,0,359,1,1,3,"136284a",53,1
"558",1,1,201,5,5,3,"136284a",54,1
"568",1,0,254,1,2,3,"136284a",55,1
"578",0,0,108,5,5,3,"136284a",56,1
"588",0,1,108,1,3,3,"136284a",57,1
"598",1,1,326,2,2,3,"136284a",58,1
"608",1,1,203,3,3,3,"136284a",59,1
"6112",1,1,208,4,4,3,"136284a",60,1
"6210",0,0,272,1,1,3,"136284a",61,1
"638",1,0,674,1,5,3,"136284a",62,1
"648",0,1,255,6,1,3,"136284a",63,1
"658",1,0,296,1,2,3,"136284a",64,1
"668",1,0,318,1,4,3,"136284a",65,1
"678",0,0,273,6,6,3,"136284a",66,1
"688",1,1,251,6,6,3,"136284a",67,1
"698",1,0,250,1,2,3,"136284a",68,1
"708",0,1,299,3,1,3,"136284a",69,1
"7112",1,1,297,3,3,3,"136284a",70,1
"729",1,1,377,2,2,3,"136284a",71,1
"738",0,1,350,1,4,3,"136284a",72,1
"748",1,0,293,6,1,3,"136284a",73,1
"758",0,0,183,4,4,3,"136284a",74,1
"768",1,1,340,1,1,3,"136284a",75,1
"778",0,0,272,5,5,3,"136284a",76,1
"788",0,1,246,5,1,3,"136284a",77,1
"230",1,1,1604,3,3,2,"11df91a",1,1
"330",1,1,492,1,1,2,"11df91a",2,1
"430",1,0,377,1,4,2,"11df91a",3,1
"530",1,1,442,2,2,2,"11df91a",4,1
"630",1,1,111,4,4,2,"11df91a",5,1
"730",1,1,428,5,5,2,"11df91a",6,1
"89",1,1,220,6,6,2,"11df91a",7,1
"99",0,1,164,1,5,2,"11df91a",8,1
"109",0,1,171,1,2,2,"11df91a",9,1
"119",0,1,598,1,3,2,"11df91a",10,1
"129",0,1,744,6,1,2,"11df91a",11,1
"139",0,0,531,1,1,2,"11df91a",12,1
"149",0,1,743,1,6,2,"11df91a",13,1
"159",0,1,557,1,5,2,"11df91a",14,1
"169",1,1,734,2,2,2,"11df91a",15,1
"179",0,1,885,1,4,2,"11df91a",16,1
"189",0,1,316,1,2,2,"11df91a",17,1
"199",1,1,947,3,3,2,"11df91a",18,1
"209",1,1,704,5,5,2,"11df91a",19,1
"2113",1,1,264,6,6,2,"11df91a",20,1
"2211",1,1,620,4,4,2,"11df91a",21,1
"239",0,1,763,3,1,2,"11df91a",22,1
"249",1,1,734,1,1,2,"11df91a",23,1
"259",1,0,608,3,1,2,"11df91a",24,1
"269",1,1,235,6,6,2,"11df91a",25,1
"279",1,1,548,4,4,2,"11df91a",26,1
"289",1,1,925,3,3,2,"11df91a",27,1
"299",0,1,67,1,6,2,"11df91a",28,1
"309",1,1,1133,5,5,2,"11df91a",29,1
"3113",0,0,809,2,2,2,"11df91a",30,1
"3211",1,0,481,1,2,2,"11df91a",31,1
"339",0,1,604,4,1,2,"11df91a",32,1
"349",0,1,769,1,5,2,"11df91a",33,1
"359",1,0,1114,4,1,2,"11df91a",34,1
"369",1,1,389,6,6,2,"11df91a",35,1
"379",1,1,481,5,5,2,"11df91a",36,1
"389",1,1,657,3,3,2,"11df91a",37,1
"399",0,1,975,1,6,2,"11df91a",38,1
"409",1,1,1563,1,1,2,"11df91a",39,1
"4113",1,0,770,2,1,2,"11df91a",40,1
"4211",0,1,482,1,3,2,"11df91a",41,1
"439",1,1,552,2,2,2,"11df91a",42,1
"449",0,0,967,4,4,2,"11df91a",43,1
"459",0,1,781,1,5,2,"11df91a",44,1
"469",0,1,349,6,1,2,"11df91a",45,1
"479",1,0,924,1,2,2,"11df91a",46,1
"489",1,1,603,6,6,2,"11df91a",47,1
"499",1,1,777,2,2,2,"11df91a",48,1
"509",1,1,422,3,3,2,"11df91a",49,1
"5113",0,1,848,1,4,2,"11df91a",50,1
"5211",1,1,582,1,1,2,"11df91a",51,1
"539",0,0,392,4,4,2,"11df91a",52,1
"549",0,1,786,5,1,2,"11df91a",53,1
"559",1,1,581,5,5,2,"11df91a",54,1
"569",0,1,544,1,3,2,"11df91a",55,1
"579",1,0,385,2,1,2,"11df91a",56,1
"589",1,1,510,5,5,2,"11df91a",57,1
"599",1,1,64,4,4,2,"11df91a",58,1
"609",1,1,480,6,6,2,"11df91a",59,1
"6113",0,1,481,3,1,2,"11df91a",60,1
"6211",1,1,533,3,3,2,"11df91a",61,1
"639",0,1,412,5,1,2,"11df91a",62,1
"649",1,1,510,1,1,2,"11df91a",63,1
"659",1,1,553,2,2,2,"11df91a",64,1
"669",0,1,652,6,1,2,"11df91a",65,1
"679",0,1,616,4,1,2,"11df91a",66,1
"689",1,0,457,1,2,2,"11df91a",67,1
"699",0,1,1195,1,3,2,"11df91a",68,1
"709",0,1,383,1,5,2,"11df91a",69,1
"7113",0,0,104,6,6,2,"11df91a",70,1
"7210",1,1,81,2,2,2,"11df91a",71,1
"739",0,1,727,1,6,2,"11df91a",72,1
"749",0,0,115,4,4,2,"11df91a",73,1
"759",1,1,74,3,3,2,"11df91a",74,1
"769",1,1,249,1,1,2,"11df91a",75,1
"779",1,1,586,5,5,2,"11df91a",76,1
"789",0,1,434,1,4,2,"11df91a",77,1
"240",1,1,525,4,4,1,"157eda7",1,1
"340",1,1,448,6,6,1,"157eda7",2,1
"440",1,0,413,1,5,1,"157eda7",3,1
"540",1,1,303,5,5,1,"157eda7",4,1
"640",0,1,344,1,6,1,"157eda7",5,1
"740",1,1,407,1,1,1,"157eda7",6,1
"810",0,1,249,1,3,1,"157eda7",7,1
"910",0,1,454,1,4,1,"157eda7",8,1
"1010",1,1,427,2,2,1,"157eda7",9,1
"1110",0,1,300,2,1,1,"157eda7",10,1
"1210",1,1,272,3,3,1,"157eda7",11,1
"1310",1,1,316,2,2,1,"157eda7",12,1
"1410",0,1,491,3,1,1,"157eda7",13,1
"1510",0,0,330,3,3,1,"157eda7",14,1
"1610",0,1,378,4,1,1,"157eda7",15,1
"1710",0,1,450,5,1,1,"157eda7",16,1
"1810",0,1,307,6,1,1,"157eda7",17,1
"1910",1,1,336,1,1,1,"157eda7",18,1
"2010",1,1,410,5,5,1,"157eda7",19,1
"2114",1,1,392,6,6,1,"157eda7",20,1
"2212",1,0,291,1,2,1,"157eda7",21,1
"2310",1,1,417,4,4,1,"157eda7",22,1
"2410",0,1,379,1,4,1,"157eda7",23,1
"2510",1,1,293,5,5,1,"157eda7",24,1
"2610",0,1,497,1,6,1,"157eda7",25,1
"2710",1,0,358,2,1,1,"157eda7",26,1
"2810",1,1,274,1,1,1,"157eda7",27,1
"2910",0,1,430,3,1,1,"157eda7",28,1
"3010",1,1,273,6,6,1,"157eda7",29,1
"3114",0,1,280,1,5,1,"157eda7",30,1
"3212",1,1,306,2,2,1,"157eda7",31,1
"3310",0,0,310,3,3,1,"157eda7",32,1
"3410",0,0,343,4,4,1,"157eda7",33,1
"3510",1,1,281,5,5,1,"157eda7",34,1
"3610",1,1,264,6,6,1,"157eda7",35,1
"3710",0,1,758,1,6,1,"157eda7",36,1
"3810",0,1,348,1,4,1,"157eda7",37,1
"3910",1,0,290,1,2,1,"157eda7",38,1
"4010",1,1,395,4,4,1,"157eda7",39,1
"4114",0,0,300,3,3,1,"157eda7",40,1
"4212",0,1,660,5,1,1,"157eda7",41,1
"4310",0,0,392,2,2,1,"157eda7",42,1
"4410",0,1,309,1,3,1,"157eda7",43,1
"4510",1,1,290,1,1,1,"157eda7",44,1
"4610",0,1,297,4,1,1,"157eda7",45,1
"4710",1,1,367,4,4,1,"157eda7",46,1
"4810",1,1,309,2,2,1,"157eda7",47,1
"4910",1,0,757,1,2,1,"157eda7",48,1
"5010",1,1,282,6,6,1,"157eda7",49,1
"5114",0,1,306,5,1,1,"157eda7",50,1
"5212",0,1,309,1,6,1,"157eda7",51,1
"5310",0,1,310,1,3,1,"157eda7",52,1
"5410",1,1,291,3,3,1,"157eda7",53,1
"5510",1,1,276,1,1,1,"157eda7",54,1
"5610",1,1,310,5,5,1,"157eda7",55,1
"5710",0,1,294,5,1,1,"157eda7",56,1
"5810",1,1,323,3,3,1,"157eda7",57,1
"5910",0,1,327,6,1,1,"157eda7",58,1
"6010",1,1,405,5,5,1,"157eda7",59,1
"6114",1,1,304,4,4,1,"157eda7",60,1
"6212",1,1,314,2,2,1,"157eda7",61,1
"6310",1,1,305,1,1,1,"157eda7",62,1
"6410",1,0,421,2,1,1,"157eda7",63,1
"6510",1,1,276,6,6,1,"157eda7",64,1
"6610",0,1,343,4,1,1,"157eda7",65,1
"6710",0,1,869,1,3,1,"157eda7",66,1
"6810",-1,-1,0,5,5,1,"157eda7",67,1
"6910",1,0,344,1,2,1,"157eda7",68,1
"7010",1,1,313,2,2,1,"157eda7",69,1
"7114",1,1,281,6,6,1,"157eda7",70,1
"7211",1,1,303,4,4,1,"157eda7",71,1
"7310",0,1,378,3,1,1,"157eda7",72,1
"7410",0,1,275,1,6,1,"157eda7",73,1
"7510",0,1,308,1,5,1,"157eda7",74,1
"7610",1,1,290,1,1,1,"157eda7",75,1
"7710",1,1,388,3,3,1,"157eda7",76,1
"7810",0,1,417,4,1,1,"157eda7",77,1
"250",-1,-1,0,6,6,3,"15a53a1",1,1
"350",1,1,329,3,3,3,"15a53a1",2,1
"450",1,1,564,5,5,3,"15a53a1",3,1
"550",1,0,429,5,1,3,"15a53a1",4,1
"650",1,0,114,3,1,3,"15a53a1",5,1
"750",1,0,560,1,4,3,"15a53a1",6,1
"811",0,1,371,6,1,3,"15a53a1",7,1
"911",0,1,366,2,1,3,"15a53a1",8,1
"1011",1,1,938,4,4,3,"15a53a1",9,1
"1111",1,1,800,2,2,3,"15a53a1",10,1
"1211",1,1,351,1,1,3,"15a53a1",11,1
"1311",1,1,316,5,5,3,"15a53a1",12,1
"1411",1,1,274,6,6,3,"15a53a1",13,1
"1511",0,1,814,5,1,3,"15a53a1",14,1
"1611",0,1,898,1,3,3,"15a53a1",15,1
"1711",1,1,712,1,1,3,"15a53a1",16,1
"1811",0,0,267,2,2,3,"15a53a1",17,1
"1911",0,1,280,1,4,3,"15a53a1",18,1
"2011",0,1,736,1,6,3,"15a53a1",19,1
"2115",1,1,408,3,3,3,"15a53a1",20,1
"2213",1,1,494,4,4,3,"15a53a1",21,1
"2311",0,1,373,1,2,3,"15a53a1",22,1
"2411",0,1,835,1,2,3,"15a53a1",23,1
"2511",0,1,907,5,1,3,"15a53a1",24,1
"2611",0,1,307,6,1,3,"15a53a1",25,1
"2711",1,1,650,1,1,3,"15a53a1",26,1
"2811",1,1,443,6,6,3,"15a53a1",27,1
"2911",0,1,686,1,3,3,"15a53a1",28,1
"3011",0,1,1709,4,1,3,"15a53a1",29,1
"3115",1,1,964,3,3,3,"15a53a1",30,1
"3213",1,1,376,2,2,3,"15a53a1",31,1
"3311",1,1,385,5,5,3,"15a53a1",32,1
"3411",1,1,1472,4,4,3,"15a53a1",33,1
"3511",0,1,816,1,2,3,"15a53a1",34,1
"3611",0,1,1684,6,1,3,"15a53a1",35,1
"3711",0,1,330,1,4,3,"15a53a1",36,1
"3811",0,1,271,1,5,3,"15a53a1",37,1
"3911",0,1,1977,3,1,3,"15a53a1",38,1
"4011",1,1,338,1,1,3,"15a53a1",39,1
"4115",1,1,472,3,3,3,"15a53a1",40,1
"4213",1,1,1196,2,2,3,"15a53a1",41,1
"4311",1,1,358,6,6,3,"15a53a1",42,1
"4411",1,1,1092,4,4,3,"15a53a1",43,1
"4511",1,1,323,5,5,3,"15a53a1",44,1
"4611",1,1,749,5,5,3,"15a53a1",45,1
"4711",1,1,284,1,1,3,"15a53a1",46,1
"4811",1,1,319,6,6,3,"15a53a1",47,1
"4911",0,1,873,1,5,3,"15a53a1",48,1
"5011",1,1,732,3,3,3,"15a53a1",49,1
"5115",1,1,673,2,2,3,"15a53a1",50,1
"5213",1,0,527,6,1,3,"15a53a1",51,1
"5311",0,1,1016,1,3,3,"15a53a1",52,1
"5411",0,1,413,1,4,3,"15a53a1",53,1
"5511",0,1,1864,2,1,3,"15a53a1",54,1
"5611",1,1,1704,4,4,3,"15a53a1",55,1
"5711",1,1,404,2,2,3,"15a53a1",56,1
"5811",0,0,1997,1,1,3,"15a53a1",57,1
"5911",0,1,1681,1,5,3,"15a53a1",58,1
"6011",0,1,1846,6,1,3,"15a53a1",59,1
"6115",0,1,515,1,2,3,"15a53a1",60,1
"6213",1,1,266,3,3,3,"15a53a1",61,1
"6311",0,1,856,4,1,3,"15a53a1",62,1
"6411",1,1,1994,5,5,3,"15a53a1",63,1
"6511",0,1,861,1,3,3,"15a53a1",64,1
"6611",1,1,1950,6,6,3,"15a53a1",65,1
"6711",-1,-1,0,4,4,3,"15a53a1",66,1
"6811",1,1,1997,2,2,3,"15a53a1",67,1
"6911",1,1,108,5,5,3,"15a53a1",68,1
"7011",0,1,1241,6,1,3,"15a53a1",69,1
"7115",0,1,1386,1,2,3,"15a53a1",70,1
"7212",1,1,168,3,3,3,"15a53a1",71,1
"7311",0,1,302,4,1,3,"15a53a1",72,1
"7411",0,1,315,1,3,3,"15a53a1",73,1
"7511",1,1,293,6,6,3,"15a53a1",74,1
"7611",0,1,395,5,1,3,"15a53a1",75,1
"7711",1,1,309,4,4,3,"15a53a1",76,1
"7811",1,1,277,1,1,3,"15a53a1",77,1
"260",1,0,849,1,6,2,"1828b23",1,1
"360",1,1,468,3,3,2,"1828b23",2,1
"460",1,1,359,5,5,2,"1828b23",3,1
"560",1,0,513,1,5,2,"1828b23",4,1
"660",1,0,387,1,2,2,"1828b23",5,1
"760",1,1,412,6,6,2,"1828b23",6,1
"812",0,1,345,1,3,2,"1828b23",7,1
"912",0,0,392,1,1,2,"1828b23",8,1
"1012",1,1,419,2,2,2,"1828b23",9,1
"1112",1,0,418,4,1,2,"1828b23",10,1
"1212",1,1,1269,4,4,2,"1828b23",11,1
"1312",1,1,411,4,4,2,"1828b23",12,1
"1412",1,1,441,1,1,2,"1828b23",13,1
"1512",0,0,410,5,5,2,"1828b23",14,1
"1612",1,1,388,6,6,2,"1828b23",15,1
"1712",1,1,569,2,2,2,"1828b23",16,1
"1812",0,1,373,5,1,2,"1828b23",17,1
"1912",0,1,410,6,1,2,"1828b23",18,1
"2012",0,1,467,1,3,2,"1828b23",19,1
"2116",0,1,469,4,1,2,"1828b23",20,1
"2214",1,0,732,1,2,2,"1828b23",21,1
"2312",1,1,534,3,3,2,"1828b23",22,1
"2412",1,1,415,1,1,2,"1828b23",23,1
"2512",0,1,472,4,1,2,"1828b23",24,1
"2612",1,1,424,6,6,2,"1828b23",25,1
"2712",1,1,425,4,4,2,"1828b23",26,1
"2812",1,1,406,3,3,2,"1828b23",27,1
"2912",0,1,444,1,3,2,"1828b23",28,1
"3012",0,0,590,5,5,2,"1828b23",29,1
"3116",1,1,579,2,2,2,"1828b23",30,1
"3214",0,1,308,1,6,2,"1828b23",31,1
"3312",0,1,502,2,1,2,"1828b23",32,1
"3412",0,1,510,5,1,2,"1828b23",33,1
"3512",0,1,456,3,1,2,"1828b23",34,1
"3612",1,1,829,5,5,2,"1828b23",35,1
"3712",0,0,1474,3,3,2,"1828b23",36,1
"3812",1,0,368,2,1,2,"1828b23",37,1
"3912",0,0,343,4,4,2,"1828b23",38,1
"4012",0,0,485,1,1,2,"1828b23",39,1
"4116",0,1,404,1,4,2,"1828b23",40,1
"4214",1,1,435,2,2,2,"1828b23",41,1
"4312",1,1,542,6,6,2,"1828b23",42,1
"4412",0,1,385,5,1,2,"1828b23",43,1
"4512",0,1,400,1,6,2,"1828b23",44,1
"4612",1,1,417,5,5,2,"1828b23",45,1
"4712",0,1,383,5,1,2,"1828b23",46,1
"4812",1,1,343,1,1,2,"1828b23",47,1
"4912",-1,-1,0,6,6,2,"1828b23",48,1
"5012",1,1,443,3,3,2,"1828b23",49,1
"5116",1,0,375,2,1,2,"1828b23",50,1
"5214",0,1,417,4,1,2,"1828b23",51,1
"5312",1,1,453,2,2,2,"1828b23",52,1
"5412",0,1,377,3,1,2,"1828b23",53,1
"5512",1,1,481,4,4,2,"1828b23",54,1
"5612",0,1,417,1,6,2,"1828b23",55,1
"5712",0,1,400,1,3,2,"1828b23",56,1
"5812",1,1,564,3,3,2,"1828b23",57,1
"5912",1,1,409,6,6,2,"1828b23",58,1
"6012",1,1,431,5,5,2,"1828b23",59,1
"6116",1,1,1000,4,4,2,"1828b23",60,1
"6214",1,1,404,2,2,2,"1828b23",61,1
"6312",0,1,419,1,4,2,"1828b23",62,1
"6412",0,1,293,5,1,2,"1828b23",63,1
"6512",0,1,353,6,1,2,"1828b23",64,1
"6612",1,0,382,2,1,2,"1828b23",65,1
"6712",1,1,642,1,1,2,"1828b23",66,1
"6812",0,1,414,6,1,2,"1828b23",67,1
"6912",1,1,416,5,5,2,"1828b23",68,1
"7012",1,1,540,6,6,2,"1828b23",69,1
"7116",1,1,604,3,3,2,"1828b23",70,1
"7213",1,1,419,4,4,2,"1828b23",71,1
"7312",1,1,213,2,2,2,"1828b23",72,1
"7412",0,1,400,3,1,2,"1828b23",73,1
"7512",0,1,360,1,4,2,"1828b23",74,1
"7612",0,1,429,1,2,2,"1828b23",75,1
"7712",1,1,418,1,1,2,"1828b23",76,1
"7812",0,1,416,1,5,2,"1828b23",77,1
"270",1,1,1568,2,2,3,"1b1b092",1,1
"370",1,0,712,1,3,3,"1b1b092",2,1
"470",1,1,451,1,1,3,"1b1b092",3,1
"570",1,0,503,5,1,3,"1b1b092",4,1
"670",1,1,488,6,6,3,"1b1b092",5,1
"770",1,0,383,4,1,3,"1b1b092",6,1
"813",0,0,623,3,3,3,"1b1b092",7,1
"913",1,0,643,1,6,3,"1b1b092",8,1
"1013",1,1,339,4,4,3,"1b1b092",9,1
"1113",0,0,337,5,5,3,"1b1b092",10,1
"1213",1,0,384,2,1,3,"1b1b092",11,1
"1313",1,0,525,1,2,3,"1b1b092",12,1
"1413",1,1,841,2,2,3,"1b1b092",13,1
"1513",1,0,1027,3,1,3,"1b1b092",14,1
"1613",0,0,339,1,1,3,"1b1b092",15,1
"1713",1,0,536,4,1,3,"1b1b092",16,1
"1813",1,1,500,3,3,3,"1b1b092",17,1
"1913",1,1,662,5,5,3,"1b1b092",18,1
"2013",1,0,793,5,1,3,"1b1b092",19,1
"2117",1,1,558,6,6,3,"1b1b092",20,1
"2215",1,0,1428,6,1,3,"1b1b092",21,1
"2313",1,1,923,4,4,3,"1b1b092",22,1
"2413",1,1,628,1,1,3,"1b1b092",23,1
"2513",1,0,675,1,4,3,"1b1b092",24,1
"2613",1,1,782,6,6,3,"1b1b092",25,1
"2713",1,1,584,5,5,3,"1b1b092",26,1
"2813",1,0,736,2,1,3,"1b1b092",27,1
"2913",1,1,316,3,3,3,"1b1b092",28,1
"3013",1,0,460,3,1,3,"1b1b092",29,1
"3117",1,1,1303,2,2,3,"1b1b092",30,1
"3215",1,1,582,4,4,3,"1b1b092",31,1
"3313",1,0,320,6,1,3,"1b1b092",32,1
"3413",1,0,538,1,5,3,"1b1b092",33,1
"3513",1,1,583,1,1,3,"1b1b092",34,1
"3613",1,1,1598,3,3,3,"1b1b092",35,1
"3713",1,1,661,6,6,3,"1b1b092",36,1
"3813",-1,-1,0,1,3,3,"1b1b092",37,1
"3913",1,1,571,5,5,3,"1b1b092",38,1
"4013",1,0,673,2,1,3,"1b1b092",39,1
"4117",-1,-1,0,1,6,3,"1b1b092",40,1
"4215",-1,-1,0,1,5,3,"1b1b092",41,1
"4313",1,1,428,2,2,3,"1b1b092",42,1
"4413",0,0,442,4,4,3,"1b1b092",43,1
"4513",0,1,566,4,1,3,"1b1b092",44,1
"4613",1,1,430,6,6,3,"1b1b092",45,1
"4713",1,1,335,4,4,3,"1b1b092",46,1
"4813",1,1,475,1,1,3,"1b1b092",47,1
"4913",1,1,319,3,3,3,"1b1b092",48,1
"5013",1,1,477,2,2,3,"1b1b092",49,1
"5117",1,1,506,5,5,3,"1b1b092",50,1
"5215",1,0,618,1,5,3,"1b1b092",51,1
"5313",1,0,1248,1,4,3,"1b1b092",52,1
"5413",1,0,1671,1,3,3,"1b1b092",53,1
"5513",1,0,618,1,6,3,"1b1b092",54,1
"5613",1,0,1096,1,2,3,"1b1b092",55,1
"5713",1,0,665,4,1,3,"1b1b092",56,1
"5813",1,1,369,3,3,3,"1b1b092",57,1
"5913",1,0,547,1,2,3,"1b1b092",58,1
"6013",1,1,781,6,6,3,"1b1b092",59,1
"6117",1,1,736,4,4,3,"1b1b092",60,1
"6215",-1,-1,0,3,1,3,"1b1b092",61,1
"6313",1,0,1470,1,6,3,"1b1b092",62,1
"6413",-1,-1,0,5,5,3,"1b1b092",63,1
"6513",1,1,326,2,2,3,"1b1b092",64,1
"6613",1,0,376,1,5,3,"1b1b092",65,1
"6713",1,1,332,1,1,3,"1b1b092",66,1
"6813",0,0,434,3,3,3,"1b1b092",67,1
"6913",1,0,640,1,4,3,"1b1b092",68,1
"7013",1,1,441,2,2,3,"1b1b092",69,1
"7117",1,0,374,3,1,3,"1b1b092",70,1
"7214",1,1,475,1,1,3,"1b1b092",71,1
"7313",1,0,436,2,1,3,"1b1b092",72,1
"7413",1,0,1306,5,1,3,"1b1b092",73,1
"7513",1,0,439,1,6,3,"1b1b092",74,1
"7613",1,1,552,4,4,3,"1b1b092",75,1
"7713",1,1,745,6,6,3,"1b1b092",76,1
"7813",1,1,569,5,5,3,"1b1b092",77,1
"280",1,1,1571,1,1,1,"1025a8d",1,1
"380",1,1,578,2,2,1,"1025a8d",2,1
"480",1,1,403,4,4,1,"1025a8d",3,1
"580",1,0,470,1,2,1,"1025a8d",4,1
"680",1,1,472,3,3,1,"1025a8d",5,1
"780",0,1,473,1,6,1,"1025a8d",6,1
"814",1,0,314,3,1,1,"1025a8d",7,1
"914",0,1,317,1,4,1,"1025a8d",8,1
"1014",0,1,288,1,5,1,"1025a8d",9,1
"1114",1,1,270,5,5,1,"1025a8d",10,1
"1214",1,1,182,6,6,1,"1025a8d",11,1
"1314",1,1,238,6,6,1,"1025a8d",12,1
"1414",0,1,343,1,6,1,"1025a8d",13,1
"1514",0,1,327,1,3,1,"1025a8d",14,1
"1614",1,1,316,4,4,1,"1025a8d",15,1
"1714",0,1,269,1,4,1,"1025a8d",16,1
"1814",1,1,358,2,2,1,"1025a8d",17,1
"1914",1,0,282,1,2,1,"1025a8d",18,1
"2014",0,1,248,5,1,1,"1025a8d",19,1
"2118",1,1,377,1,1,1,"1025a8d",20,1
"2216",1,1,407,5,5,1,"1025a8d",21,1
"2314",1,1,336,3,3,1,"1025a8d",22,1
"2414",0,1,319,4,1,1,"1025a8d",23,1
"2514",1,1,294,3,3,1,"1025a8d",24,1
"2614",0,1,294,1,5,1,"1025a8d",25,1
"2714",1,1,297,5,5,1,"1025a8d",26,1
"2814",1,1,261,6,6,1,"1025a8d",27,1
"2914",1,1,240,2,2,1,"1025a8d",28,1
"3014",0,1,262,1,6,1,"1025a8d",29,1
"3118",1,1,341,1,1,1,"1025a8d",30,1
"3216",0,1,267,3,1,1,"1025a8d",31,1
"3314",1,0,359,2,1,1,"1025a8d",32,1
"3414",1,1,299,4,4,1,"1025a8d",33,1
"3514",0,1,290,1,4,1,"1025a8d",34,1
"3614",1,1,668,3,3,1,"1025a8d",35,1
"3714",1,1,241,5,5,1,"1025a8d",36,1
"3814",1,1,296,2,2,1,"1025a8d",37,1
"3914",0,1,299,2,1,1,"1025a8d",38,1
"4014",0,1,275,1,6,1,"1025a8d",39,1
"4118",0,1,104,3,1,1,"1025a8d",40,1
"4216",0,0,465,1,1,1,"1025a8d",41,1
"4314",1,1,359,6,6,1,"1025a8d",42,1
"4414",0,1,283,5,1,1,"1025a8d",43,1
"4514",1,1,260,4,4,1,"1025a8d",44,1
"4614",0,1,313,2,1,1,"1025a8d",45,1
"4714",1,1,334,5,5,1,"1025a8d",46,1
"4814",1,1,228,4,4,1,"1025a8d",47,1
"4914",0,1,379,1,4,1,"1025a8d",48,1
"5014",1,1,303,6,6,1,"1025a8d",49,1
"5118",1,1,283,2,2,1,"1025a8d",50,1
"5216",0,1,281,3,1,1,"1025a8d",51,1
"5314",1,1,212,3,3,1,"1025a8d",52,1
"5414",1,1,245,1,1,1,"1025a8d",53,1
"5514",0,1,168,1,6,1,"1025a8d",54,1
"5614",0,1,438,5,1,1,"1025a8d",55,1
"5714",0,1,259,5,1,1,"1025a8d",56,1
"5814",1,1,410,3,3,1,"1025a8d",57,1
"5914",0,1,376,1,3,1,"1025a8d",58,1
"6014",1,1,458,2,2,1,"1025a8d",59,1
"6118",0,1,445,2,1,1,"1025a8d",60,1
"6216",0,1,418,4,1,1,"1025a8d",61,1
"6314",1,1,617,6,6,1,"1025a8d",62,1
"6414",0,1,297,1,6,1,"1025a8d",63,1
"6514",1,1,663,5,5,1,"1025a8d",64,1
"6614",1,1,332,1,1,1,"1025a8d",65,1
"6714",1,1,648,4,4,1,"1025a8d",66,1
"6814",1,1,469,4,4,1,"1025a8d",67,1
"6914",1,1,214,2,2,1,"1025a8d",68,1
"7014",0,1,218,1,4,1,"1025a8d",69,1
"7118",1,1,294,3,3,1,"1025a8d",70,1
"7215",0,1,66,3,1,1,"1025a8d",71,1
"7314",1,1,415,5,5,1,"1025a8d",72,1
"7414",1,1,254,6,6,1,"1025a8d",73,1
"7514",0,1,305,2,1,1,"1025a8d",74,1
"7614",0,1,240,1,5,1,"1025a8d",75,1
"7714",1,1,202,1,1,1,"1025a8d",76,1
"7814",0,1,115,1,6,1,"1025a8d",77,1
"290",-1,-1,0,4,4,3,"1bdb799",1,1
"390",-1,-1,0,1,1,3,"1bdb799",2,1
"490",-1,-1,0,5,5,3,"1bdb799",3,1
"590",1,0,526,6,1,3,"1bdb799",4,1
"690",1,1,709,3,3,3,"1bdb799",5,1
"790",0,1,1111,1,4,3,"1bdb799",6,1
"815",1,1,1628,2,2,3,"1bdb799",7,1
"915",1,1,1904,6,6,3,"1bdb799",8,1
"1015",0,1,1886,3,1,3,"1bdb799",9,1
"1115",1,0,531,2,1,3,"1bdb799",10,1
"1215",0,1,593,5,1,3,"1bdb799",11,1
"1315",0,1,295,6,1,3,"1bdb799",12,1
"1415",0,1,937,3,1,3,"1bdb799",13,1
"1515",1,1,1898,1,1,3,"1bdb799",14,1
"1615",-1,-1,0,1,4,3,"1bdb799",15,1
"1715",0,1,376,2,1,3,"1bdb799",16,1
"1815",1,1,976,2,2,3,"1bdb799",17,1
"1915",1,0,1837,5,1,3,"1bdb799",18,1
"2015",1,1,1990,6,6,3,"1bdb799",19,1
"2119",1,1,1969,5,5,3,"1bdb799",20,1
"2217",1,1,1757,3,3,3,"1bdb799",21,1
"2315",1,1,1959,4,4,3,"1bdb799",22,1
"2415",1,1,1959,2,2,3,"1bdb799",23,1
"2515",0,1,1579,1,2,3,"1bdb799",24,1
"2615",0,1,1762,1,3,3,"1bdb799",25,1
"2715",0,0,1871,6,6,3,"1bdb799",26,1
"2815",1,1,1908,1,1,3,"1bdb799",27,1
"2915",-1,-1,0,4,1,3,"1bdb799",28,1
"3015",1,1,1964,5,5,3,"1bdb799",29,1
"3119",1,1,1927,4,4,3,"1bdb799",30,1
"3217",0,1,1878,5,1,3,"1bdb799",31,1
"3315",0,1,1754,1,6,3,"1bdb799",32,1
"3415",-1,-1,0,3,3,3,"1bdb799",33,1
"3515",1,1,1892,6,6,3,"1bdb799",34,1
"3615",1,1,1979,4,4,3,"1bdb799",35,1
"3715",-1,-1,0,1,1,3,"1bdb799",36,1
"3815",0,1,1844,4,1,3,"1bdb799",37,1
"3915",-1,-1,0,6,1,3,"1bdb799",38,1
"4015",-1,-1,0,3,3,3,"1bdb799",39,1
"4119",0,0,987,5,5,3,"1bdb799",40,1
"4217",-1,-1,0,1,3,3,"1bdb799",41,1
"4315",-1,-1,0,1,5,3,"1bdb799",42,1
"4415",-1,-1,0,2,2,3,"1bdb799",43,1
"4515",-1,-1,0,2,1,3,"1bdb799",44,1
"4615",-1,-1,0,2,2,3,"1bdb799",45,1
"4715",-1,-1,0,3,1,3,"1bdb799",46,1
"4815",1,0,1910,1,5,3,"1bdb799",47,1
"4915",1,1,1953,3,3,3,"1bdb799",48,1
"5015",0,1,1467,6,1,3,"1bdb799",49,1
"5119",1,1,1498,4,4,3,"1bdb799",50,1
"5217",1,0,892,1,2,3,"1bdb799",51,1
"5315",-1,-1,0,1,1,3,"1bdb799",52,1
"5415",-1,-1,0,4,1,3,"1bdb799",53,1
"5515",1,1,1894,6,6,3,"1bdb799",54,1
"5615",1,1,1916,5,5,3,"1bdb799",55,1
"5715",1,0,1898,2,1,3,"1bdb799",56,1
"5815",-1,-1,0,3,3,3,"1bdb799",57,1
"5915",-1,-1,0,2,2,3,"1bdb799",58,1
"6015",-1,-1,0,5,5,3,"1bdb799",59,1
"6119",-1,-1,0,4,4,3,"1bdb799",60,1
"6217",-1,-1,0,1,6,3,"1bdb799",61,1
"6315",-1,-1,0,6,6,3,"1bdb799",62,1
"6415",0,0,1482,1,1,3,"1bdb799",63,1
"6515",-1,-1,0,1,4,3,"1bdb799",64,1
"6615",-1,-1,0,1,3,3,"1bdb799",65,1
"6715",-1,-1,0,5,1,3,"1bdb799",66,1
"6815",0,1,1860,1,5,3,"1bdb799",67,1
"6915",-1,-1,0,4,4,3,"1bdb799",68,1
"7015",-1,-1,0,1,2,3,"1bdb799",69,1
"7119",-1,-1,0,3,1,3,"1bdb799",70,1
"7216",-1,-1,0,1,1,3,"1bdb799",71,1
"7315",-1,-1,0,1,4,3,"1bdb799",72,1
"7415",0,1,1905,1,6,3,"1bdb799",73,1
"7515",-1,-1,0,2,2,3,"1bdb799",74,1
"7615",1,1,1886,5,5,3,"1bdb799",75,1
"7715",-1,-1,0,6,6,3,"1bdb799",76,1
"7815",-1,-1,0,3,3,3,"1bdb799",77,1
"2100",-1,-1,0,4,4,1,"1ed4bee",1,1
"3100",1,1,472,5,5,1,"1ed4bee",2,1
"4100",0,0,278,1,1,1,"1ed4bee",3,1
"5100",1,1,194,2,2,1,"1ed4bee",4,1
"6100",1,0,250,3,1,1,"1ed4bee",5,1
"791",1,0,128,1,4,1,"1ed4bee",6,1
"816",1,0,214,2,1,1,"1ed4bee",7,1
"916",1,0,202,1,5,1,"1ed4bee",8,1
"1016",0,0,259,3,3,1,"1ed4bee",9,1
"1116",1,1,240,6,6,1,"1ed4bee",10,1
"1216",0,1,286,6,1,1,"1ed4bee",11,1
"1316",1,0,372,1,2,1,"1ed4bee",12,1
"1416",1,0,249,3,1,1,"1ed4bee",13,1
"1516",0,0,231,4,4,1,"1ed4bee",14,1
"1616",1,1,255,5,5,1,"1ed4bee",15,1
"1716",0,0,282,6,6,1,"1ed4bee",16,1
"1816",0,0,219,1,1,1,"1ed4bee",17,1
"1916",0,1,257,1,6,1,"1ed4bee",18,1
"2016",0,0,328,3,3,1,"1ed4bee",19,1
"2120",1,1,262,2,2,1,"1ed4bee",20,1
"2218",0,1,282,1,4,1,"1ed4bee",21,1
"2316",0,1,361,1,5,1,"1ed4bee",22,1
"2416",1,1,304,5,5,1,"1ed4bee",23,1
"2516",0,1,422,4,1,1,"1ed4bee",24,1
"2616",1,1,292,3,3,1,"1ed4bee",25,1
"2716",0,1,266,1,5,1,"1ed4bee",26,1
"2816",1,1,257,4,4,1,"1ed4bee",27,1
"2916",1,1,274,2,2,1,"1ed4bee",28,1
"3016",1,1,269,1,1,1,"1ed4bee",29,1
"3120",1,0,297,1,3,1,"1ed4bee",30,1
"3218",0,1,264,1,2,1,"1ed4bee",31,1
"3316",0,1,302,6,1,1,"1ed4bee",32,1
"3416",1,1,53,6,6,1,"1ed4bee",33,1
"3516",0,1,330,5,1,1,"1ed4bee",34,1
"3616",0,1,294,6,1,1,"1ed4bee",35,1
"3716",0,0,349,6,6,1,"1ed4bee",36,1
"3816",1,0,331,1,2,1,"1ed4bee",37,1
"3916",1,1,352,5,5,1,"1ed4bee",38,1
"4016",0,1,375,1,4,1,"1ed4bee",39,1
"4120",0,0,285,4,4,1,"1ed4bee",40,1
"4218",1,0,316,1,3,1,"1ed4bee",41,1
"4316",1,1,343,2,2,1,"1ed4bee",42,1
"4416",1,1,295,1,1,1,"1ed4bee",43,1
"4516",1,1,268,3,3,1,"1ed4bee",44,1
"4616",1,1,307,1,1,1,"1ed4bee",45,1
"4716",1,1,275,4,4,1,"1ed4bee",46,1
"4816",0,1,272,1,6,1,"1ed4bee",47,1
"4916",1,1,269,6,6,1,"1ed4bee",48,1
"5016",0,1,315,4,1,1,"1ed4bee",49,1
"5120",0,1,296,1,5,1,"1ed4bee",50,1
"5218",1,1,262,3,3,1,"1ed4bee",51,1
"5316",1,0,348,1,3,1,"1ed4bee",52,1
"5416",1,1,292,2,2,1,"1ed4bee",53,1
"5516",1,1,392,5,5,1,"1ed4bee",54,1
"5616",1,0,271,1,2,1,"1ed4bee",55,1
"5716",0,1,285,1,4,1,"1ed4bee",56,1
"5816",1,1,308,3,3,1,"1ed4bee",57,1
"5916",0,1,281,6,1,1,"1ed4bee",58,1
"6016",0,1,224,1,3,1,"1ed4bee",59,1
"6120",1,0,292,2,1,1,"1ed4bee",60,1
"6218",1,1,261,1,1,1,"1ed4bee",61,1
"6316",1,1,272,2,2,1,"1ed4bee",62,1
"6416",1,1,303,4,4,1,"1ed4bee",63,1
"6516",1,1,299,5,5,1,"1ed4bee",64,1
"6616",0,1,252,1,5,1,"1ed4bee",65,1
"6716",1,1,239,6,6,1,"1ed4bee",66,1
"6816",1,1,255,3,3,1,"1ed4bee",67,1
"6916",1,0,261,1,3,1,"1ed4bee",68,1
"7016",1,0,245,1,2,1,"1ed4bee",69,1
"7120",1,1,224,4,4,1,"1ed4bee",70,1
"7217",0,1,264,1,5,1,"1ed4bee",71,1
"7316",0,1,253,6,1,1,"1ed4bee",72,1
"7416",1,1,67,2,2,1,"1ed4bee",73,1
"7516",1,1,249,6,6,1,"1ed4bee",74,1
"7616",1,1,233,5,5,1,"1ed4bee",75,1
"7716",1,1,378,1,1,1,"1ed4bee",76,1
"7816",0,1,244,4,1,1,"1ed4bee",77,1
"2101",1,0,280,1,2,1,"13af2ed",1,1
"3101",1,1,304,6,6,1,"13af2ed",2,1
"4101",0,0,275,3,3,1,"13af2ed",3,1
"5101",0,1,279,1,3,1,"13af2ed",4,1
"6101",0,0,304,4,4,1,"13af2ed",5,1
"792",1,0,276,1,5,1,"13af2ed",6,1
"817",0,1,460,1,6,1,"13af2ed",7,1
"917",1,0,1258,4,1,1,"13af2ed",8,1
"1017",1,1,266,5,5,1,"13af2ed",9,1
"1117",0,0,956,1,1,1,"13af2ed",10,1
"1217",1,1,886,2,2,1,"13af2ed",11,1
"1317",1,0,764,1,5,1,"13af2ed",12,1
"1417",1,0,80,1,2,1,"13af2ed",13,1
"1517",1,0,311,1,3,1,"13af2ed",14,1
"1617",1,1,211,3,3,1,"13af2ed",15,1
"1717",0,0,261,4,4,1,"13af2ed",16,1
"1817",1,1,449,5,5,1,"13af2ed",17,1
"1917",0,0,100,6,6,1,"13af2ed",18,1
"2017",1,1,1667,2,2,1,"13af2ed",19,1
"2121",1,0,715,6,1,1,"13af2ed",20,1
"2219",0,0,453,1,1,1,"13af2ed",21,1
"2317",1,0,1155,1,4,1,"13af2ed",22,1
"2417",0,1,294,6,1,1,"13af2ed",23,1
"2517",0,0,293,3,3,1,"13af2ed",24,1
"2617",1,1,315,1,1,1,"13af2ed",25,1
"2717",1,1,323,5,5,1,"13af2ed",26,1
"2817",1,0,171,2,1,1,"13af2ed",27,1
"2917",0,1,817,1,5,1,"13af2ed",28,1
"3017",1,1,82,4,4,1,"13af2ed",29,1
"3121",0,1,829,1,3,1,"13af2ed",30,1
"3219",0,1,447,1,4,1,"13af2ed",31,1
"3317",1,1,1153,2,2,1,"13af2ed",32,1
"3417",0,0,392,6,6,1,"13af2ed",33,1
"3517",0,0,546,6,6,1,"13af2ed",34,1
"3617",1,1,276,2,2,1,"13af2ed",35,1
"3717",0,1,427,3,1,1,"13af2ed",36,1
"3817",1,0,1211,4,1,1,"13af2ed",37,1
"3917",1,1,250,4,4,1,"13af2ed",38,1
"4017",0,1,522,1,5,1,"13af2ed",39,1
"4121",0,0,645,3,3,1,"13af2ed",40,1
"4219",1,1,593,5,5,1,"13af2ed",41,1
"4317",0,0,285,1,1,1,"13af2ed",42,1
"4417",1,0,258,6,1,1,"13af2ed",43,1
"4517",0,1,113,2,1,1,"13af2ed",44,1
"4617",0,0,426,1,1,1,"13af2ed",45,1
"4717",0,1,125,1,4,1,"13af2ed",46,1
"4817",0,1,391,6,1,1,"13af2ed",47,1
"4917",1,1,259,5,5,1,"13af2ed",48,1
"5017",0,1,213,2,1,1,"13af2ed",49,1
"5121",1,1,762,2,2,1,"13af2ed",50,1
"5219",-1,0,366,5,1,1,"13af2ed",51,1
"5317",1,1,580,3,3,1,"13af2ed",52,1
"5417",1,1,162,6,6,1,"13af2ed",53,1
"5517",1,0,1776,3,1,1,"13af2ed",54,1
"5617",1,1,122,4,4,1,"13af2ed",55,1
"5717",1,1,869,6,6,1,"13af2ed",56,1
"5817",0,0,188,5,5,1,"13af2ed",57,1
"5917",1,0,430,6,1,1,"13af2ed",58,1
"6017",-1,0,276,2,2,1,"13af2ed",59,1
"6121",0,1,573,5,1,1,"13af2ed",60,1
"6219",0,1,374,1,2,1,"13af2ed",61,1
"6317",1,0,487,4,1,1,"13af2ed",62,1
"6417",0,0,314,3,3,1,"13af2ed",63,1
"6517",1,1,1259,1,1,1,"13af2ed",64,1
"6617",0,1,344,1,3,1,"13af2ed",65,1
"6717",1,1,277,4,4,1,"13af2ed",66,1
"6817",0,0,419,5,5,1,"13af2ed",67,1
"6917",1,1,1364,1,1,1,"13af2ed",68,1
"7017",1,0,455,1,6,1,"13af2ed",69,1
"7121",0,0,248,2,2,1,"13af2ed",70,1
"7218",1,1,282,6,6,1,"13af2ed",71,1
"7317",1,1,242,3,3,1,"13af2ed",72,1
"7417",0,1,540,1,3,1,"13af2ed",73,1
"7517",-1,0,382,4,4,1,"13af2ed",74,1
"7617",1,0,324,1,2,1,"13af2ed",75,1
"7717",-1,-1,0,1,4,1,"13af2ed",76,1
"7817",0,1,1263,5,1,1,"13af2ed",77,1
"2102",1,0,2002,6,1,1,"19e33dc",1,1
"3102",1,0,636,4,1,1,"19e33dc",2,1
"4102",1,1,458,2,2,1,"19e33dc",3,1
"5102",1,0,403,1,2,1,"19e33dc",4,1
"6102",1,1,409,5,5,1,"19e33dc",5,1
"793",0,1,323,1,3,1,"19e33dc",6,1
"818",0,0,306,1,1,1,"19e33dc",7,1
"918",1,1,159,6,6,1,"19e33dc",8,1
"1018",0,1,294,5,1,1,"19e33dc",9,1
"1118",1,1,316,4,4,1,"19e33dc",10,1
"1218",0,0,330,3,3,1,"19e33dc",11,1
"1318",1,0,506,1,4,1,"19e33dc",12,1
"1418",1,1,258,6,6,1,"19e33dc",13,1
"1518",0,1,277,1,3,1,"19e33dc",14,1
"1618",0,0,323,1,1,1,"19e33dc",15,1
"1718",1,1,313,3,3,1,"19e33dc",16,1
"1818",1,1,138,4,4,1,"19e33dc",17,1
"1918",0,0,468,5,5,1,"19e33dc",18,1
"2018",1,1,326,2,2,1,"19e33dc",19,1
"2122",1,0,314,1,6,1,"19e33dc",20,1
"2220",1,0,111,1,5,1,"19e33dc",21,1
"2318",0,1,319,2,1,1,"19e33dc",22,1
"2418",1,1,361,1,1,1,"19e33dc",23,1
"2518",0,1,353,5,1,1,"19e33dc",24,1
"2618",1,1,335,4,4,1,"19e33dc",25,1
"2718",0,1,355,4,1,1,"19e33dc",26,1
"2818",0,1,434,1,6,1,"19e33dc",27,1
"2918",0,1,549,3,1,1,"19e33dc",28,1
"3018",0,0,395,3,3,1,"19e33dc",29,1
"3122",1,1,315,2,2,1,"19e33dc",30,1
"3220",1,1,364,6,6,1,"19e33dc",31,1
"3318",1,0,126,1,2,1,"19e33dc",32,1
"3418",1,1,392,5,5,1,"19e33dc",33,1
"3518",0,1,310,6,1,1,"19e33dc",34,1
"3618",1,1,320,6,6,1,"19e33dc",35,1
"3718",0,0,341,2,2,1,"19e33dc",36,1
"3818",0,1,423,1,5,1,"19e33dc",37,1
"3918",1,0,303,2,1,1,"19e33dc",38,1
"4018",1,1,320,4,4,1,"19e33dc",39,1
"4122",0,1,877,4,1,1,"19e33dc",40,1
"4220",1,1,319,3,3,1,"19e33dc",41,1
"4318",0,0,306,1,1,1,"19e33dc",42,1
"4418",1,1,287,5,5,1,"19e33dc",43,1
"4518",0,1,273,1,3,1,"19e33dc",44,1
"4618",1,0,324,2,1,1,"19e33dc",45,1
"4718",0,1,329,5,1,1,"19e33dc",46,1
"4818",0,0,347,2,2,1,"19e33dc",47,1
"4918",1,1,297,4,4,1,"19e33dc",48,1
"5018",0,1,411,1,6,1,"19e33dc",49,1
"5122",1,1,298,1,1,1,"19e33dc",50,1
"5220",1,1,476,3,3,1,"19e33dc",51,1
"5318",0,1,166,3,1,1,"19e33dc",52,1
"5418",0,1,379,1,4,1,"19e33dc",53,1
"5518",1,1,234,5,5,1,"19e33dc",54,1
"5618",1,1,348,6,6,1,"19e33dc",55,1
"5718",1,1,297,3,3,1,"19e33dc",56,1
"5818",1,1,404,2,2,1,"19e33dc",57,1
"5918",1,1,450,1,1,1,"19e33dc",58,1
"6018",1,1,502,5,5,1,"19e33dc",59,1
"6122",0,1,390,6,1,1,"19e33dc",60,1
"6220",0,1,376,1,4,1,"19e33dc",61,1
"6318",0,1,126,1,5,1,"19e33dc",62,1
"6418",0,0,308,4,4,1,"19e33dc",63,1
"6518",1,0,291,1,2,1,"19e33dc",64,1
"6618",1,0,276,3,1,1,"19e33dc",65,1
"6718",1,1,285,6,6,1,"19e33dc",66,1
"6818",1,1,336,4,4,1,"19e33dc",67,1
"6918",0,1,478,1,6,1,"19e33dc",68,1
"7018",0,1,367,3,1,1,"19e33dc",69,1
"7122",0,1,436,1,4,1,"19e33dc",70,1
"7219",1,1,258,6,6,1,"19e33dc",71,1
"7318",1,1,218,3,3,1,"19e33dc",72,1
"7418",1,1,295,5,5,1,"19e33dc",73,1
"7518",1,1,533,2,2,1,"19e33dc",74,1
"7618",1,0,136,2,1,1,"19e33dc",75,1
"7718",1,1,313,1,1,1,"19e33dc",76,1
"7818",0,1,615,1,5,1,"19e33dc",77,1
"2103",1,0,1022,1,5,3,"1b65e8f",1,1
"3103",1,0,525,4,1,3,"1b65e8f",2,1
"4103",0,0,442,2,2,3,"1b65e8f",3,1
"5103",1,1,364,1,1,3,"1b65e8f",4,1
"6103",0,1,552,3,1,3,"1b65e8f",5,1
"794",0,0,445,5,5,3,"1b65e8f",6,1
"819",1,1,1690,4,4,3,"1b65e8f",7,1
"919",1,1,435,3,3,3,"1b65e8f",8,1
"1019",0,0,330,6,6,3,"1b65e8f",9,1
"1119",1,0,433,6,1,3,"1b65e8f",10,1
"1219",0,1,288,2,1,3,"1b65e8f",11,1
"1319",0,0,270,1,1,3,"1b65e8f",12,1
"1419",0,0,311,4,4,3,"1b65e8f",13,1
"1519",1,0,248,6,1,3,"1b65e8f",14,1
"1619",0,0,500,6,6,3,"1b65e8f",15,1
"1719",0,1,290,1,5,3,"1b65e8f",16,1
"1819",0,1,275,2,1,3,"1b65e8f",17,1
"1919",1,0,947,3,1,3,"1b65e8f",18,1
"2019",1,1,349,5,5,3,"1b65e8f",19,1
"2123",1,1,216,2,2,3,"1b65e8f",20,1
"2221",0,0,319,3,3,3,"1b65e8f",21,1
"2319",1,0,615,1,4,3,"1b65e8f",22,1
"2419",0,0,606,3,3,3,"1b65e8f",23,1
"2519",1,1,527,1,1,3,"1b65e8f",24,1
"2619",1,1,395,2,2,3,"1b65e8f",25,1
"2719",0,1,243,1,2,3,"1b65e8f",26,1
"2819",1,0,341,3,1,3,"1b65e8f",27,1
"2919",0,0,445,6,6,3,"1b65e8f",28,1
"3019",0,0,290,4,4,3,"1b65e8f",29,1
"3123",1,0,436,1,5,3,"1b65e8f",30,1
"3221",0,1,578,1,6,3,"1b65e8f",31,1
"3319",1,1,384,5,5,3,"1b65e8f",32,1
"3419",0,1,364,1,4,3,"1b65e8f",33,1
"3519",0,1,221,1,4,3,"1b65e8f",34,1
"3619",1,1,283,1,1,3,"1b65e8f",35,1
"3719",0,1,260,1,6,3,"1b65e8f",36,1
"3819",1,1,182,2,2,3,"1b65e8f",37,1
"3919",0,1,276,5,1,3,"1b65e8f",38,1
"4019",1,1,195,3,3,3,"1b65e8f",39,1
"4123",1,1,93,5,5,3,"1b65e8f",40,1
"4221",1,1,353,4,4,3,"1b65e8f",41,1
"4319",1,0,312,1,3,3,"1b65e8f",42,1
"4419",0,1,418,1,2,3,"1b65e8f",43,1
"4519",0,0,648,6,6,3,"1b65e8f",44,1
"4619",1,1,154,5,5,3,"1b65e8f",45,1
"4719",0,0,350,6,6,3,"1b65e8f",46,1
"4819",1,0,741,5,1,3,"1b65e8f",47,1
"4919",0,0,454,1,1,3,"1b65e8f",48,1
"5019",0,1,373,1,2,3,"1b65e8f",49,1
"5123",1,1,136,3,3,3,"1b65e8f",50,1
"5221",0,1,330,1,6,3,"1b65e8f",51,1
"5319",1,0,47,3,1,3,"1b65e8f",52,1
"5419",1,0,237,4,1,3,"1b65e8f",53,1
"5519",1,1,279,2,2,3,"1b65e8f",54,1
"5619",1,1,575,4,4,3,"1b65e8f",55,1
"5719",0,1,145,1,4,3,"1b65e8f",56,1
"5819",1,1,384,6,6,3,"1b65e8f",57,1
"5919",0,0,37,2,2,3,"1b65e8f",58,1
"6019",0,1,446,1,2,3,"1b65e8f",59,1
"6123",0,0,37,5,5,3,"1b65e8f",60,1
"6221",1,0,301,6,1,3,"1b65e8f",61,1
"6319",1,1,900,3,3,3,"1b65e8f",62,1
"6419",0,0,1327,4,4,3,"1b65e8f",63,1
"6519",1,0,636,3,1,3,"1b65e8f",64,1
"6619",1,1,1699,1,1,3,"1b65e8f",65,1
"6719",0,1,297,1,5,3,"1b65e8f",66,1
"6819",1,1,333,6,6,3,"1b65e8f",67,1
"6919",0,1,199,1,4,3,"1b65e8f",68,1
"7019",1,1,265,2,2,3,"1b65e8f",69,1
"7123",0,1,263,1,6,3,"1b65e8f",70,1
"7220",1,0,437,1,3,3,"1b65e8f",71,1
"7319",0,1,300,2,1,3,"1b65e8f",72,1
"7419",0,0,297,5,5,3,"1b65e8f",73,1
"7519",1,0,308,5,1,3,"1b65e8f",74,1
"7619",1,1,327,4,4,3,"1b65e8f",75,1
"7719",0,0,611,3,3,3,"1b65e8f",76,1
"7819",1,1,274,1,1,3,"1b65e8f",77,1
"2104",1,1,813,1,1,3,"10d165c",1,1
"3104",1,0,388,1,6,3,"10d165c",2,1
"4104",1,1,440,2,2,3,"10d165c",3,1
"5104",1,1,65,6,6,3,"10d165c",4,1
"6104",0,0,556,5,5,3,"10d165c",5,1
"795",1,1,422,4,4,3,"10d165c",6,1
"820",1,0,297,2,1,3,"10d165c",7,1
"920",1,0,388,5,1,3,"10d165c",8,1
"1020",1,0,261,1,4,3,"10d165c",9,1
"1120",1,0,1385,1,3,3,"10d165c",10,1
"1220",0,0,508,3,3,3,"10d165c",11,1
"1320",0,0,375,3,3,3,"10d165c",12,1
"1420",1,0,282,1,4,3,"10d165c",13,1
"1520",0,0,308,1,1,3,"10d165c",14,1
"1620",1,1,301,2,2,3,"10d165c",15,1
"1720",1,0,250,1,5,3,"10d165c",16,1
"1820",0,1,258,1,3,3,"10d165c",17,1
"1920",0,0,246,6,6,3,"10d165c",18,1
"2020",1,1,254,4,4,3,"10d165c",19,1
"2124",0,0,273,5,5,3,"10d165c",20,1
"2222",0,1,257,2,1,3,"10d165c",21,1
"2320",0,1,254,6,1,3,"10d165c",22,1
"2420",1,1,304,3,3,3,"10d165c",23,1
"2520",1,1,269,1,1,3,"10d165c",24,1
"2620",1,1,310,4,4,3,"10d165c",25,1
"2720",1,0,242,2,1,3,"10d165c",26,1
"2820",0,0,332,6,6,3,"10d165c",27,1
"2920",1,1,258,5,5,3,"10d165c",28,1
"3020",1,0,235,1,5,3,"10d165c",29,1
"3124",1,0,292,1,3,3,"10d165c",30,1
"3222",1,1,349,2,2,3,"10d165c",31,1
"3320",1,0,365,1,4,3,"10d165c",32,1
"3420",0,1,248,6,1,3,"10d165c",33,1
"3520",1,1,288,2,2,3,"10d165c",34,1
"3620",0,0,251,3,3,3,"10d165c",35,1
"3720",1,0,248,1,6,3,"10d165c",36,1
"3820",1,1,347,6,6,3,"10d165c",37,1
"3920",0,0,312,1,1,3,"10d165c",38,1
"4020",1,1,247,5,5,3,"10d165c",39,1
"4124",1,0,242,1,2,3,"10d165c",40,1
"4222",1,0,259,1,5,3,"10d165c",41,1
"4320",0,1,544,3,1,3,"10d165c",42,1
"4420",1,1,242,4,4,3,"10d165c",43,1
"4520",0,1,84,4,1,3,"10d165c",44,1
"4620",1,0,228,5,1,3,"10d165c",45,1
"4720",1,1,257,6,6,3,"10d165c",46,1
"4820",1,1,235,4,4,3,"10d165c",47,1
"4920",1,0,216,1,3,3,"10d165c",48,1
"5020",1,1,251,5,5,3,"10d165c",49,1
"5124",1,0,277,1,2,3,"10d165c",50,1
"5222",0,0,245,1,1,3,"10d165c",51,1
"5320",1,1,280,2,2,3,"10d165c",52,1
"5420",0,0,288,3,3,3,"10d165c",53,1
"5520",1,0,259,1,4,3,"10d165c",54,1
"5620",0,1,223,1,6,3,"10d165c",55,1
"5720",1,0,240,4,1,3,"10d165c",56,1
"5820",1,1,264,6,6,3,"10d165c",57,1
"5920",1,0,257,1,6,3,"10d165c",58,1
"6020",1,0,452,5,1,3,"10d165c",59,1
"6124",1,1,254,3,3,3,"10d165c",60,1
"6222",1,1,183,2,2,3,"10d165c",61,1
"6320",1,0,184,3,1,3,"10d165c",62,1
"6420",1,1,263,4,4,3,"10d165c",63,1
"6520",0,0,272,5,5,3,"10d165c",64,1
"6620",1,1,226,1,1,3,"10d165c",65,1
"6720",1,0,212,1,2,3,"10d165c",66,1
"6820",1,0,415,1,2,3,"10d165c",67,1
"6920",1,0,254,3,1,3,"10d165c",68,1
"7020",1,1,224,1,1,3,"10d165c",69,1
"7124",0,1,236,1,6,3,"10d165c",70,1
"7221",0,1,69,1,4,3,"10d165c",71,1
"7320",0,1,229,1,5,3,"10d165c",72,1
"7420",1,1,231,5,5,3,"10d165c",73,1
"7520",1,1,211,4,4,3,"10d165c",74,1
"7620",1,1,219,2,2,3,"10d165c",75,1
"7720",0,0,263,3,3,3,"10d165c",76,1
"7820",1,1,214,6,6,3,"10d165c",77,1
"2105",0,1,1381,5,1,2,"1c84f2b",1,1
"3105",1,1,455,2,2,2,"1c84f2b",2,1
"4105",0,1,679,4,1,2,"1c84f2b",3,1
"5105",0,1,1080,2,1,2,"1c84f2b",4,1
"6105",1,1,1009,6,6,2,"1c84f2b",5,1
"796",0,1,145,6,1,2,"1c84f2b",6,1
"821",1,1,335,1,1,2,"1c84f2b",7,1
"921",1,1,308,4,4,2,"1c84f2b",8,1
"1021",0,1,106,1,3,2,"1c84f2b",9,1
"1121",1,1,326,3,3,2,"1c84f2b",10,1
"1221",1,1,259,5,5,2,"1c84f2b",11,1
"1321",0,1,350,1,4,2,"1c84f2b",12,1
"1421",1,1,269,4,4,2,"1c84f2b",13,1
"1521",0,1,817,2,1,2,"1c84f2b",14,1
"1621",0,1,214,1,5,2,"1c84f2b",15,1
"1721",1,1,346,6,6,2,"1c84f2b",16,1
"1821",1,1,187,5,5,2,"1c84f2b",17,1
"1921",1,1,84,3,3,2,"1c84f2b",18,1
"2021",0,1,328,6,1,2,"1c84f2b",19,1
"2125",1,1,379,1,1,2,"1c84f2b",20,1
"2223",0,1,128,1,3,2,"1c84f2b",21,1
"2321",1,1,409,2,2,2,"1c84f2b",22,1
"2421",1,1,21,3,3,2,"1c84f2b",23,1
"2521",1,1,235,1,1,2,"1c84f2b",24,1
"2621",1,1,91,6,6,2,"1c84f2b",25,1
"2721",1,1,358,4,4,2,"1c84f2b",26,1
"2821",0,1,953,4,1,2,"1c84f2b",27,1
"2921",0,1,458,1,5,2,"1c84f2b",28,1
"3021",0,1,500,1,2,2,"1c84f2b",29,1
"3125",0,1,145,3,1,2,"1c84f2b",30,1
"3223",0,1,224,1,6,2,"1c84f2b",31,1
"3321",1,1,257,2,2,2,"1c84f2b",32,1
"3421",1,1,1984,5,5,2,"1c84f2b",33,1
"3521",1,1,529,6,6,2,"1c84f2b",34,1
"3621",1,1,59,4,4,2,"1c84f2b",35,1
"3721",0,1,648,3,1,2,"1c84f2b",36,1
"3821",1,1,318,2,2,2,"1c84f2b",37,1
"3921",1,1,307,1,1,2,"1c84f2b",38,1
"4021",0,1,503,1,6,2,"1c84f2b",39,1
"4125",1,1,1507,3,3,2,"1c84f2b",40,1
"4223",1,1,372,5,5,2,"1c84f2b",41,1
"4321",0,1,1988,2,1,2,"1c84f2b",42,1
"4421",0,1,250,5,1,2,"1c84f2b",43,1
"4521",0,1,222,1,4,2,"1c84f2b",44,1
"4621",1,1,225,5,5,2,"1c84f2b",45,1
"4721",0,1,134,1,2,2,"1c84f2b",46,1
"4821",0,1,335,5,1,2,"1c84f2b",47,1
"4921",1,1,159,4,4,2,"1c84f2b",48,1
"5021",0,1,249,1,3,2,"1c84f2b",49,1
"5125",1,1,405,2,2,2,"1c84f2b",50,1
"5223",1,1,272,3,3,2,"1c84f2b",51,1
"5321",1,1,111,6,6,2,"1c84f2b",52,1
"5421",0,1,340,6,1,2,"1c84f2b",53,1
"5521",0,1,637,1,4,2,"1c84f2b",54,1
"5621",1,1,142,1,1,2,"1c84f2b",55,1
"5721",1,1,109,2,2,2,"1c84f2b",56,1
"5821",0,1,218,2,1,2,"1c84f2b",57,1
"5921",-1,-1,0,3,3,2,"1c84f2b",58,1
"6021",-1,-1,0,1,4,2,"1c84f2b",59,1
"6125",0,1,352,3,1,2,"1c84f2b",60,1
"6223",0,1,195,5,1,2,"1c84f2b",61,1
"6321",1,1,360,5,5,2,"1c84f2b",62,1
"6421",0,1,243,6,1,2,"1c84f2b",63,1
"6521",1,1,288,4,4,2,"1c84f2b",64,1
"6621",1,1,394,6,6,2,"1c84f2b",65,1
"6721",1,1,517,1,1,2,"1c84f2b",66,1
"6821",1,1,1985,6,6,2,"1c84f2b",67,1
"6921",1,1,592,1,1,2,"1c84f2b",68,1
"7021",0,1,298,5,1,2,"1c84f2b",69,1
"7125",1,0,263,2,1,2,"1c84f2b",70,1
"7222",1,1,479,5,5,2,"1c84f2b",71,1
"7321",1,1,275,2,2,2,"1c84f2b",72,1
"7421",0,1,405,1,6,2,"1c84f2b",73,1
"7521",0,0,413,4,4,2,"1c84f2b",74,1
"7621",0,1,283,1,4,2,"1c84f2b",75,1
"7721",0,1,320,3,1,2,"1c84f2b",76,1
"7821",1,1,736,3,3,2,"1c84f2b",77,1
"2106",1,1,692,5,5,1,"176feb5",1,1
"3106",1,0,671,1,2,1,"176feb5",2,1
"4106",0,0,858,4,4,1,"176feb5",3,1
"5106",0,1,752,3,1,1,"176feb5",4,1
"6106",0,0,648,1,1,1,"176feb5",5,1
"797",1,0,356,6,1,1,"176feb5",6,1
"822",1,1,419,6,6,1,"176feb5",7,1
"922",0,0,485,2,2,1,"176feb5",8,1
"1022",1,0,994,4,1,1,"176feb5",9,1
"1122",1,1,512,3,3,1,"176feb5",10,1
"1222",0,1,596,1,5,1,"176feb5",11,1
"1322",0,1,412,4,1,1,"176feb5",12,1
"1422",1,1,415,1,1,1,"176feb5",13,1
"1522",0,1,359,5,1,1,"176feb5",14,1
"1622",1,0,348,2,1,1,"176feb5",15,1
"1722",1,1,667,6,6,1,"176feb5",16,1
"1822",1,1,402,3,3,1,"176feb5",17,1
"1922",0,1,336,6,1,1,"176feb5",18,1
"2022",0,0,464,4,4,1,"176feb5",19,1
"2126",0,1,805,3,1,1,"176feb5",20,1
"2224",1,1,451,2,2,1,"176feb5",21,1
"2322",1,1,791,5,5,1,"176feb5",22,1
"2422",0,0,407,3,3,1,"176feb5",23,1
"2522",0,1,819,2,1,1,"176feb5",24,1
"2622",0,1,320,6,1,1,"176feb5",25,1
"2722",1,0,419,4,1,1,"176feb5",26,1
"2822",1,1,349,1,1,1,"176feb5",27,1
"2922",1,1,485,5,5,1,"176feb5",28,1
"3022",0,1,342,1,5,1,"176feb5",29,1
"3126",0,0,402,4,4,1,"176feb5",30,1
"3224",0,0,358,2,2,1,"176feb5",31,1
"3322",0,0,334,6,6,1,"176feb5",32,1
"3422",1,0,331,1,3,1,"176feb5",33,1
"3522",1,1,337,3,3,1,"176feb5",34,1
"3622",0,1,363,6,1,1,"176feb5",35,1
"3722",0,1,291,1,3,1,"176feb5",36,1
"3822",1,1,835,4,4,1,"176feb5",37,1
"3922",0,1,309,1,4,1,"176feb5",38,1
"4022",1,1,390,2,2,1,"176feb5",39,1
"4126",1,1,369,6,6,1,"176feb5",40,1
"4224",0,1,310,2,1,1,"176feb5",41,1
"4322",0,1,346,5,1,1,"176feb5",42,1
"4422",1,1,601,1,1,1,"176feb5",43,1
"4522",1,1,418,5,5,1,"176feb5",44,1
"4622",1,1,371,6,6,1,"176feb5",45,1
"4722",1,1,895,5,5,1,"176feb5",46,1
"4822",0,1,360,1,6,1,"176feb5",47,1
"4922",0,1,380,1,5,1,"176feb5",48,1
"5022",1,1,581,2,2,1,"176feb5",49,1
"5126",1,1,335,4,4,1,"176feb5",50,1
"5224",1,1,430,1,1,1,"176feb5",51,1
"5322",1,0,480,1,2,1,"176feb5",52,1
"5422",0,1,299,1,4,1,"176feb5",53,1
"5522",1,0,375,1,3,1,"176feb5",54,1
"5622",1,1,370,3,3,1,"176feb5",55,1
"5722",1,1,452,6,6,1,"176feb5",56,1
"5822",0,1,564,1,5,1,"176feb5",57,1
"5922",1,1,392,5,5,1,"176feb5",58,1
"6022",1,1,305,2,2,1,"176feb5",59,1
"6126",0,1,298,4,1,1,"176feb5",60,1
"6224",1,1,669,1,1,1,"176feb5",61,1
"6322",0,1,362,1,3,1,"176feb5",62,1
"6422",1,1,510,4,4,1,"176feb5",63,1
"6522",0,1,412,6,1,1,"176feb5",64,1
"6622",1,1,346,3,3,1,"176feb5",65,1
"6722",0,1,783,2,1,1,"176feb5",66,1
"6822",1,1,349,3,3,1,"176feb5",67,1
"6922",1,1,422,2,2,1,"176feb5",68,1
"7022",0,1,714,1,4,1,"176feb5",69,1
"7126",1,1,926,1,1,1,"176feb5",70,1
"7223",1,1,1166,6,6,1,"176feb5",71,1
"7322",0,1,484,2,1,1,"176feb5",72,1
"7422",-1,-1,0,5,5,1,"176feb5",73,1
"7522",0,1,728,6,1,1,"176feb5",74,1
"7622",0,1,346,1,5,1,"176feb5",75,1
"7722",1,1,1272,4,4,1,"176feb5",76,1
"7822",0,1,961,1,3,1,"176feb5",77,1
"2107",1,1,882,3,3,3,"118d48d",1,1
"3107",1,1,581,6,6,3,"118d48d",2,1
"4107",1,1,603,1,1,3,"118d48d",3,1
"5107",0,1,1552,1,5,3,"118d48d",4,1
"6107",0,1,659,1,3,3,"118d48d",5,1
"798",0,1,946,1,2,3,"118d48d",6,1
"823",1,1,1357,2,2,3,"118d48d",7,1
"923",0,1,994,4,1,3,"118d48d",8,1
"1023",1,1,1053,5,5,3,"118d48d",9,1
"1123",0,1,481,6,1,3,"118d48d",10,1
"1223",1,1,366,4,4,3,"118d48d",11,1
"1323",1,1,418,4,4,3,"118d48d",12,1
"1423",1,1,502,6,6,3,"118d48d",13,1
"1523",1,1,446,2,2,3,"118d48d",14,1
"1623",0,1,589,4,1,3,"118d48d",15,1
"1723",0,1,437,1,3,3,"118d48d",16,1
"1823",1,1,378,1,1,3,"118d48d",17,1
"1923",1,1,430,5,5,3,"118d48d",18,1
"2023",0,1,1060,6,1,3,"118d48d",19,1
"2127",1,1,342,3,3,3,"118d48d",20,1
"2225",0,1,865,2,1,3,"118d48d",21,1
"2323",0,1,480,5,1,3,"118d48d",22,1
"2423",1,1,335,1,1,3,"118d48d",23,1
"2523",0,1,400,2,1,3,"118d48d",24,1
"2623",1,1,778,3,3,3,"118d48d",25,1
"2723",1,1,933,4,4,3,"118d48d",26,1
"2823",0,1,370,5,1,3,"118d48d",27,1
"2923",1,1,404,5,5,3,"118d48d",28,1
"3023",1,1,334,2,2,3,"118d48d",29,1
"3127",0,1,932,4,1,3,"118d48d",30,1
"3225",0,1,915,3,1,3,"118d48d",31,1
"3323",0,1,462,1,6,3,"118d48d",32,1
"3423",1,1,395,6,6,3,"118d48d",33,1
"3523",0,1,394,6,1,3,"118d48d",34,1
"3623",1,1,297,1,1,3,"118d48d",35,1
"3723",1,1,1352,6,6,3,"118d48d",36,1
"3823",0,1,359,4,1,3,"118d48d",37,1
"3923",0,1,341,5,1,3,"118d48d",38,1
"4023",1,1,408,3,3,3,"118d48d",39,1
"4127",1,1,383,2,2,3,"118d48d",40,1
"4225",1,1,658,5,5,3,"118d48d",41,1
"4323",1,1,937,4,4,3,"118d48d",42,1
"4423",0,1,702,2,1,3,"118d48d",43,1
"4523",0,1,363,1,3,3,"118d48d",44,1
"4623",0,1,1058,3,1,3,"118d48d",45,1
"4723",1,1,383,2,2,3,"118d48d",46,1
"4823",0,1,339,1,5,3,"118d48d",47,1
"4923",0,1,346,1,2,3,"118d48d",48,1
"5023",1,1,422,6,6,3,"118d48d",49,1
"5127",1,1,427,4,4,3,"118d48d",50,1
"5225",0,1,469,1,4,3,"118d48d",51,1
"5323",0,1,411,1,6,3,"118d48d",52,1
"5423",1,1,447,3,3,3,"118d48d",53,1
"5523",1,1,392,5,5,3,"118d48d",54,1
"5623",1,1,527,1,1,3,"118d48d",55,1
"5723",1,1,283,5,5,3,"118d48d",56,1
"5823",0,1,768,2,1,3,"118d48d",57,1
"5923",0,1,428,1,4,3,"118d48d",58,1
"6023",1,1,463,6,6,3,"118d48d",59,1
"6127",1,1,901,3,3,3,"118d48d",60,1
"6225",0,1,698,1,5,3,"118d48d",61,1
"6323",1,1,312,4,4,3,"118d48d",62,1
"6423",0,1,394,1,6,3,"118d48d",63,1
"6523",1,1,659,1,1,3,"118d48d",64,1
"6623",0,1,555,1,3,3,"118d48d",65,1
"6723",1,1,988,2,2,3,"118d48d",66,1
"6823",1,1,761,3,3,3,"118d48d",67,1
"6923",0,1,562,6,1,3,"118d48d",68,1
"7023",0,1,375,3,1,3,"118d48d",69,1
"7127",0,1,564,5,1,3,"118d48d",70,1
"7224",1,1,314,6,6,3,"118d48d",71,1
"7323",0,1,623,2,1,3,"118d48d",72,1
"7423",1,1,321,2,2,3,"118d48d",73,1
"7523",1,1,418,4,4,3,"118d48d",74,1
"7623",1,1,529,1,1,3,"118d48d",75,1
"7723",0,1,336,1,4,3,"118d48d",76,1
"7823",1,1,465,5,5,3,"118d48d",77,1
"2108",0,0,592,6,6,3,"13cd36f",1,1
"3108",1,1,442,5,5,3,"13cd36f",2,1
"4108",1,0,416,1,3,3,"13cd36f",3,1
"5108",0,1,427,1,4,3,"13cd36f",4,1
"6108",1,0,395,1,5,3,"13cd36f",5,1
"799",1,1,408,1,1,3,"13cd36f",6,1
"824",0,0,347,2,2,3,"13cd36f",7,1
"924",1,0,318,1,2,3,"13cd36f",8,1
"1024",1,0,293,1,6,3,"13cd36f",9,1
"1124",1,1,290,4,4,3,"13cd36f",10,1
"1224",1,1,289,3,3,3,"13cd36f",11,1
"1324",0,1,368,1,3,3,"13cd36f",12,1
"1424",1,1,366,3,3,3,"13cd36f",13,1
"1524",0,1,283,1,6,3,"13cd36f",14,1
"1624",1,1,576,6,6,3,"13cd36f",15,1
"1724",1,0,389,1,2,3,"13cd36f",16,1
"1824",1,1,347,4,4,3,"13cd36f",17,1
"1924",0,1,328,5,1,3,"13cd36f",18,1
"2024",1,1,534,1,1,3,"13cd36f",19,1
"2128",1,1,317,2,2,3,"13cd36f",20,1
"2226",1,0,325,4,1,3,"13cd36f",21,1
"2324",1,1,371,5,5,3,"13cd36f",22,1
"2424",1,0,280,1,2,3,"13cd36f",23,1
"2524",0,1,327,6,1,3,"13cd36f",24,1
"2624",0,1,364,1,4,3,"13cd36f",25,1
"2724",1,1,355,5,5,3,"13cd36f",26,1
"2824",1,1,341,6,6,3,"13cd36f",27,1
"2924",0,1,378,5,1,3,"13cd36f",28,1
"3024",1,1,432,4,4,3,"13cd36f",29,1
"3128",1,1,342,1,1,3,"13cd36f",30,1
"3226",1,1,309,3,3,3,"13cd36f",31,1
"3324",0,1,1009,3,1,3,"13cd36f",32,1
"3424",1,1,328,2,2,3,"13cd36f",33,1
"3524",1,1,357,4,4,3,"13cd36f",34,1
"3624",1,1,324,6,6,3,"13cd36f",35,1
"3724",1,1,322,3,3,3,"13cd36f",36,1
"3824",1,1,432,5,5,3,"13cd36f",37,1
"3924",0,1,391,4,1,3,"13cd36f",38,1
"4024",0,0,414,1,1,3,"13cd36f",39,1
"4128",1,0,293,2,1,3,"13cd36f",40,1
"4226",1,1,294,2,2,3,"13cd36f",41,1
"4324",0,1,430,5,1,3,"13cd36f",42,1
"4424",0,1,519,1,3,3,"13cd36f",43,1
"4524",0,1,341,1,6,3,"13cd36f",44,1
"4624",0,1,380,5,1,3,"13cd36f",45,1
"4724",1,1,1465,2,2,3,"13cd36f",46,1
"4824",1,0,542,2,1,3,"13cd36f",47,1
"4924",1,1,643,6,6,3,"13cd36f",48,1
"5024",1,1,754,3,3,3,"13cd36f",49,1
"5128",1,0,360,1,3,3,"13cd36f",50,1
"5226",0,0,1038,5,5,3,"13cd36f",51,1
"5324",1,1,329,4,4,3,"13cd36f",52,1
"5424",0,1,604,6,1,3,"13cd36f",53,1
"5524",1,0,305,1,4,3,"13cd36f",54,1
"5624",1,1,344,1,1,3,"13cd36f",55,1
"5724",0,1,487,1,5,3,"13cd36f",56,1
"5824",0,0,378,4,4,3,"13cd36f",57,1
"5924",1,1,569,5,5,3,"13cd36f",58,1
"6024",1,0,961,1,6,3,"13cd36f",59,1
"6128",1,1,356,3,3,3,"13cd36f",60,1
"6226",0,1,317,1,4,3,"13cd36f",61,1
"6324",0,1,780,2,1,3,"13cd36f",62,1
"6424",1,1,761,1,1,3,"13cd36f",63,1
"6524",1,1,369,6,6,3,"13cd36f",64,1
"6624",1,1,397,2,2,3,"13cd36f",65,1
"6724",0,1,522,3,1,3,"13cd36f",66,1
"6824",1,1,539,6,6,3,"13cd36f",67,1
"6924",1,0,352,1,3,3,"13cd36f",68,1
"7024",1,1,342,1,1,3,"13cd36f",69,1
"7128",0,0,752,3,3,3,"13cd36f",70,1
"7225",0,1,615,5,1,3,"13cd36f",71,1
"7324",1,0,416,1,2,3,"13cd36f",72,1
"7424",0,1,271,1,4,3,"13cd36f",73,1
"7524",1,1,438,2,2,3,"13cd36f",74,1
"7624",0,0,1121,4,4,3,"13cd36f",75,1
"7724",1,1,354,5,5,3,"13cd36f",76,1
"7824",0,1,389,6,1,3,"13cd36f",77,1
"2109",-1,-1,0,1,1,2,"118a007",1,1
"3109",1,1,1384,5,5,2,"118a007",2,1
"4109",1,0,514,1,2,2,"118a007",3,1
"5109",1,1,458,6,6,2,"118a007",4,1
"6109",0,1,353,1,5,2,"118a007",5,1
"7100",0,0,383,4,4,2,"118a007",6,1
"825",0,1,450,1,4,2,"118a007",7,1
"925",1,0,508,1,3,2,"118a007",8,1
"1025",1,1,333,3,3,2,"118a007",9,1
"1125",1,0,329,6,1,2,"118a007",10,1
"1225",1,1,335,2,2,2,"118a007",11,1
"1325",1,1,331,5,5,2,"118a007",12,1
"1425",1,1,435,6,6,2,"118a007",13,1
"1525",0,1,394,1,5,2,"118a007",14,1
"1625",1,1,404,3,3,2,"118a007",15,1
"1725",0,1,272,1,6,2,"118a007",16,1
"1825",0,0,692,4,4,2,"118a007",17,1
"1925",1,0,246,1,2,2,"118a007",18,1
"2025",1,1,456,2,2,2,"118a007",19,1
"2129",0,1,304,4,1,2,"118a007",20,1
"2227",0,1,195,3,1,2,"118a007",21,1
"2325",0,0,283,1,1,2,"118a007",22,1
"2425",0,1,309,4,1,2,"118a007",23,1
"2525",0,1,240,1,2,2,"118a007",24,1
"2625",1,1,372,1,1,2,"118a007",25,1
"2725",1,1,330,3,3,2,"118a007",26,1
"2825",0,1,355,1,5,2,"118a007",27,1
"2925",0,1,300,1,6,2,"118a007",28,1
"3025",1,1,335,5,5,2,"118a007",29,1
"3129",1,1,455,2,2,2,"118a007",30,1
"3227",0,1,310,1,3,2,"118a007",31,1
"3325",1,1,385,4,4,2,"118a007",32,1
"3425",1,1,81,6,6,2,"118a007",33,1
"3525",1,1,130,1,1,2,"118a007",34,1
"3625",0,1,370,4,1,2,"118a007",35,1
"3725",1,0,163,2,1,2,"118a007",36,1
"3825",0,0,402,3,3,2,"118a007",37,1
"3925",1,0,235,1,3,2,"118a007",38,1
"4025",1,1,115,4,4,2,"118a007",39,1
"4129",1,1,538,5,5,2,"118a007",40,1
"4227",0,0,170,2,2,2,"118a007",41,1
"4325",1,1,160,6,6,2,"118a007",42,1
"4425",0,1,339,1,6,2,"118a007",43,1
"4525",1,0,80,5,1,2,"118a007",44,1
"4625",1,1,96,1,1,2,"118a007",45,1
"4725",1,1,286,3,3,2,"118a007",46,1
"4825",0,1,338,6,1,2,"118a007",47,1
"4925",0,1,385,5,1,2,"118a007",48,1
"5025",1,0,150,1,4,2,"118a007",49,1
"5129",1,1,211,4,4,2,"118a007",50,1
"5227",1,1,210,2,2,2,"118a007",51,1
"5325",1,1,207,5,5,2,"118a007",52,1
"5425",0,1,66,3,1,2,"118a007",53,1
"5525",1,0,123,1,2,2,"118a007",54,1
"5625",1,1,52,6,6,2,"118a007",55,1
"5725",0,1,53,4,1,2,"118a007",56,1
"5825",1,0,122,3,1,2,"118a007",57,1
"5925",0,0,191,5,5,2,"118a007",58,1
"6025",1,1,494,3,3,2,"118a007",59,1
"6129",0,1,391,1,5,2,"118a007",60,1
"6227",1,1,130,2,2,2,"118a007",61,1
"6325",1,1,203,4,4,2,"118a007",62,1
"6425",1,1,363,1,1,2,"118a007",63,1
"6525",1,1,435,6,6,2,"118a007",64,1
"6625",0,1,213,1,6,2,"118a007",65,1
"6725",1,0,186,2,1,2,"118a007",66,1
"6825",1,1,287,3,3,2,"118a007",67,1
"6925",1,0,293,1,2,2,"118a007",68,1
"7025",0,1,378,1,6,2,"118a007",69,1
"7129",1,1,68,6,6,2,"118a007",70,1
"7226",1,0,173,1,3,2,"118a007",71,1
"7325",1,1,885,2,2,2,"118a007",72,1
"7425",1,1,104,1,1,2,"118a007",73,1
"7525",1,0,177,5,1,2,"118a007",74,1
"7625",0,1,420,1,4,2,"118a007",75,1
"7725",1,1,29,5,5,2,"118a007",76,1
"7825",1,1,94,4,4,2,"118a007",77,1
"2130",-1,-1,0,3,3,1,"1e5fe48",1,1
"3130",0,0,652,2,2,1,"1e5fe48",2,1
"4130",-1,-1,0,4,1,1,"1e5fe48",3,1
"5130",1,1,412,6,6,1,"1e5fe48",4,1
"6130",1,0,433,2,1,1,"1e5fe48",5,1
"7101",-1,-1,0,4,4,1,"1e5fe48",6,1
"826",0,0,469,1,1,1,"1e5fe48",7,1
"926",1,0,382,1,3,1,"1e5fe48",8,1
"1026",0,1,373,1,6,1,"1e5fe48",9,1
"1126",0,1,382,1,5,1,"1e5fe48",10,1
"1226",1,1,782,5,5,1,"1e5fe48",11,1
"1326",0,1,345,4,1,1,"1e5fe48",12,1
"1426",-1,-1,0,3,3,1,"1e5fe48",13,1
"1526",0,0,351,5,5,1,"1e5fe48",14,1
"1626",0,1,391,3,1,1,"1e5fe48",15,1
"1726",-1,-1,0,1,2,1,"1e5fe48",16,1
"1826",0,1,378,1,5,1,"1e5fe48",17,1
"1926",1,1,410,4,4,1,"1e5fe48",18,1
"2026",1,1,1244,2,2,1,"1e5fe48",19,1
"2131",1,0,965,1,6,1,"1e5fe48",20,1
"2228",-1,-1,0,1,1,1,"1e5fe48",21,1
"2326",1,1,760,6,6,1,"1e5fe48",22,1
"2426",0,1,760,4,1,1,"1e5fe48",23,1
"2526",0,0,641,1,1,1,"1e5fe48",24,1
"2626",-1,-1,0,1,6,1,"1e5fe48",25,1
"2726",1,1,932,3,3,1,"1e5fe48",26,1
"2826",-1,-1,0,5,5,1,"1e5fe48",27,1
"2926",1,1,1789,4,4,1,"1e5fe48",28,1
"3026",1,1,421,6,6,1,"1e5fe48",29,1
"3131",0,1,328,1,3,1,"1e5fe48",30,1
"3228",0,1,374,1,5,1,"1e5fe48",31,1
"3326",0,1,307,2,1,1,"1e5fe48",32,1
"3426",1,1,298,2,2,1,"1e5fe48",33,1
"3526",1,1,351,4,4,1,"1e5fe48",34,1
"3626",0,1,683,1,3,1,"1e5fe48",35,1
"3726",0,1,1068,6,1,1,"1e5fe48",36,1
"3826",1,1,914,5,5,1,"1e5fe48",37,1
"3926",0,1,359,2,1,1,"1e5fe48",38,1
"4026",1,1,337,2,2,1,"1e5fe48",39,1
"4131",1,1,345,3,3,1,"1e5fe48",40,1
"4228",1,1,307,1,1,1,"1e5fe48",41,1
"4326",0,1,587,5,1,1,"1e5fe48",42,1
"4426",0,1,345,4,1,1,"1e5fe48",43,1
"4526",1,1,496,6,6,1,"1e5fe48",44,1
"4626",0,1,363,1,6,1,"1e5fe48",45,1
"4726",1,1,1098,5,5,1,"1e5fe48",46,1
"4826",1,1,315,4,4,1,"1e5fe48",47,1
"4926",0,0,343,2,2,1,"1e5fe48",48,1
"5026",-1,-1,0,4,1,1,"1e5fe48",49,1
"5131",0,1,1822,2,1,1,"1e5fe48",50,1
"5228",1,0,751,3,1,1,"1e5fe48",51,1
"5326",-1,-1,0,1,1,1,"1e5fe48",52,1
"5426",1,0,959,1,5,1,"1e5fe48",53,1
"5526",1,1,361,6,6,1,"1e5fe48",54,1
"5626",-1,-1,0,3,3,1,"1e5fe48",55,1
"5726",1,0,279,5,1,1,"1e5fe48",56,1
"5826",1,0,603,2,1,1,"1e5fe48",57,1
"5926",1,0,802,6,1,1,"1e5fe48",58,1
"6026",1,1,345,1,1,1,"1e5fe48",59,1
"6131",0,1,288,3,1,1,"1e5fe48",60,1
"6228",1,0,400,4,1,1,"1e5fe48",61,1
"6326",-1,-1,0,4,4,1,"1e5fe48",62,1
"6426",1,1,458,5,5,1,"1e5fe48",63,1
"6526",1,1,491,2,2,1,"1e5fe48",64,1
"6626",0,0,583,3,3,1,"1e5fe48",65,1
"6726",1,1,559,6,6,1,"1e5fe48",66,1
"6826",1,1,317,2,2,1,"1e5fe48",67,1
"6926",0,1,329,1,2,1,"1e5fe48",68,1
"7026",0,1,524,5,1,1,"1e5fe48",69,1
"7130",0,0,302,4,4,1,"1e5fe48",70,1
"7227",1,1,372,5,5,1,"1e5fe48",71,1
"7326",0,0,451,3,3,1,"1e5fe48",72,1
"7426",0,1,438,1,4,1,"1e5fe48",73,1
"7526",0,1,702,6,1,1,"1e5fe48",74,1
"7626",1,1,497,6,6,1,"1e5fe48",75,1
"7726",1,0,742,1,3,1,"1e5fe48",76,1
"7826",1,1,351,1,1,1,"1e5fe48",77,1
"2132",1,1,783,5,5,2,"1c965df",1,1
"3132",0,1,710,6,1,2,"1c965df",2,1
"4132",1,1,340,1,1,2,"1c965df",3,1
"5132",0,1,371,1,2,2,"1c965df",4,1
"6132",1,1,525,4,4,2,"1c965df",5,1
"7102",1,1,305,6,6,2,"1c965df",6,1
"827",1,1,451,3,3,2,"1c965df",7,1
"927",1,0,491,1,5,2,"1c965df",8,1
"1027",1,0,499,4,1,2,"1c965df",9,1
"1127",1,1,587,2,2,2,"1c965df",10,1
"1227",1,0,405,3,1,2,"1c965df",11,1
"1327",1,1,376,2,2,2,"1c965df",12,1
"1427",1,0,258,1,2,2,"1c965df",13,1
"1527",0,0,559,1,1,2,"1c965df",14,1
"1627",1,1,339,4,4,2,"1c965df",15,1
"1727",0,1,338,4,1,2,"1c965df",16,1
"1827",0,1,327,1,6,2,"1c965df",17,1
"1927",0,0,257,3,3,2,"1c965df",18,1
"2027",1,1,407,6,6,2,"1c965df",19,1
"2133",1,1,345,5,5,2,"1c965df",20,1
"2229",0,1,445,3,1,2,"1c965df",21,1
"2327",0,1,332,1,5,2,"1c965df",22,1
"2427",1,0,530,1,6,2,"1c965df",23,1
"2527",0,0,282,3,3,2,"1c965df",24,1
"2627",1,1,253,6,6,2,"1c965df",25,1
"2727",0,1,302,3,1,2,"1c965df",26,1
"2827",0,1,883,1,4,2,"1c965df",27,1
"2927",1,1,416,4,4,2,"1c965df",28,1
"3027",1,1,277,5,5,2,"1c965df",29,1
"3133",1,1,319,1,1,2,"1c965df",30,1
"3229",0,1,608,1,5,2,"1c965df",31,1
"3327",1,1,310,2,2,2,"1c965df",32,1
"3427",1,0,292,2,1,2,"1c965df",33,1
"3527",1,0,357,2,1,2,"1c965df",34,1
"3627",1,1,151,4,4,2,"1c965df",35,1
"3727",0,0,288,1,1,2,"1c965df",36,1
"3827",1,1,466,6,6,2,"1c965df",37,1
"3927",0,0,185,5,5,2,"1c965df",38,1
"4027",0,1,348,1,6,2,"1c965df",39,1
"4133",0,1,348,1,5,2,"1c965df",40,1
"4229",0,1,285,1,3,2,"1c965df",41,1
"4327",1,1,689,2,2,2,"1c965df",42,1
"4427",1,1,285,3,3,2,"1c965df",43,1
"4527",0,1,517,4,1,2,"1c965df",44,1
"4627",0,1,567,1,6,2,"1c965df",45,1
"4727",0,1,396,1,3,2,"1c965df",46,1
"4827",0,1,572,1,4,2,"1c965df",47,1
"4927",0,1,415,5,1,2,"1c965df",48,1
"5027",0,0,312,3,3,2,"1c965df",49,1
"5133",1,1,264,1,1,2,"1c965df",50,1
"5229",1,1,263,4,4,2,"1c965df",51,1
"5327",1,1,267,6,6,2,"1c965df",52,1
"5427",0,0,170,2,2,2,"1c965df",53,1
"5527",0,1,613,1,2,2,"1c965df",54,1
"5627",0,0,244,5,5,2,"1c965df",55,1
"5727",1,1,323,2,2,2,"1c965df",56,1
"5827",0,1,119,1,6,2,"1c965df",57,1
"5927",1,1,124,5,5,2,"1c965df",58,1
"6027",1,1,542,3,3,2,"1c965df",59,1
"6133",1,1,495,1,1,2,"1c965df",60,1
"6229",0,1,551,1,4,2,"1c965df",61,1
"6327",0,1,422,5,1,2,"1c965df",62,1
"6427",1,1,352,6,6,2,"1c965df",63,1
"6527",1,0,402,2,1,2,"1c965df",64,1
"6627",0,0,476,4,4,2,"1c965df",65,1
"6727",0,1,262,3,1,2,"1c965df",66,1
"6827",1,1,571,6,6,2,"1c965df",67,1
"6927",1,1,290,4,4,2,"1c965df",68,1
"7027",0,1,432,1,2,2,"1c965df",69,1
"7131",1,1,242,2,2,2,"1c965df",70,1
"7228",0,0,218,5,5,2,"1c965df",71,1
"7327",0,1,523,1,5,2,"1c965df",72,1
"7427",0,1,264,6,1,2,"1c965df",73,1
"7527",0,1,295,4,1,2,"1c965df",74,1
"7627",1,1,364,3,3,2,"1c965df",75,1
"7727",0,1,117,3,1,2,"1c965df",76,1
"7827",1,1,602,1,1,2,"1c965df",77,1
"2134",-1,0,391,1,1,1,"1f931a2",1,2
"3134",-1,0,1209,1,4,1,"1f931a2",2,2
"4134",-1,0,97,1,2,1,"1f931a2",3,2
"5134",-1,0,42,3,3,1,"1f931a2",4,2
"6134",-1,0,226,5,5,1,"1f931a2",5,2
"7103",-1,0,89,5,1,1,"1f931a2",6,2
"828",1,1,291,4,4,1,"1f931a2",7,2
"928",1,1,260,6,6,1,"1f931a2",8,2
"1028",0,1,172,1,6,1,"1f931a2",9,2
"1128",0,0,720,2,2,1,"1f931a2",10,2
"1228",0,1,472,3,1,1,"1f931a2",11,2
"1328",1,1,274,2,2,1,"1f931a2",12,2
"1428",0,1,252,5,1,1,"1f931a2",13,2
"1528",1,1,251,1,1,1,"1f931a2",14,2
"1628",1,1,260,3,3,1,"1f931a2",15,2
"1728",0,0,260,6,6,1,"1f931a2",16,2
"1828",1,0,264,2,1,1,"1f931a2",17,2
"1928",0,1,426,6,1,1,"1f931a2",18,2
"2028",0,1,267,3,1,1,"1f931a2",19,2
"2135",1,1,220,4,4,1,"1f931a2",20,2
"2230",0,1,301,1,4,1,"1f931a2",21,2
"2328",1,1,246,5,5,1,"1f931a2",22,2
"2428",0,1,264,1,3,1,"1f931a2",23,2
"2528",1,1,284,5,5,1,"1f931a2",24,2
"2628",0,1,619,1,6,1,"1f931a2",25,2
"2728",1,1,1309,2,2,1,"1f931a2",26,2
"2828",0,0,68,4,4,1,"1f931a2",27,2
"2928",0,0,82,3,3,1,"1f931a2",28,2
"3028",0,1,802,1,5,1,"1f931a2",29,2
"3135",1,1,279,1,1,1,"1f931a2",30,2
"3230",0,1,874,1,4,1,"1f931a2",31,2
"3328",0,1,770,2,1,1,"1f931a2",32,2
"3428",1,1,513,6,6,1,"1f931a2",33,2
"3528",0,0,628,6,6,1,"1f931a2",34,2
"3628",0,0,774,3,3,1,"1f931a2",35,2
"3728",0,1,278,6,1,1,"1f931a2",36,2
"3828",1,0,254,1,2,1,"1f931a2",37,2
"3928",0,0,470,5,5,1,"1f931a2",38,2
"4028",1,0,122,4,1,1,"1f931a2",39,2
"4135",1,1,109,4,4,1,"1f931a2",40,2
"4230",0,1,196,1,5,1,"1f931a2",41,2
"4328",1,1,293,2,2,1,"1f931a2",42,2
"4428",0,1,495,1,3,1,"1f931a2",43,2
"4528",1,1,259,1,1,1,"1f931a2",44,2
"4628",0,1,277,1,2,1,"1f931a2",45,2
"4728",1,1,376,3,3,1,"1f931a2",46,2
"4828",0,0,352,6,6,1,"1f931a2",47,2
"4928",1,0,248,1,3,1,"1f931a2",48,2
"5028",0,0,278,4,4,1,"1f931a2",49,2
"5135",0,1,311,1,4,1,"1f931a2",50,2
"5230",0,1,168,6,1,1,"1f931a2",51,2
"5328",1,1,310,1,1,1,"1f931a2",52,2
"5428",0,1,360,5,1,1,"1f931a2",53,2
"5528",1,1,930,2,2,1,"1f931a2",54,2
"5628",0,0,406,5,5,1,"1f931a2",55,2
"5728",-1,-1,0,4,4,1,"1f931a2",56,2
"5828",1,1,312,6,6,1,"1f931a2",57,2
"5928",0,0,402,1,1,1,"1f931a2",58,2
"6028",1,0,164,1,3,1,"1f931a2",59,2
"6135",0,1,270,1,6,1,"1f931a2",60,2
"6230",1,1,535,5,5,1,"1f931a2",61,2
"6328",0,0,442,3,3,1,"1f931a2",62,2
"6428",0,1,402,1,5,1,"1f931a2",63,2
"6528",1,1,212,2,2,1,"1f931a2",64,2
"6628",0,1,404,4,1,1,"1f931a2",65,2
"6728",0,1,573,1,2,1,"1f931a2",66,2
"6828",1,0,358,3,1,1,"1f931a2",67,2
"6928",1,1,258,6,6,1,"1f931a2",68,2
"7028",0,1,410,1,5,1,"1f931a2",69,2
"7132",1,0,229,1,4,1,"1f931a2",70,2
"7229",0,0,424,3,3,1,"1f931a2",71,2
"7328",0,1,321,1,6,1,"1f931a2",72,2
"7428",1,1,529,5,5,1,"1f931a2",73,2
"7528",-1,-1,0,4,4,1,"1f931a2",74,2
"7628",1,1,389,2,2,1,"1f931a2",75,2
"7728",1,0,591,2,1,1,"1f931a2",76,2
"7828",0,0,223,1,1,1,"1f931a2",77,2
"2136",0,1,308,5,1,3,"161dd02",1,2
"3136",1,1,378,6,6,3,"161dd02",2,2
"4136",0,1,467,1,4,3,"161dd02",3,2
"5136",1,1,1049,4,4,3,"161dd02",4,2
"6136",0,1,293,1,2,3,"161dd02",5,2
"7104",1,1,531,1,1,3,"161dd02",6,2
"829",0,1,541,1,6,3,"161dd02",7,2
"929",1,1,327,5,5,3,"161dd02",8,2
"1029",1,1,367,3,3,3,"161dd02",9,2
"1129",0,1,295,3,1,3,"161dd02",10,2
"1229",1,1,348,2,2,3,"161dd02",11,2
"1329",1,1,332,5,5,3,"161dd02",12,2
"1429",1,1,320,3,3,3,"161dd02",13,2
"1529",0,1,388,2,1,3,"161dd02",14,2
"1629",0,1,313,6,1,3,"161dd02",15,2
"1729",0,1,623,1,3,3,"161dd02",16,2
"1829",1,1,532,6,6,3,"161dd02",17,2
"1929",0,1,316,1,4,3,"161dd02",18,2
"2029",0,1,272,5,1,3,"161dd02",19,2
"2137",1,1,382,1,1,3,"161dd02",20,2
"2231",1,1,556,4,4,3,"161dd02",21,2
"2329",1,1,364,2,2,3,"161dd02",22,2
"2429",0,1,327,1,3,3,"161dd02",23,2
"2529",0,1,628,1,4,3,"161dd02",24,2
"2629",1,1,343,4,4,3,"161dd02",25,2
"2729",1,1,318,2,2,3,"161dd02",26,2
"2829",1,1,352,5,5,3,"161dd02",27,2
"2929",0,1,498,1,2,3,"161dd02",28,2
"3029",1,1,560,3,3,3,"161dd02",29,2
"3137",1,1,297,1,1,3,"161dd02",30,2
"3231",0,1,528,1,6,3,"161dd02",31,2
"3329",0,1,364,1,5,3,"161dd02",32,2
"3429",1,1,444,6,6,3,"161dd02",33,2
"3529",1,1,346,4,4,3,"161dd02",34,2
"3629",0,1,253,1,3,3,"161dd02",35,2
"3729",1,1,328,5,5,3,"161dd02",36,2
"3829",0,1,648,1,5,3,"161dd02",37,2
"3929",0,1,348,6,1,3,"161dd02",38,2
"4029",1,1,287,3,3,3,"161dd02",39,2
"4137",1,1,662,2,2,3,"161dd02",40,2
"4231",1,1,554,1,1,3,"161dd02",41,2
"4329",0,1,754,1,4,3,"161dd02",42,2
"4429",1,1,259,6,6,3,"161dd02",43,2
"4529",0,1,313,1,2,3,"161dd02",44,2
"4629",1,1,341,5,5,3,"161dd02",45,2
"4729",1,1,330,4,4,3,"161dd02",46,2
"4829",0,1,255,1,2,3,"161dd02",47,2
"4929",0,1,367,6,1,3,"161dd02",48,2
"5029",1,1,395,3,3,3,"161dd02",49,2
"5137",0,1,357,1,3,3,"161dd02",50,2
"5231",1,1,286,1,1,3,"161dd02",51,2
"5329",0,1,306,5,1,3,"161dd02",52,2
"5429",1,1,325,6,6,3,"161dd02",53,2
"5529",1,1,556,2,2,3,"161dd02",54,2
"5629",0,1,271,1,4,3,"161dd02",55,2
"5729",1,1,241,1,1,3,"161dd02",56,2
"5829",0,1,270,4,1,3,"161dd02",57,2
"5929",1,1,289,5,5,3,"161dd02",58,2
"6029",1,1,267,4,4,3,"161dd02",59,2
"6137",1,1,285,2,2,3,"161dd02",60,2
"6231",1,1,295,3,3,3,"161dd02",61,2
"6329",0,1,260,3,1,3,"161dd02",62,2
"6429",0,1,285,1,5,3,"161dd02",63,2
"6529",0,1,347,1,2,3,"161dd02",64,2
"6629",1,1,373,6,6,3,"161dd02",65,2
"6729",0,1,345,1,6,3,"161dd02",66,2
"6829",1,1,221,1,1,3,"161dd02",67,2
"6929",1,1,318,4,4,3,"161dd02",68,2
"7029",0,1,245,5,1,3,"161dd02",69,2
"7133",0,1,278,1,3,3,"161dd02",70,2
"7230",1,1,343,6,6,3,"161dd02",71,2
"7329",0,1,482,2,1,3,"161dd02",72,2
"7429",1,1,277,5,5,3,"161dd02",73,2
"7529",1,1,297,3,3,3,"161dd02",74,2
"7629",0,1,446,1,4,3,"161dd02",75,2
"7729",0,1,353,6,1,3,"161dd02",76,2
"7829",1,1,283,2,2,3,"161dd02",77,2
"2138",1,1,286,6,6,1,"1b9c78e",1,2
"3138",1,1,368,4,4,1,"1b9c78e",2,2
"4138",0,1,402,1,3,1,"1b9c78e",3,2
"5138",0,1,413,1,6,1,"1b9c78e",4,2
"6138",1,1,237,3,3,1,"1b9c78e",5,2
"7105",1,1,380,2,2,1,"1b9c78e",6,2
"830",1,0,292,1,2,1,"1b9c78e",7,2
"930",1,1,631,5,5,1,"1b9c78e",8,2
"1030",1,1,263,1,1,1,"1b9c78e",9,2
"1130",0,1,417,1,5,1,"1b9c78e",10,2
"1230",0,1,441,4,1,1,"1b9c78e",11,2
"1330",1,1,570,6,6,1,"1b9c78e",12,2
"1430",0,1,789,5,1,1,"1b9c78e",13,2
"1530",1,1,363,4,4,1,"1b9c78e",14,2
"1630",1,1,284,3,3,1,"1b9c78e",15,2
"1730",0,1,355,4,1,1,"1b9c78e",16,2
"1830",0,1,351,1,2,1,"1b9c78e",17,2
"1930",1,1,347,2,2,1,"1b9c78e",18,2
"2030",0,1,343,1,6,1,"1b9c78e",19,2
"2139",0,1,289,3,1,1,"1b9c78e",20,2
"2232",1,1,408,5,5,1,"1b9c78e",21,2
"2330",1,1,405,1,1,1,"1b9c78e",22,2
"2430",1,0,397,2,1,1,"1b9c78e",23,2
"2530",0,1,292,1,5,1,"1b9c78e",24,2
"2630",1,1,353,6,6,1,"1b9c78e",25,2
"2730",1,1,640,5,5,1,"1b9c78e",26,2
"2830",0,1,510,1,6,1,"1b9c78e",27,2
"2930",1,1,737,3,3,1,"1b9c78e",28,2
"3030",1,1,452,4,4,1,"1b9c78e",29,2
"3139",0,1,327,1,3,1,"1b9c78e",30,2
"3232",1,1,462,2,2,1,"1b9c78e",31,2
"3330",0,1,473,1,4,1,"1b9c78e",32,2
"3430",1,1,444,1,1,1,"1b9c78e",33,2
"3530",0,1,273,1,3,1,"1b9c78e",34,2
"3630",1,1,364,3,3,1,"1b9c78e",35,2
"3730",0,1,382,1,6,1,"1b9c78e",36,2
"3830",1,1,427,1,1,1,"1b9c78e",37,2
"3930",1,1,590,4,4,1,"1b9c78e",38,2
"4030",0,1,600,1,5,1,"1b9c78e",39,2
"4139",1,0,324,2,1,1,"1b9c78e",40,2
"4232",1,1,491,5,5,1,"1b9c78e",41,2
"4330",1,1,611,6,6,1,"1b9c78e",42,2
"4430",0,1,644,4,1,1,"1b9c78e",43,2
"4530",1,1,534,2,2,1,"1b9c78e",44,2
"4630",0,1,531,1,6,1,"1b9c78e",45,2
"4730",1,1,435,5,5,1,"1b9c78e",46,2
"4830",1,0,332,1,2,1,"1b9c78e",47,2
"4930",1,1,367,3,3,1,"1b9c78e",48,2
"5030",1,1,496,2,2,1,"1b9c78e",49,2
"5139",1,1,393,6,6,1,"1b9c78e",50,2
"5232",1,1,509,1,1,1,"1b9c78e",51,2
"5330",0,1,282,1,3,1,"1b9c78e",52,2
"5430",0,1,577,1,4,1,"1b9c78e",53,2
"5530",1,1,681,4,4,1,"1b9c78e",54,2
"5630",0,1,841,5,1,1,"1b9c78e",55,2
"5730",0,1,572,1,6,1,"1b9c78e",56,2
"5830",1,1,412,3,3,1,"1b9c78e",57,2
"5930",1,1,351,2,2,1,"1b9c78e",58,2
"6030",1,1,430,1,1,1,"1b9c78e",59,2
"6139",1,1,686,4,4,1,"1b9c78e",60,2
"6232",1,1,313,6,6,1,"1b9c78e",61,2
"6330",1,1,630,5,5,1,"1b9c78e",62,2
"6430",0,1,321,5,1,1,"1b9c78e",63,2
"6530",1,0,368,3,1,1,"1b9c78e",64,2
"6630",0,1,333,1,2,1,"1b9c78e",65,2
"6730",0,1,510,4,1,1,"1b9c78e",66,2
"6830",0,1,565,5,1,1,"1b9c78e",67,2
"6930",1,1,362,5,5,1,"1b9c78e",68,2
"7030",0,1,283,1,2,1,"1b9c78e",69,2
"7134",0,1,325,3,1,1,"1b9c78e",70,2
"7231",1,1,358,4,4,1,"1b9c78e",71,2
"7330",1,1,544,6,6,1,"1b9c78e",72,2
"7430",1,1,582,2,2,1,"1b9c78e",73,2
"7530",1,1,312,1,1,1,"1b9c78e",74,2
"7630",0,1,397,1,6,1,"1b9c78e",75,2
"7730",1,1,308,3,3,1,"1b9c78e",76,2
"7830",1,0,369,1,4,1,"1b9c78e",77,2
"2140",1,1,414,2,2,3,"1b87947",1,2
"3140",1,1,403,3,3,3,"1b87947",2,2
"4140",1,1,264,5,5,3,"1b87947",3,2
"5140",0,1,363,5,1,3,"1b87947",4,2
"6140",1,1,433,4,4,3,"1b87947",5,2
"7106",0,1,262,4,1,3,"1b87947",6,2
"831",1,1,364,6,6,3,"1b87947",7,2
"931",0,1,464,1,6,3,"1b87947",8,2
"1031",1,1,1078,1,1,3,"1b87947",9,2
"1131",0,1,267,1,3,3,"1b87947",10,2
"1231",0,1,305,1,2,3,"1b87947",11,2
"1331",0,1,293,1,2,3,"1b87947",12,2
"1431",0,1,236,1,4,3,"1b87947",13,2
"1531",1,1,275,3,3,3,"1b87947",14,2
"1631",0,1,150,1,5,3,"1b87947",15,2
"1731",0,1,140,1,3,3,"1b87947",16,2
"1831",0,1,258,6,1,3,"1b87947",17,2
"1931",1,1,232,1,1,3,"1b87947",18,2
"2031",1,1,527,4,4,3,"1b87947",19,2
"2141",1,1,341,6,6,3,"1b87947",20,2
"2233",1,1,411,2,2,3,"1b87947",21,2
"2331",1,1,402,5,5,3,"1b87947",22,2
"2431",0,1,279,1,2,3,"1b87947",23,2
"2531",1,1,318,3,3,3,"1b87947",24,2
"2631",0,1,340,5,1,3,"1b87947",25,2
"2731",1,1,305,4,4,3,"1b87947",26,2
"2831",1,1,321,6,6,3,"1b87947",27,2
"2931",0,1,342,4,1,3,"1b87947",28,2
"3031",0,1,443,3,1,3,"1b87947",29,2
"3141",1,1,337,1,1,3,"1b87947",30,2
"3233",0,1,279,1,6,3,"1b87947",31,2
"3331",1,1,268,2,2,3,"1b87947",32,2
"3431",1,1,274,5,5,3,"1b87947",33,2
"3531",0,1,326,1,6,3,"1b87947",34,2
"3631",0,1,253,4,1,3,"1b87947",35,2
"3731",0,1,306,1,2,3,"1b87947",36,2
"3831",1,1,328,4,4,3,"1b87947",37,2
"3931",0,1,269,1,3,3,"1b87947",38,2
"4031",1,1,308,2,2,3,"1b87947",39,2
"4141",0,1,282,1,5,3,"1b87947",40,2
"4233",1,1,335,6,6,3,"1b87947",41,2
"4331",1,1,438,5,5,3,"1b87947",42,2
"4431",1,1,413,3,3,3,"1b87947",43,2
"4531",1,1,338,1,1,3,"1b87947",44,2
"4631",0,1,249,1,3,3,"1b87947",45,2
"4731",1,1,78,6,6,3,"1b87947",46,2
"4831",0,1,244,1,4,3,"1b87947",47,2
"4931",1,1,330,2,2,3,"1b87947",48,2
"5031",0,1,256,5,1,3,"1b87947",49,2
"5141",0,1,293,1,6,3,"1b87947",50,2
"5233",1,1,331,5,5,3,"1b87947",51,2
"5331",0,1,368,2,1,3,"1b87947",52,2
"5431",1,1,230,1,1,3,"1b87947",53,2
"5531",1,1,334,3,3,3,"1b87947",54,2
"5631",1,1,421,4,4,3,"1b87947",55,2
"5731",1,1,379,5,5,3,"1b87947",56,2
"5831",1,0,303,2,1,3,"1b87947",57,2
"5931",1,1,22,1,1,3,"1b87947",58,2
"6031",1,1,283,6,6,3,"1b87947",59,2
"6141",0,1,290,3,1,3,"1b87947",60,2
"6233",1,1,312,4,4,3,"1b87947",61,2
"6331",1,1,174,2,2,3,"1b87947",62,2
"6431",0,1,244,6,1,3,"1b87947",63,2
"6531",0,1,265,1,4,3,"1b87947",64,2
"6631",1,1,256,3,3,3,"1b87947",65,2
"6731",0,1,85,5,1,3,"1b87947",66,2
"6831",1,1,283,3,3,3,"1b87947",67,2
"6931",0,1,224,2,1,3,"1b87947",68,2
"7031",1,1,359,5,5,3,"1b87947",69,2
"7135",0,1,380,1,3,3,"1b87947",70,2
"7232",0,1,337,6,1,3,"1b87947",71,2
"7331",1,1,248,4,4,3,"1b87947",72,2
"7431",1,1,207,6,6,3,"1b87947",73,2
"7531",1,1,245,1,1,3,"1b87947",74,2
"7631",0,1,187,1,5,3,"1b87947",75,2
"7731",0,1,95,4,1,3,"1b87947",76,2
"7831",1,1,325,2,2,3,"1b87947",77,2
"2142",1,1,271,4,4,1,"11b15d7",1,2
"3142",0,1,96,3,1,1,"11b15d7",2,2
"4142",0,1,942,4,1,1,"11b15d7",3,2
"5142",1,1,224,2,2,1,"11b15d7",4,2
"6142",1,1,332,5,5,1,"11b15d7",5,2
"7107",0,1,378,1,2,1,"11b15d7",6,2
"832",1,1,292,3,3,1,"11b15d7",7,2
"932",1,1,174,1,1,1,"11b15d7",8,2
"1032",0,1,400,1,6,1,"11b15d7",9,2
"1132",1,1,233,6,6,1,"11b15d7",10,2
"1232",0,1,1281,5,1,1,"11b15d7",11,2
"1332",1,0,345,1,2,1,"11b15d7",12,2
"1432",1,1,95,1,1,1,"11b15d7",13,2
"1532",1,1,1249,5,5,1,"11b15d7",14,2
"1632",1,1,482,6,6,1,"11b15d7",15,2
"1732",1,1,386,2,2,1,"11b15d7",16,2
"1832",1,1,242,4,4,1,"11b15d7",17,2
"1932",0,1,571,1,5,1,"11b15d7",18,2
"2032",0,1,441,4,1,1,"11b15d7",19,2
"2143",0,1,396,1,6,1,"11b15d7",20,2
"2234",0,1,274,1,3,1,"11b15d7",21,2
"2332",1,1,108,3,3,1,"11b15d7",22,2
"2432",1,1,57,5,5,1,"11b15d7",23,2
"2532",1,1,21,1,1,1,"11b15d7",24,2
"2632",1,0,63,2,1,1,"11b15d7",25,2
"2732",0,1,330,5,1,1,"11b15d7",26,2
"2832",1,1,231,6,6,1,"11b15d7",27,2
"2932",0,1,283,6,1,1,"11b15d7",28,2
"3032",1,1,25,2,2,1,"11b15d7",29,2
"3143",0,1,392,1,4,1,"11b15d7",30,2
"3234",1,0,476,1,3,1,"11b15d7",31,2
"3332",1,1,383,3,3,1,"11b15d7",32,2
"3432",1,1,54,4,4,1,"11b15d7",33,2
"3532",1,1,454,5,5,1,"11b15d7",34,2
"3632",1,1,145,2,2,1,"11b15d7",35,2
"3732",0,1,106,4,1,1,"11b15d7",36,2
"3832",-1,-1,0,1,3,1,"11b15d7",37,2
"3932",0,0,587,3,3,1,"11b15d7",38,2
"4032",1,1,170,4,4,1,"11b15d7",39,2
"4143",1,1,118,6,6,1,"11b15d7",40,2
"4234",0,1,311,6,1,1,"11b15d7",41,2
"4332",1,1,46,1,1,1,"11b15d7",42,2
"4432",1,0,78,1,2,1,"11b15d7",43,2
"4532",0,1,309,5,1,1,"11b15d7",44,2
"4632",1,1,431,4,4,1,"11b15d7",45,2
"4732",1,1,245,2,2,1,"11b15d7",46,2
"4832",1,1,313,6,6,1,"11b15d7",47,2
"4932",0,1,210,4,1,1,"11b15d7",48,2
"5032",0,1,299,1,3,1,"11b15d7",49,2
"5143",1,0,302,1,2,1,"11b15d7",50,2
"5234",0,1,770,1,6,1,"11b15d7",51,2
"5332",0,1,1144,5,1,1,"11b15d7",52,2
"5432",-1,-1,0,3,3,1,"11b15d7",53,2
"5532",1,1,299,5,5,1,"11b15d7",54,2
"5632",1,1,175,1,1,1,"11b15d7",55,2
"5732",1,1,44,2,2,1,"11b15d7",56,2
"5832",1,1,277,3,3,1,"11b15d7",57,2
"5932",1,1,347,6,6,1,"11b15d7",58,2
"6032",1,1,231,4,4,1,"11b15d7",59,2
"6143",0,1,342,6,1,1,"11b15d7",60,2
"6234",0,0,875,1,1,1,"11b15d7",61,2
"6332",1,1,269,5,5,1,"11b15d7",62,2
"6432",0,1,358,1,5,1,"11b15d7",63,2
"6532",1,0,308,2,1,1,"11b15d7",64,2
"6632",0,1,1121,4,1,1,"11b15d7",65,2
"6732",0,1,495,3,1,1,"11b15d7",66,2
"6832",0,1,117,4,1,1,"11b15d7",67,2
"6932",0,1,299,1,5,1,"11b15d7",68,2
"7032",0,1,485,1,3,1,"11b15d7",69,2
"7136",1,1,56,3,3,1,"11b15d7",70,2
"7233",1,1,348,2,2,1,"11b15d7",71,2
"7332",1,1,366,1,1,1,"11b15d7",72,2
"7432",0,0,330,5,5,1,"11b15d7",73,2
"7532",0,1,36,6,1,1,"11b15d7",74,2
"7632",1,1,338,6,6,1,"11b15d7",75,2
"7732",1,1,474,4,4,1,"11b15d7",76,2
"7832",0,1,159,1,2,1,"11b15d7",77,2
"2144",1,0,1156,1,4,1,"1d2f220",1,2
"3144",-1,-1,0,2,2,1,"1d2f220",2,2
"4144",0,1,398,1,3,1,"1d2f220",3,2
"5144",-1,-1,0,1,1,1,"1d2f220",4,2
"6144",0,0,415,4,4,1,"1d2f220",5,2
"7108",-1,-1,0,3,3,1,"1d2f220",6,2
"833",0,1,210,1,2,1,"1d2f220",7,2
"933",-1,-1,0,1,5,1,"1d2f220",8,2
"1033",1,1,336,6,6,1,"1d2f220",9,2
"1133",-1,-1,0,6,1,1,"1d2f220",10,2
"1233",1,1,318,5,5,1,"1d2f220",11,2
"1333",-1,-1,0,4,4,1,"1d2f220",12,2
"1433",0,1,726,3,1,1,"1d2f220",13,2
"1533",-1,-1,0,1,1,1,"1d2f220",14,2
"1633",1,1,373,3,3,1,"1d2f220",15,2
"1733",-1,-1,0,6,6,1,"1d2f220",16,2
"1833",0,0,525,2,2,1,"1d2f220",17,2
"1933",-1,-1,0,6,1,1,"1d2f220",18,2
"2033",0,1,362,1,5,1,"1d2f220",19,2
"2145",-1,-1,0,1,4,1,"1d2f220",20,2
"2235",1,1,342,5,5,1,"1d2f220",21,2
"2333",-1,-1,0,2,1,1,"1d2f220",22,2
"2433",0,1,216,1,2,1,"1d2f220",23,2
"2533",-1,-1,0,6,6,1,"1d2f220",24,2
"2633",0,1,364,4,1,1,"1d2f220",25,2
"2733",-1,-1,0,3,3,1,"1d2f220",26,2
"2833",1,1,219,1,1,1,"1d2f220",27,2
"2933",-1,-1,0,5,5,1,"1d2f220",28,2
"3033",0,1,229,6,1,1,"1d2f220",29,2
"3145",-1,-1,0,3,1,1,"1d2f220",30,2
"3235",1,0,278,5,1,1,"1d2f220",31,2
"3333",-1,-1,0,2,2,1,"1d2f220",32,2
"3433",1,1,245,4,4,1,"1d2f220",33,2
"3533",-1,-1,0,1,6,1,"1d2f220",34,2
"3633",0,1,281,1,2,1,"1d2f220",35,2
"3733",-1,-1,0,1,1,1,"1d2f220",36,2
"3833",1,1,168,4,4,1,"1d2f220",37,2
"3933",-1,-1,0,2,2,1,"1d2f220",38,2
"4033",0,1,368,1,4,1,"1d2f220",39,2
"4145",-1,-1,0,1,3,1,"1d2f220",40,2
"4235",1,1,254,5,5,1,"1d2f220",41,2
"4333",-1,-1,0,1,5,1,"1d2f220",42,2
"4433",1,1,369,3,3,1,"1d2f220",43,2
"4533",-1,-1,0,6,6,1,"1d2f220",44,2
"4633",1,1,527,2,2,1,"1d2f220",45,2
"4733",-1,-1,0,6,6,1,"1d2f220",46,2
"4833",0,1,179,1,3,1,"1d2f220",47,2
"4933",-1,-1,0,1,2,1,"1d2f220",48,2
"5033",0,1,241,6,1,1,"1d2f220",49,2
"5145",-1,-1,0,1,4,1,"1d2f220",50,2
"5235",1,1,107,3,3,1,"1d2f220",51,2
"5333",-1,-1,0,5,5,1,"1d2f220",52,2
"5433",1,1,227,1,1,1,"1d2f220",53,2
"5533",-1,-1,0,1,5,1,"1d2f220",54,2
"5633",1,1,355,4,4,1,"1d2f220",55,2
"5733",-1,-1,0,1,3,1,"1d2f220",56,2
"5833",1,1,311,4,4,1,"1d2f220",57,2
"5933",-1,-1,0,3,3,1,"1d2f220",58,2
"6033",1,0,500,2,1,1,"1d2f220",59,2
"6145",-1,-1,0,2,2,1,"1d2f220",60,2
"6235",1,1,342,5,5,1,"1d2f220",61,2
"6333",-1,-1,0,1,1,1,"1d2f220",62,2
"6433",0,1,157,1,4,1,"1d2f220",63,2
"6533",-1,-1,0,6,6,1,"1d2f220",64,2
"6633",0,1,383,1,5,1,"1d2f220",65,2
"6733",-1,-1,0,1,6,1,"1d2f220",66,2
"6833",1,1,230,1,1,1,"1d2f220",67,2
"6933",-1,-1,0,1,5,1,"1d2f220",68,2
"7033",0,1,218,1,6,1,"1d2f220",69,2
"7137",-1,-1,0,6,6,1,"1d2f220",70,2
"7234",0,1,243,2,1,1,"1d2f220",71,2
"7333",-1,-1,0,5,5,1,"1d2f220",72,2
"7433",1,1,197,4,4,1,"1d2f220",73,2
"7533",-1,-1,0,4,1,1,"1d2f220",74,2
"7633",1,1,336,3,3,1,"1d2f220",75,2
"7733",-1,-1,0,2,2,1,"1d2f220",76,2
"7833",0,1,305,3,1,1,"1d2f220",77,2
"2146",0,0,262,1,1,2,"1ff6494",1,2
"3146",1,1,262,4,4,2,"1ff6494",2,2
"4146",1,1,435,6,6,2,"1ff6494",3,2
"5146",0,1,478,1,6,2,"1ff6494",4,2
"6146",0,1,305,2,1,2,"1ff6494",5,2
"7109",0,1,365,4,1,2,"1ff6494",6,2
"834",1,1,282,3,3,2,"1ff6494",7,2
"934",1,1,261,5,5,2,"1ff6494",8,2
"1034",0,1,400,3,1,2,"1ff6494",9,2
"1134",0,1,393,5,1,2,"1ff6494",10,2
"1234",1,1,353,2,2,2,"1ff6494",11,2
"1334",0,1,628,3,1,2,"1ff6494",12,2
"1434",1,1,382,3,3,2,"1ff6494",13,2
"1534",0,1,367,2,1,2,"1ff6494",14,2
"1634",0,1,335,1,6,2,"1ff6494",15,2
"1734",1,1,497,4,4,2,"1ff6494",16,2
"1834",1,1,374,6,6,2,"1ff6494",17,2
"1934",1,1,564,1,1,2,"1ff6494",18,2
"2034",0,1,411,1,5,2,"1ff6494",19,2
"2147",1,1,326,2,2,2,"1ff6494",20,2
"2236",1,1,298,5,5,2,"1ff6494",21,2
"2334",0,1,330,4,1,2,"1ff6494",22,2
"2434",0,1,343,3,1,2,"1ff6494",23,2
"2534",1,1,273,3,3,2,"1ff6494",24,2
"2634",0,1,288,1,2,2,"1ff6494",25,2
"2734",0,1,578,1,4,2,"1ff6494",26,2
"2834",0,1,286,5,1,2,"1ff6494",27,2
"2934",1,1,362,5,5,2,"1ff6494",28,2
"3034",1,1,386,2,2,2,"1ff6494",29,2
"3147",1,1,319,4,4,2,"1ff6494",30,2
"3236",1,1,343,6,6,2,"1ff6494",31,2
"3334",1,1,631,1,1,2,"1ff6494",32,2
"3434",0,1,435,1,6,2,"1ff6494",33,2
"3534",1,1,282,6,6,2,"1ff6494",34,2
"3634",1,1,409,3,3,2,"1ff6494",35,2
"3734",0,1,547,5,1,2,"1ff6494",36,2
"3834",0,1,348,1,4,2,"1ff6494",37,2
"3934",1,1,333,4,4,2,"1ff6494",38,2
"4034",0,1,311,1,6,2,"1ff6494",39,2
"4147",0,1,289,2,1,2,"1ff6494",40,2
"4236",1,1,358,5,5,2,"1ff6494",41,2
"4334",0,1,525,1,3,2,"1ff6494",42,2
"4434",1,1,341,2,2,2,"1ff6494",43,2
"4534",1,1,332,1,1,2,"1ff6494",44,2
"4634",0,1,311,2,1,2,"1ff6494",45,2
"4734",0,1,769,1,5,2,"1ff6494",46,2
"4834",1,1,433,6,6,2,"1ff6494",47,2
"4934",1,1,290,4,4,2,"1ff6494",48,2
"5034",1,1,388,3,3,2,"1ff6494",49,2
"5147",1,1,303,2,2,2,"1ff6494",50,2
"5236",1,1,494,5,5,2,"1ff6494",51,2
"5334",0,1,339,1,3,2,"1ff6494",52,2
"5434",0,1,359,1,4,2,"1ff6494",53,2
"5534",0,1,696,1,6,2,"1ff6494",54,2
"5634",1,1,481,1,1,2,"1ff6494",55,2
"5734",1,1,712,6,6,2,"1ff6494",56,2
"5834",1,0,306,1,2,2,"1ff6494",57,2
"5934",1,1,390,5,5,2,"1ff6494",58,2
"6034",0,1,774,1,5,2,"1ff6494",59,2
"6147",1,1,317,3,3,2,"1ff6494",60,2
"6236",0,1,528,6,1,2,"1ff6494",61,2
"6334",0,1,500,1,3,2,"1ff6494",62,2
"6434",1,1,312,4,4,2,"1ff6494",63,2
"6534",1,1,280,1,1,2,"1ff6494",64,2
"6634",0,1,555,4,1,2,"1ff6494",65,2
"6734",1,1,406,2,2,2,"1ff6494",66,2
"6834",1,1,276,4,4,2,"1ff6494",67,2
"6934",1,1,348,3,3,2,"1ff6494",68,2
"7034",1,1,861,5,5,2,"1ff6494",69,2
"7138",1,1,598,1,1,2,"1ff6494",70,2
"7235",1,1,327,2,2,2,"1ff6494",71,2
"7334",0,1,287,6,1,2,"1ff6494",72,2
"7434",0,1,531,4,1,2,"1ff6494",73,2
"7534",0,1,327,3,1,2,"1ff6494",74,2
"7634",0,1,416,5,1,2,"1ff6494",75,2
"7734",1,1,508,6,6,2,"1ff6494",76,2
"7834",0,1,418,1,2,2,"1ff6494",77,2
"2148",1,1,249,4,4,3,"b4a8d6e",1,2
"3148",0,1,255,1,3,3,"b4a8d6e",2,2
"4148",1,1,224,1,1,3,"b4a8d6e",3,2
"5148",1,1,238,5,5,3,"b4a8d6e",4,2
"6148",0,1,318,6,1,3,"b4a8d6e",5,2
"7139",1,1,244,3,3,3,"b4a8d6e",6,2
"835",0,1,228,4,1,3,"b4a8d6e",7,2
"935",1,1,274,6,6,3,"b4a8d6e",8,2
"1035",0,1,264,2,1,3,"b4a8d6e",9,2
"1135",0,1,327,1,5,3,"b4a8d6e",10,2
"1235",1,1,209,2,2,3,"b4a8d6e",11,2
"1335",0,1,300,3,1,3,"b4a8d6e",12,2
"1435",0,1,346,6,1,3,"b4a8d6e",13,2
"1535",1,1,226,3,3,3,"b4a8d6e",14,2
"1635",1,1,205,1,1,3,"b4a8d6e",15,2
"1735",0,1,227,5,1,3,"b4a8d6e",16,2
"1835",0,1,295,4,1,3,"b4a8d6e",17,2
"1935",1,1,226,4,4,3,"b4a8d6e",18,2
"2035",1,1,253,2,2,3,"b4a8d6e",19,2
"2149",0,1,283,1,2,3,"b4a8d6e",20,2
"2237",1,1,249,6,6,3,"b4a8d6e",21,2
"2335",1,1,212,5,5,3,"b4a8d6e",22,2
"2435",0,1,303,6,1,3,"b4a8d6e",23,2
"2535",1,1,302,4,4,3,"b4a8d6e",24,2
"2635",0,1,315,1,3,3,"b4a8d6e",25,2
"2735",1,1,248,1,1,3,"b4a8d6e",26,2
"2835",1,1,225,3,3,3,"b4a8d6e",27,2
"2935",1,1,224,2,2,3,"b4a8d6e",28,2
"3035",0,1,264,2,1,3,"b4a8d6e",29,2
"3149",1,1,239,5,5,3,"b4a8d6e",30,2
"3237",1,1,234,6,6,3,"b4a8d6e",31,2
"3335",0,1,353,1,4,3,"b4a8d6e",32,2
"3435",0,1,214,5,1,3,"b4a8d6e",33,2
"3535",0,0,258,1,1,3,"b4a8d6e",34,2
"3635",0,1,390,5,1,3,"b4a8d6e",35,2
"3735",0,1,282,4,1,3,"b4a8d6e",36,2
"3835",0,1,302,1,6,3,"b4a8d6e",37,2
"3935",1,1,212,6,6,3,"b4a8d6e",38,2
"4035",1,0,242,1,2,3,"b4a8d6e",39,2
"4149",0,1,231,1,3,3,"b4a8d6e",40,2
"4237",1,1,249,4,4,3,"b4a8d6e",41,2
"4335",1,1,263,3,3,3,"b4a8d6e",42,2
"4435",1,1,230,2,2,3,"b4a8d6e",43,2
"4535",1,1,237,5,5,3,"b4a8d6e",44,2
"4635",0,1,385,5,1,3,"b4a8d6e",45,2
"4735",1,1,240,6,6,3,"b4a8d6e",46,2
"4835",0,1,203,4,1,3,"b4a8d6e",47,2
"4935",1,1,273,4,4,3,"b4a8d6e",48,2
"5035",1,1,337,1,1,3,"b4a8d6e",49,2
"5149",0,1,247,1,2,3,"b4a8d6e",50,2
"5237",0,1,237,3,1,3,"b4a8d6e",51,2
"5335",1,1,256,5,5,3,"b4a8d6e",52,2
"5435",1,1,235,2,2,3,"b4a8d6e",53,2
"5535",0,1,293,1,6,3,"b4a8d6e",54,2
"5635",0,0,231,3,3,3,"b4a8d6e",55,2
"5735",1,1,303,3,3,3,"b4a8d6e",56,2
"5835",0,1,340,4,1,3,"b4a8d6e",57,2
"5935",1,1,248,1,1,3,"b4a8d6e",58,2
"6035",1,1,258,2,2,3,"b4a8d6e",59,2
"6149",0,1,274,1,2,3,"b4a8d6e",60,2
"6237",0,0,233,4,4,3,"b4a8d6e",61,2
"6335",0,1,304,6,1,3,"b4a8d6e",62,2
"6435",1,0,205,3,1,3,"b4a8d6e",63,2
"6535",1,1,229,6,6,3,"b4a8d6e",64,2
"6635",0,1,271,5,1,3,"b4a8d6e",65,2
"6735",1,1,285,5,5,3,"b4a8d6e",66,2
"6835",0,1,269,1,5,3,"b4a8d6e",67,2
"6935",0,1,218,1,2,3,"b4a8d6e",68,2
"7035",1,1,311,3,3,3,"b4a8d6e",69,2
"7140",0,1,220,6,1,3,"b4a8d6e",70,2
"7236",1,1,248,2,2,3,"b4a8d6e",71,2
"7335",1,1,291,1,1,3,"b4a8d6e",72,2
"7435",1,1,237,6,6,3,"b4a8d6e",73,2
"7535",0,1,253,1,4,3,"b4a8d6e",74,2
"7635",1,1,258,5,5,3,"b4a8d6e",75,2
"7735",0,1,243,1,3,3,"b4a8d6e",76,2
"7835",1,1,242,4,4,3,"b4a8d6e",77,2
"2150",0,0,297,1,1,3,"136284a",1,2
"3150",1,1,247,5,5,3,"136284a",2,2
"4150",0,1,252,6,1,3,"136284a",3,2
"5150",1,0,283,2,1,3,"136284a",4,2
"6150",1,1,207,6,6,3,"136284a",5,2
"7141",1,1,330,3,3,3,"136284a",6,2
"836",0,1,298,4,1,3,"136284a",7,2
"936",1,1,334,2,2,3,"136284a",8,2
"1036",1,1,258,4,4,3,"136284a",9,2
"1136",0,1,347,5,1,3,"136284a",10,2
"1236",1,0,253,3,1,3,"136284a",11,2
"1336",1,1,211,2,2,3,"136284a",12,2
"1436",1,0,189,4,1,3,"136284a",13,2
"1536",0,0,240,1,1,3,"136284a",14,2
"1636",0,1,336,3,1,3,"136284a",15,2
"1736",1,1,112,5,5,3,"136284a",16,2
"1836",0,1,296,5,1,3,"136284a",17,2
"1936",1,1,422,4,4,3,"136284a",18,2
"2036",0,0,196,3,3,3,"136284a",19,2
"2151",0,0,237,6,6,3,"136284a",20,2
"2238",1,0,230,1,2,3,"136284a",21,2
"2336",1,0,264,6,1,3,"136284a",22,2
"2436",0,1,1145,1,4,3,"136284a",23,2
"2536",0,0,216,2,2,3,"136284a",24,2
"2636",1,1,212,4,4,3,"136284a",25,2
"2736",1,1,215,3,3,3,"136284a",26,2
"2836",1,1,209,5,5,3,"136284a",27,2
"2936",1,1,192,6,6,3,"136284a",28,2
"3036",0,1,232,1,3,3,"136284a",29,2
"3151",1,0,211,2,1,3,"136284a",30,2
"3238",1,1,223,1,1,3,"136284a",31,2
"3336",1,0,251,1,5,3,"136284a",32,2
"3436",1,0,195,1,6,3,"136284a",33,2
"3536",1,0,236,4,1,3,"136284a",34,2
"3636",1,0,231,5,1,3,"136284a",35,2
"3736",1,0,274,1,2,3,"136284a",36,2
