"","keys","accuracy","rt","Fimg","Simg","feature_index","subID","trialNum","run"
"2",1,1,564,5,5,1,"1119c1a",1,1
"3",0,0,586,3,3,1,"1119c1a",2,1
"4",1,1,241,4,4,1,"1119c1a",3,1
"5",1,1,355,1,1,1,"1119c1a",4,1
"6",1,1,283,2,2,1,"1119c1a",5,1
"7",0,1,532,4,1,1,"1119c1a",6,1
"8",1,0,247,6,1,1,"1119c1a",7,1
"9",1,0,262,1,2,1,"1119c1a",8,1
"10",1,0,327,3,1,1,"1119c1a",9,1
"11",0,1,442,1,5,1,"1119c1a",10,1
"12",1,1,491,6,6,1,"1119c1a",11,1
"13",1,1,1405,3,3,1,"1119c1a",12,1
"14",0,0,742,2,2,1,"1119c1a",13,1
"15",-1,-1,0,6,6,1,"1119c1a",14,1
"16",1,1,324,5,5,1,"1119c1a",15,1
"17",0,1,616,1,2,1,"1119c1a",16,1
"18",1,1,407,4,4,1,"1119c1a",17,1
"19",0,1,311,4,1,1,"1119c1a",18,1
"20",1,0,159,3,1,1,"1119c1a",19,1
"21",1,0,504,1,5,1,"1119c1a",20,1
"22",0,1,406,1,6,1,"1119c1a",21,1
"23",1,1,434,1,1,1,"1119c1a",22,1
"24",1,1,327,6,6,1,"1119c1a",23,1
"25",0,1,817,1,2,1,"1119c1a",24,1
"26",1,1,728,1,1,1,"1119c1a",25,1
"27",1,0,486,3,1,1,"1119c1a",26,1
"28",0,0,559,2,2,1,"1119c1a",27,1
"29",1,0,412,4,1,1,"1119c1a",28,1
"30",1,1,426,4,4,1,"1119c1a",29,1
"31",0,0,1012,5,5,1,"1119c1a",30,1
"32",-1,-1,0,5,1,1,"1119c1a",31,1
"33",0,0,398,3,3,1,"1119c1a",32,1
"34",1,0,207,1,6,1,"1119c1a",33,1
"35",1,0,513,1,2,1,"1119c1a",34,1
"36",0,1,400,4,1,1,"1119c1a",35,1
"37",0,1,210,6,1,1,"1119c1a",36,1
"38",1,1,257,3,3,1,"1119c1a",37,1
"39",1,1,97,5,5,1,"1119c1a",38,1
"40",1,1,369,1,1,1,"1119c1a",39,1
"41",1,1,675,4,4,1,"1119c1a",40,1
"42",1,1,269,6,6,1,"1119c1a",41,1
"43",1,0,475,1,5,1,"1119c1a",42,1
"44",0,0,653,2,2,1,"1119c1a",43,1
"45",0,1,627,3,1,1,"1119c1a",44,1
"46",1,0,420,3,1,1,"1119c1a",45,1
"47",1,1,370,4,4,1,"1119c1a",46,1
"48",1,1,657,6,6,1,"1119c1a",47,1
"49",0,1,306,6,1,1,"1119c1a",48,1
"50",1,0,502,1,5,1,"1119c1a",49,1
"51",1,1,1248,3,3,1,"1119c1a",50,1
"52",1,1,160,2,2,1,"1119c1a",51,1
"53",1,0,528,2,1,1,"1119c1a",52,1
"54",0,0,1842,1,1,1,"1119c1a",53,1
"55",1,1,536,5,5,1,"1119c1a",54,1
"56",1,0,1043,4,1,1,"1119c1a",55,1
"57",1,1,424,2,2,1,"1119c1a",56,1
"58",1,1,393,6,6,1,"1119c1a",57,1
"59",1,0,433,2,1,1,"1119c1a",58,1
"60",0,1,618,1,5,1,"1119c1a",59,1
"61",1,1,258,4,4,1,"1119c1a",60,1
"62",0,1,585,1,3,1,"1119c1a",61,1
"63",1,1,446,5,5,1,"1119c1a",62,1
"64",1,0,517,1,6,1,"1119c1a",63,1
"65",1,0,356,1,4,1,"1119c1a",64,1
"66",1,1,613,1,1,1,"1119c1a",65,1
"67",1,1,763,3,3,1,"1119c1a",66,1
"68",1,1,437,4,4,1,"1119c1a",67,1
"69",1,1,1388,3,3,1,"1119c1a",68,1
"70",0,0,1164,6,6,1,"1119c1a",69,1
"71",1,0,317,1,4,1,"1119c1a",70,1
"72",0,1,470,1,6,1,"1119c1a",71,1
"73",1,0,1780,1,5,1,"1119c1a",72,1
"74",1,1,650,1,1,1,"1119c1a",73,1
"75",-1,-1,0,1,2,1,"1119c1a",74,1
"76",0,0,536,2,2,1,"1119c1a",75,1
"77",1,0,590,3,1,1,"1119c1a",76,1
"78",1,1,409,5,5,1,"1119c1a",77,1
"210",-1,0,1864,5,5,3,"13599c4",1,1
"310",-1,0,1457,1,1,3,"13599c4",2,1
"410",-1,-1,0,1,6,3,"13599c4",3,1
"510",-1,0,1304,2,2,3,"13599c4",4,1
"610",-1,0,1289,3,1,3,"13599c4",5,1
"710",-1,-1,0,6,6,3,"13599c4",6,1
"81",-1,0,1682,3,3,3,"13599c4",7,1
"91",-1,0,333,5,1,3,"13599c4",8,1
"101",-1,-1,0,4,4,3,"13599c4",9,1
"111",-1,0,1388,1,2,3,"13599c4",10,1
"121",-1,-1,0,4,1,3,"13599c4",11,1
"131",-1,-1,0,3,3,3,"13599c4",12,1
"141",-1,0,1953,6,6,3,"13599c4",13,1
"151",-1,-1,0,5,5,3,"13599c4",14,1
"161",-1,-1,0,1,2,3,"13599c4",15,1
"171",-1,-1,0,1,5,3,"13599c4",16,1
"181",-1,-1,0,4,4,3,"13599c4",17,1
"191",-1,0,1284,1,1,3,"13599c4",18,1
"201",-1,-1,0,4,1,3,"13599c4",19,1
"211",-1,-1,0,1,3,3,"13599c4",20,1
"221",-1,-1,0,6,1,3,"13599c4",21,1
"231",-1,-1,0,2,2,3,"13599c4",22,1
"241",-1,-1,0,2,2,3,"13599c4",23,1
"251",-1,-1,0,1,1,3,"13599c4",24,1
"261",-1,-1,0,1,5,3,"13599c4",25,1
"271",-1,-1,0,6,1,3,"13599c4",26,1
"281",-1,-1,0,5,5,3,"13599c4",27,1
"291",-1,-1,0,1,3,3,"13599c4",28,1
"301",-1,-1,0,1,4,3,"13599c4",29,1
"311",-1,-1,0,2,1,3,"13599c4",30,1
"321",-1,-1,0,3,3,3,"13599c4",31,1
"331",-1,-1,0,4,4,3,"13599c4",32,1
"341",-1,-1,0,6,6,3,"13599c4",33,1
"351",-1,-1,0,6,6,3,"13599c4",34,1
"361",-1,-1,0,1,6,3,"13599c4",35,1
"371",-1,-1,0,5,5,3,"13599c4",36,1
"381",-1,-1,0,1,3,3,"13599c4",37,1
"391",-1,-1,0,2,2,3,"13599c4",38,1
"401",-1,-1,0,5,1,3,"13599c4",39,1
"411",-1,-1,0,3,3,3,"13599c4",40,1
"421",-1,-1,0,4,1,3,"13599c4",41,1
"431",-1,-1,0,2,1,3,"13599c4",42,1
"441",-1,0,729,1,1,3,"13599c4",43,1
"451",-1,-1,0,4,4,3,"13599c4",44,1
"461",-1,0,726,3,1,3,"13599c4",45,1
"471",-1,0,508,1,1,3,"13599c4",46,1
"481",-1,-1,0,1,4,3,"13599c4",47,1
"491",-1,-1,0,5,5,3,"13599c4",48,1
"501",-1,-1,0,6,6,3,"13599c4",49,1
"511",-1,-1,0,4,4,3,"13599c4",50,1
"521",-1,NA,NA,NA,NA,NA,"13599c4",51,1
"531",0,2,2,3,NA,NA,"13599c4",52,1
"541",-1,-1,0,2,1,3,"13599c4",53,1
"551",-1,-1,0,5,1,3,"13599c4",54,1
"561",-1,-1,0,6,1,3,"13599c4",55,1
"571",-1,-1,0,3,3,3,"13599c4",56,1
"581",-1,-1,0,4,4,3,"13599c4",57,1
"591",-1,-1,0,1,5,3,"13599c4",58,1
"601",-1,-1,0,1,1,3,"13599c4",59,1
"611",-1,-1,0,2,1,3,"13599c4",60,1
"621",-1,-1,0,6,6,3,"13599c4",61,1
"631",-1,-1,0,3,1,3,"13599c4",62,1
"641",-1,-1,0,2,2,3,"13599c4",63,1
"651",-1,-1,0,5,5,3,"13599c4",64,1
"661",-1,-1,0,1,6,3,"13599c4",65,1
"671",-1,-1,0,4,1,3,"13599c4",66,1
"681",-1,-1,0,3,3,3,"13599c4",67,1
"691",-1,-1,0,5,5,3,"13599c4",68,1
"701",-1,-1,0,1,2,3,"13599c4",69,1
"711",-1,-1,0,4,4,3,"13599c4",70,1
"721",-1,-1,0,1,1,3,"13599c4",71,1
"731",-1,-1,0,1,5,3,"13599c4",72,1
"741",-1,-1,0,2,2,3,"13599c4",73,1
"751",-1,-1,0,1,6,3,"13599c4",74,1
"761",-1,-1,0,3,3,3,"13599c4",75,1
"771",-1,-1,0,1,4,3,"13599c4",76,1
"781",-1,-1,0,6,6,3,"13599c4",77,1
"79",-1,-1,0,1,3,3,"13599c4",78,1
"212",1,1,675,6,6,2,"1ae267d",1,1
"312",1,0,322,1,6,2,"1ae267d",2,1
"412",1,0,276,3,1,2,"1ae267d",3,1
"512",1,0,342,5,1,2,"1ae267d",4,1
"612",0,0,303,1,1,2,"1ae267d",5,1
"712",1,1,353,2,2,2,"1ae267d",6,1
"82",1,1,307,5,5,2,"1ae267d",7,1
"92",0,0,316,3,3,2,"1ae267d",8,1
"102",0,1,292,1,4,2,"1ae267d",9,1
"112",0,1,295,2,1,2,"1ae267d",10,1
"122",1,1,304,4,4,2,"1ae267d",11,1
"132",1,1,57,3,3,2,"1ae267d",12,1
"142",0,1,306,1,6,2,"1ae267d",13,1
"152",1,0,260,1,2,2,"1ae267d",14,1
"162",1,1,277,1,1,2,"1ae267d",15,1
"172",1,0,47,4,1,2,"1ae267d",16,1
"182",1,1,113,4,4,2,"1ae267d",17,1
"192",1,0,106,1,3,2,"1ae267d",18,1
"202",1,1,59,2,2,2,"1ae267d",19,1
"213",0,1,115,1,5,2,"1ae267d",20,1
"222",1,1,420,6,6,2,"1ae267d",21,1
"232",1,1,247,5,5,2,"1ae267d",22,1
"242",0,0,375,2,2,2,"1ae267d",23,1
"252",0,1,210,5,1,2,"1ae267d",24,1
"262",1,0,244,1,4,2,"1ae267d",25,1
"272",1,0,158,1,2,2,"1ae267d",26,1
"282",1,1,95,3,3,2,"1ae267d",27,1
"292",1,0,167,6,1,2,"1ae267d",28,1
"302",1,1,233,5,5,2,"1ae267d",29,1
"313",0,0,259,4,4,2,"1ae267d",30,1
"322",0,1,179,3,1,2,"1ae267d",31,1
"332",1,1,36,6,6,2,"1ae267d",32,1
"342",1,1,14,1,1,2,"1ae267d",33,1
"352",1,1,152,3,3,2,"1ae267d",34,1
"362",0,0,433,4,4,2,"1ae267d",35,1
"372",0,1,82,4,1,2,"1ae267d",36,1
"382",1,1,52,2,2,2,"1ae267d",37,1
"392",0,1,181,1,5,2,"1ae267d",38,1
"402",1,1,207,5,5,2,"1ae267d",39,1
"413",1,1,311,1,1,2,"1ae267d",40,1
"422",0,1,249,1,2,2,"1ae267d",41,1
"432",1,1,163,6,6,2,"1ae267d",42,1
"442",0,1,188,1,6,2,"1ae267d",43,1
"452",0,1,244,1,3,2,"1ae267d",44,1
"462",0,1,238,1,2,2,"1ae267d",45,1
"472",1,1,169,4,4,2,"1ae267d",46,1
"482",1,1,194,6,6,2,"1ae267d",47,1
"492",1,1,243,3,3,2,"1ae267d",48,1
"502",0,1,133,3,1,2,"1ae267d",49,1
"513",1,1,214,1,1,2,"1ae267d",50,1
"522",0,1,239,6,1,2,"1ae267d",51,1
"532",0,1,226,1,5,2,"1ae267d",52,1
"542",1,1,84,2,2,2,"1ae267d",53,1
"552",0,1,254,4,1,2,"1ae267d",54,1
"562",1,1,222,5,5,2,"1ae267d",55,1
"572",1,1,95,2,2,2,"1ae267d",56,1
"582",0,1,249,1,4,2,"1ae267d",57,1
"592",1,1,210,1,1,2,"1ae267d",58,1
"602",1,1,203,4,4,2,"1ae267d",59,1
"613",0,1,301,1,5,2,"1ae267d",60,1
"622",1,1,295,5,5,2,"1ae267d",61,1
"632",1,1,128,3,3,2,"1ae267d",62,1
"642",0,1,210,6,1,2,"1ae267d",63,1
"652",0,1,260,2,1,2,"1ae267d",64,1
"662",0,1,332,1,3,2,"1ae267d",65,1
"672",1,1,277,6,6,2,"1ae267d",66,1
"682",1,1,263,2,2,2,"1ae267d",67,1
"692",1,1,176,4,4,2,"1ae267d",68,1
"702",1,1,147,5,5,2,"1ae267d",69,1
"713",0,1,229,5,1,2,"1ae267d",70,1
"722",1,1,318,1,1,2,"1ae267d",71,1
"732",0,1,183,4,1,2,"1ae267d",72,1
"742",0,1,258,3,1,2,"1ae267d",73,1
"752",1,1,281,6,6,2,"1ae267d",74,1
"762",0,1,268,1,2,2,"1ae267d",75,1
"772",1,1,85,3,3,2,"1ae267d",76,1
"782",0,1,174,1,6,2,"1ae267d",77,1
"214",1,1,644,6,6,3,"174f263",1,1
"314",1,0,863,1,6,3,"174f263",2,1
"414",1,1,401,2,2,3,"174f263",3,1
"514",1,0,367,1,3,3,"174f263",4,1
"614",0,0,310,1,1,3,"174f263",5,1
"714",1,0,304,1,2,3,"174f263",6,1
"83",1,1,273,3,3,3,"174f263",7,1
"93",0,1,9,4,1,3,"174f263",8,1
"103",0,0,333,5,5,3,"174f263",9,1
"113",1,1,249,4,4,3,"174f263",10,1
"123",1,0,143,5,1,3,"174f263",11,1
"133",0,1,388,1,2,3,"174f263",12,1
"143",0,0,265,4,4,3,"174f263",13,1
"153",0,0,284,3,3,3,"174f263",14,1
"163",0,1,257,4,1,3,"174f263",15,1
"173",0,0,268,2,2,3,"174f263",16,1
"183",1,0,227,5,1,3,"174f263",17,1
"193",1,1,291,1,1,3,"174f263",18,1
"203",1,0,366,1,6,3,"174f263",19,1
"215",0,1,1021,3,1,3,"174f263",20,1
"223",1,1,310,5,5,3,"174f263",21,1
"233",1,1,258,6,6,3,"174f263",22,1
"243",1,1,261,1,1,3,"174f263",23,1
"253",0,0,253,3,3,3,"174f263",24,1
"263",1,0,294,4,1,3,"174f263",25,1
"273",0,1,275,3,1,3,"174f263",26,1
"283",-1,-1,0,1,5,3,"174f263",27,1
"293",0,1,388,6,1,3,"174f263",28,1
"303",1,0,249,2,1,3,"174f263",29,1
"315",1,1,333,4,4,3,"174f263",30,1
"323",1,1,482,5,5,3,"174f263",31,1
"333",1,1,234,6,6,3,"174f263",32,1
"343",1,1,266,2,2,3,"174f263",33,1
"353",1,1,285,3,3,3,"174f263",34,1
"363",1,0,224,1,3,3,"174f263",35,1
"373",0,1,189,4,1,3,"174f263",36,1
"383",0,1,236,1,2,3,"174f263",37,1
"393",0,0,208,6,6,3,"174f263",38,1
"403",1,0,270,5,1,3,"174f263",39,1
"415",1,0,234,1,6,3,"174f263",40,1
"423",0,0,197,1,1,3,"174f263",41,1
"433",0,0,1322,4,4,3,"174f263",42,1
"443",1,1,1947,5,5,3,"174f263",43,1
"453",0,0,305,2,2,3,"174f263",44,1
"463",1,1,293,5,5,3,"174f263",45,1
"473",1,0,322,1,6,3,"174f263",46,1
"483",1,0,646,1,3,3,"174f263",47,1
"493",1,1,361,4,4,3,"174f263",48,1
"503",0,0,545,1,1,3,"174f263",49,1
"515",1,0,305,1,4,3,"174f263",50,1
"523",1,1,1960,6,6,3,"174f263",51,1
"533",0,1,362,1,5,3,"174f263",52,1
"543",0,1,310,2,1,3,"174f263",53,1
"553",0,0,271,3,3,3,"174f263",54,1
"563",1,1,388,2,2,3,"174f263",55,1
"573",1,0,300,1,2,3,"174f263",56,1
"583",1,1,251,1,1,3,"174f263",57,1
"593",0,0,159,5,5,3,"174f263",58,1
"603",0,0,302,4,4,3,"174f263",59,1
"615",0,1,398,5,1,3,"174f263",60,1
"623",1,0,373,1,4,3,"174f263",61,1
"633",1,1,344,6,6,3,"174f263",62,1
"643",0,1,59,6,1,3,"174f263",63,1
"653",0,0,229,2,2,3,"174f263",64,1
"663",1,1,531,3,3,3,"174f263",65,1
"673",0,1,239,1,3,3,"174f263",66,1
"683",1,1,314,5,5,3,"174f263",67,1
"693",0,1,276,1,6,3,"174f263",68,1
"703",0,1,231,1,3,3,"174f263",69,1
"715",1,1,417,1,1,3,"174f263",70,1
"723",1,1,259,3,3,3,"174f263",71,1
"733",0,1,818,5,1,3,"174f263",72,1
"743",0,1,275,2,1,3,"174f263",73,1
"753",0,1,83,1,4,3,"174f263",74,1
"763",1,1,395,2,2,3,"174f263",75,1
"773",1,1,175,6,6,3,"174f263",76,1
"783",1,1,185,4,4,3,"174f263",77,1
"216",0,1,818,1,6,1,"6b47f38",1,1
"316",0,1,418,1,5,1,"6b47f38",2,1
"416",1,1,270,5,5,1,"6b47f38",3,1
"516",1,0,222,1,3,1,"6b47f38",4,1
"616",1,0,393,1,2,1,"6b47f38",5,1
"716",1,1,346,6,6,1,"6b47f38",6,1
"84",1,1,365,2,2,1,"6b47f38",7,1
"94",0,1,375,4,1,1,"6b47f38",8,1
"104",1,1,272,4,4,1,"6b47f38",9,1
"114",0,0,185,3,3,1,"6b47f38",10,1
"124",1,1,90,1,1,1,"6b47f38",11,1
"134",1,1,214,2,2,1,"6b47f38",12,1
"144",0,1,439,3,1,1,"6b47f38",13,1
"154",1,1,194,6,6,1,"6b47f38",14,1
"164",0,1,187,5,1,1,"6b47f38",15,1
"174",1,1,725,1,1,1,"6b47f38",16,1
"184",1,1,1038,3,3,1,"6b47f38",17,1
"194",0,1,329,6,1,1,"6b47f38",18,1
"204",1,1,66,4,4,1,"6b47f38",19,1
"217",0,1,45,4,1,1,"6b47f38",20,1
"224",1,0,1128,2,1,1,"6b47f38",21,1
"234",1,1,383,5,5,1,"6b47f38",22,1
"244",0,1,347,4,1,1,"6b47f38",23,1
"254",1,1,325,1,1,1,"6b47f38",24,1
"264",0,1,951,1,6,1,"6b47f38",25,1
"274",0,1,416,1,5,1,"6b47f38",26,1
"284",1,1,548,6,6,1,"6b47f38",27,1
"294",1,1,557,4,4,1,"6b47f38",28,1
"304",1,0,303,1,2,1,"6b47f38",29,1
"317",1,1,216,5,5,1,"6b47f38",30,1
"324",1,1,243,3,3,1,"6b47f38",31,1
"334",1,1,324,2,2,1,"6b47f38",32,1
"344",0,1,767,1,3,1,"6b47f38",33,1
"354",1,1,258,3,3,1,"6b47f38",34,1
"364",1,1,243,6,6,1,"6b47f38",35,1
"374",1,1,437,2,2,1,"6b47f38",36,1
"384",0,1,255,4,1,1,"6b47f38",37,1
"394",0,1,265,1,6,1,"6b47f38",38,1
"404",1,1,371,5,5,1,"6b47f38",39,1
"417",0,1,358,1,5,1,"6b47f38",40,1
"424",1,1,334,4,4,1,"6b47f38",41,1
"434",-1,-1,0,2,1,1,"6b47f38",42,1
"444",0,1,537,3,1,1,"6b47f38",43,1
"454",1,1,28,1,1,1,"6b47f38",44,1
"464",1,1,366,3,3,1,"6b47f38",45,1
"474",1,1,720,6,6,1,"6b47f38",46,1
"484",1,0,603,5,1,1,"6b47f38",47,1
"494",0,1,403,1,6,1,"6b47f38",48,1
"504",1,0,885,2,1,1,"6b47f38",49,1
"517",0,1,767,4,1,1,"6b47f38",50,1
"524",0,0,489,1,1,1,"6b47f38",51,1
"534",1,1,899,5,5,1,"6b47f38",52,1
"544",1,1,317,4,4,1,"6b47f38",53,1
"554",1,0,455,3,1,1,"6b47f38",54,1
"564",0,0,258,2,2,1,"6b47f38",55,1
"574",0,1,268,1,5,1,"6b47f38",56,1
"584",0,1,1710,3,1,1,"6b47f38",57,1
"594",1,1,57,5,5,1,"6b47f38",58,1
"604",1,1,698,4,4,1,"6b47f38",59,1
"617",0,0,492,3,3,1,"6b47f38",60,1
"624",1,1,542,1,1,1,"6b47f38",61,1
"634",1,1,425,6,6,1,"6b47f38",62,1
"644",0,1,513,6,1,1,"6b47f38",63,1
"654",1,0,411,1,2,1,"6b47f38",64,1
"664",0,1,1861,4,1,1,"6b47f38",65,1
"674",1,1,159,2,2,1,"6b47f38",66,1
"684",0,1,1793,1,2,1,"6b47f38",67,1
"694",1,1,1805,5,5,1,"6b47f38",68,1
"704",1,1,1950,4,4,1,"6b47f38",69,1
"717",0,1,1977,3,1,1,"6b47f38",70,1
"724",1,1,194,3,3,1,"6b47f38",71,1
"734",0,1,356,6,1,1,"6b47f38",72,1
"744",1,1,462,1,1,1,"6b47f38",73,1
"754",1,1,1925,6,6,1,"6b47f38",74,1
"764",0,1,432,1,5,1,"6b47f38",75,1
"774",1,1,420,2,2,1,"6b47f38",76,1
"784",-1,0,318,4,1,1,"6b47f38",77,1
"218",1,1,785,1,1,3,"10438bd",1,1
"318",1,1,375,4,4,3,"10438bd",2,1
"418",1,0,467,1,3,3,"10438bd",3,1
"518",1,0,397,6,1,3,"10438bd",4,1
"618",1,0,266,1,4,3,"10438bd",5,1
"718",1,0,397,2,1,3,"10438bd",6,1
"85",0,0,410,6,6,3,"10438bd",7,1
"95",0,0,378,2,2,3,"10438bd",8,1
"105",1,0,512,1,5,3,"10438bd",9,1
"115",1,1,308,5,5,3,"10438bd",10,1
"125",0,0,511,3,3,3,"10438bd",11,1
"135",1,0,375,1,4,3,"10438bd",12,1
"145",1,1,599,2,2,3,"10438bd",13,1
"155",0,0,363,1,1,3,"10438bd",14,1
"165",1,0,390,1,2,3,"10438bd",15,1
"175",0,0,396,4,4,3,"10438bd",16,1
"185",1,1,539,6,6,3,"10438bd",17,1
"195",1,0,359,1,3,3,"10438bd",18,1
"205",1,1,539,3,3,3,"10438bd",19,1
"219",1,1,604,5,5,3,"10438bd",20,1
"225",1,0,538,1,5,3,"10438bd",21,1
"235",1,0,552,1,6,3,"10438bd",22,1
"245",1,1,475,5,5,3,"10438bd",23,1
"255",0,1,475,5,1,3,"10438bd",24,1
"265",0,1,378,4,1,3,"10438bd",25,1
"275",1,0,521,1,2,3,"10438bd",26,1
"285",0,0,479,3,3,3,"10438bd",27,1
"295",1,1,591,6,6,3,"10438bd",28,1
"305",1,0,314,1,6,3,"10438bd",29,1
"319",1,1,253,4,4,3,"10438bd",30,1
"325",1,1,379,2,2,3,"10438bd",31,1
"335",1,1,358,1,1,3,"10438bd",32,1
"345",0,1,569,3,1,3,"10438bd",33,1
"355",0,1,365,2,1,3,"10438bd",34,1
"365",0,0,398,1,1,3,"10438bd",35,1
"375",1,1,469,2,2,3,"10438bd",36,1
"385",1,1,329,4,4,3,"10438bd",37,1
"395",1,1,760,6,6,3,"10438bd",38,1
"405",0,1,543,4,1,3,"10438bd",39,1
"419",0,1,375,5,1,3,"10438bd",40,1
"425",0,1,279,3,1,3,"10438bd",41,1
"435",1,1,445,5,5,3,"10438bd",42,1
"445",1,1,445,3,3,3,"10438bd",43,1
"455",0,1,354,1,6,3,"10438bd",44,1
"465",1,1,313,4,4,3,"10438bd",45,1
"475",1,1,574,5,5,3,"10438bd",46,1
"485",0,1,345,1,6,3,"10438bd",47,1
"495",0,1,324,4,1,3,"10438bd",48,1
"505",0,1,329,1,3,3,"10438bd",49,1
"519",1,1,517,2,2,3,"10438bd",50,1
"525",0,1,383,1,2,3,"10438bd",51,1
"535",1,1,579,1,1,3,"10438bd",52,1
"545",1,1,432,6,6,3,"10438bd",53,1
"555",1,1,490,3,3,3,"10438bd",54,1
"565",0,1,635,5,1,3,"10438bd",55,1
"575",0,1,371,1,3,3,"10438bd",56,1
"585",1,1,380,3,3,3,"10438bd",57,1
"595",0,1,489,1,4,3,"10438bd",58,1
"605",0,1,322,6,1,3,"10438bd",59,1
"619",1,1,569,4,4,3,"10438bd",60,1
"625",1,1,381,6,6,3,"10438bd",61,1
"635",1,1,742,5,5,3,"10438bd",62,1
"645",1,1,427,2,2,3,"10438bd",63,1
"655",1,1,614,1,1,3,"10438bd",64,1
"665",1,0,429,1,2,3,"10438bd",65,1
"675",0,1,570,1,5,3,"10438bd",66,1
"685",1,1,619,5,5,3,"10438bd",67,1
"695",0,1,442,1,3,3,"10438bd",68,1
"705",0,1,323,1,2,3,"10438bd",69,1
"719",0,1,573,5,1,3,"10438bd",70,1
"725",1,1,643,1,1,3,"10438bd",71,1
"735",1,1,514,3,3,3,"10438bd",72,1
"745",1,1,405,2,2,3,"10438bd",73,1
"755",0,1,319,6,1,3,"10438bd",74,1
"765",0,1,412,1,4,3,"10438bd",75,1
"775",1,1,661,6,6,3,"10438bd",76,1
"785",1,1,299,4,4,3,"10438bd",77,1
"220",-1,-1,0,6,6,2,"1df9302",1,1
"320",1,0,219,4,1,2,"1df9302",2,1
"420",1,1,661,3,3,2,"1df9302",3,1
"520",0,1,246,1,5,2,"1df9302",4,1
"620",1,1,183,2,2,2,"1df9302",5,1
"720",0,1,42,1,3,2,"1df9302",6,1
"86",1,1,204,4,4,2,"1df9302",7,1
"96",1,1,79,1,1,2,"1df9302",8,1
"106",1,1,29,5,5,2,"1df9302",9,1
"116",0,1,112,6,1,2,"1df9302",10,1
"126",0,1,112,1,2,2,"1df9302",11,1
"136",1,1,41,2,2,2,"1df9302",12,1
"146",1,1,234,6,6,2,"1df9302",13,1
"156",1,0,206,2,1,2,"1df9302",14,1
"166",1,1,246,1,1,2,"1df9302",15,1
"176",0,1,53,1,6,2,"1df9302",16,1
"186",1,1,248,5,5,2,"1df9302",17,1
"196",1,1,254,3,3,2,"1df9302",18,1
"206",0,1,295,3,1,2,"1df9302",19,1
"2110",0,1,298,4,1,2,"1df9302",20,1
"226",0,1,422,1,5,2,"1df9302",21,1
"236",1,1,248,4,4,2,"1df9302",22,1
"246",0,1,130,1,3,2,"1df9302",23,1
"256",1,1,136,3,3,2,"1df9302",24,1
"266",0,1,270,1,4,2,"1df9302",25,1
"276",0,1,192,5,1,2,"1df9302",26,1
"286",1,1,248,1,1,2,"1df9302",27,1
"296",0,1,97,1,2,2,"1df9302",28,1
"306",1,1,298,6,6,2,"1df9302",29,1
"3110",1,1,177,4,4,2,"1df9302",30,1
"326",0,1,186,6,1,2,"1df9302",31,1
"336",1,1,266,2,2,2,"1df9302",32,1
"346",1,1,172,5,5,2,"1df9302",33,1
"356",1,1,211,3,3,2,"1df9302",34,1
"366",1,1,128,2,2,2,"1df9302",35,1
"376",1,1,311,6,6,2,"1df9302",36,1
"386",0,1,148,6,1,2,"1df9302",37,1
"396",1,0,94,1,2,2,"1df9302",38,1
"406",1,1,246,1,1,2,"1df9302",39,1
"4110",1,1,295,4,4,2,"1df9302",40,1
"426",1,1,162,5,5,2,"1df9302",41,1
"436",0,1,147,4,1,2,"1df9302",42,1
"446",0,1,201,1,5,2,"1df9302",43,1
"456",0,1,175,3,1,2,"1df9302",44,1
"466",1,0,10,1,2,2,"1df9302",45,1
"476",0,1,130,1,4,2,"1df9302",46,1
"486",0,0,84,1,1,2,"1df9302",47,1
"496",0,1,167,3,1,2,"1df9302",48,1
"506",1,1,224,5,5,2,"1df9302",49,1
"5110",0,1,509,1,6,2,"1df9302",50,1
"526",1,1,104,3,3,2,"1df9302",51,1
"536",1,1,246,4,4,2,"1df9302",52,1
"546",1,1,232,2,2,2,"1df9302",53,1
"556",0,1,146,1,5,2,"1df9302",54,1
"566",1,1,251,6,6,2,"1df9302",55,1
"576",1,1,306,2,2,2,"1df9302",56,1
"586",0,1,396,5,1,2,"1df9302",57,1
"596",0,1,359,6,1,2,"1df9302",58,1
"606",0,1,195,2,1,2,"1df9302",59,1
"6110",1,1,589,4,4,2,"1df9302",60,1
"626",0,1,165,3,1,2,"1df9302",61,1
"636",1,1,86,6,6,2,"1df9302",62,1
"646",1,1,106,1,1,2,"1df9302",63,1
"656",1,1,84,5,5,2,"1df9302",64,1
"666",1,1,166,3,3,2,"1df9302",65,1
"676",0,1,293,1,4,2,"1df9302",66,1
"686",0,1,284,1,6,2,"1df9302",67,1
"696",1,1,31,1,1,2,"1df9302",68,1
"706",1,1,39,6,6,2,"1df9302",69,1
"7110",0,1,113,1,3,2,"1df9302",70,1
"726",0,1,10,5,1,2,"1df9302",71,1
"736",1,1,231,3,3,2,"1df9302",72,1
"746",1,1,270,4,4,2,"1df9302",73,1
"756",0,1,404,2,1,2,"1df9302",74,1
"766",1,1,246,2,2,2,"1df9302",75,1
"776",0,1,247,4,1,2,"1df9302",76,1
"786",1,1,299,5,5,2,"1df9302",77,1
"227",1,0,981,1,4,2,"11370b2",1,1
"327",1,0,752,2,1,2,"11370b2",2,1
"427",1,1,472,2,2,2,"11370b2",3,1
"527",0,0,283,3,3,2,"11370b2",4,1
"627",0,0,273,4,4,2,"11370b2",5,1
"727",0,1,276,6,1,2,"11370b2",6,1
"87",0,0,336,1,1,2,"11370b2",7,1
"97",1,1,839,6,6,2,"11370b2",8,1
"107",0,1,284,5,1,2,"11370b2",9,1
"117",0,1,244,1,3,2,"11370b2",10,1
"127",1,1,619,5,5,2,"11370b2",11,1
"137",1,0,775,2,1,2,"11370b2",12,1
"147",1,1,344,3,3,2,"11370b2",13,1
"157",0,1,254,3,1,2,"11370b2",14,1
"167",0,1,406,1,6,2,"11370b2",15,1
"177",1,1,1290,4,4,2,"11370b2",16,1
"187",0,0,416,5,5,2,"11370b2",17,1
"197",0,1,508,5,1,2,"11370b2",18,1
"207",0,1,285,4,1,2,"11370b2",19,1
"2111",0,0,528,1,1,2,"11370b2",20,1
"228",1,1,230,2,2,2,"11370b2",21,1
"237",1,1,617,6,6,2,"11370b2",22,1
"247",1,1,821,5,5,2,"11370b2",23,1
"257",1,1,588,3,3,2,"11370b2",24,1
"267",1,1,725,6,6,2,"11370b2",25,1
"277",0,1,227,6,1,2,"11370b2",26,1
"287",0,1,328,1,5,2,"11370b2",27,1
"297",1,1,347,4,4,2,"11370b2",28,1
"307",1,1,449,1,1,2,"11370b2",29,1
"3111",0,1,240,1,4,2,"11370b2",30,1
"328",0,1,1120,3,1,2,"11370b2",31,1
"337",1,0,1467,2,1,2,"11370b2",32,1
"347",1,1,431,2,2,2,"11370b2",33,1
"357",1,1,241,1,1,2,"11370b2",34,1
"367",0,1,307,5,1,2,"11370b2",35,1
"377",0,1,929,1,6,2,"11370b2",36,1
"387",1,1,447,5,5,2,"11370b2",37,1
"397",1,1,386,2,2,2,"11370b2",38,1
"407",0,1,289,4,1,2,"11370b2",39,1
"4111",1,1,923,3,3,2,"11370b2",40,1
"428",0,1,304,1,3,2,"11370b2",41,1
"437",0,0,328,4,4,2,"11370b2",42,1
"447",1,1,660,6,6,2,"11370b2",43,1
"457",1,0,615,2,1,2,"11370b2",44,1
"467",0,1,527,1,3,2,"11370b2",45,1
"477",1,1,1564,2,2,2,"11370b2",46,1
"487",1,1,1521,5,5,2,"11370b2",47,1
"497",1,1,546,6,6,2,"11370b2",48,1
"507",0,1,613,4,1,2,"11370b2",49,1
"5111",1,1,626,1,1,2,"11370b2",50,1
"528",1,0,567,2,1,2,"11370b2",51,1
"537",0,1,418,5,1,2,"11370b2",52,1
"547",1,1,277,4,4,2,"11370b2",53,1
"557",1,1,329,3,3,2,"11370b2",54,1
"567",0,1,425,6,1,2,"11370b2",55,1
"577",1,0,621,1,2,2,"11370b2",56,1
"587",0,1,1115,6,1,2,"11370b2",57,1
"597",0,1,578,1,5,2,"11370b2",58,1
"607",1,1,1417,6,6,2,"11370b2",59,1
"6111",0,0,1020,3,3,2,"11370b2",60,1
"628",1,1,643,4,4,2,"11370b2",61,1
"637",0,1,447,4,1,2,"11370b2",62,1
"647",0,1,207,3,1,2,"11370b2",63,1
"657",1,1,275,5,5,2,"11370b2",64,1
"667",1,1,753,1,1,2,"11370b2",65,1
"677",1,1,699,2,2,2,"11370b2",66,1
"687",1,0,1401,1,3,2,"11370b2",67,1
"697",0,1,666,1,4,2,"11370b2",68,1
"707",1,1,166,6,6,2,"11370b2",69,1
"7111",0,1,524,1,5,2,"11370b2",70,1
"728",1,1,1016,5,5,2,"11370b2",71,1
"737",-1,-1,0,1,1,2,"11370b2",72,1
"747",-1,-1,0,1,6,2,"11370b2",73,1
"757",1,0,608,1,2,2,"11370b2",74,1
"767",1,1,515,3,3,2,"11370b2",75,1
"777",0,0,852,4,4,2,"11370b2",76,1
"787",1,1,1172,2,2,2,"11370b2",77,1
"229",1,1,620,2,2,3,"4bb1165",1,1
"329",1,0,283,5,1,3,"4bb1165",2,1
"429",1,0,395,1,4,3,"4bb1165",3,1
"529",1,1,357,1,1,3,"4bb1165",4,1
"629",1,1,509,3,3,3,"4bb1165",5,1
"729",1,0,486,2,1,3,"4bb1165",6,1
"88",1,1,399,4,4,3,"4bb1165",7,1
"98",1,0,273,1,3,3,"4bb1165",8,1
"108",1,1,486,6,6,3,"4bb1165",9,1
"118",1,0,276,6,1,3,"4bb1165",10,1
"128",1,1,288,5,5,3,"4bb1165",11,1
"138",0,1,342,4,1,3,"4bb1165",12,1
"148",0,1,363,3,1,3,"4bb1165",13,1
"158",1,1,314,3,3,3,"4bb1165",14,1
"168",1,1,298,6,6,3,"4bb1165",15,1
"178",0,1,380,6,1,3,"4bb1165",16,1
"188",1,1,330,4,4,3,"4bb1165",17,1
"198",1,1,349,5,5,3,"4bb1165",18,1
"208",1,1,380,1,1,3,"4bb1165",19,1
"2112",1,1,370,2,2,3,"4bb1165",20,1
"2210",0,1,742,5,1,3,"4bb1165",21,1
"238",1,0,889,2,1,3,"4bb1165",22,1
"248",0,1,362,1,3,3,"4bb1165",23,1
"258",1,1,360,5,5,3,"4bb1165",24,1
"268",1,1,841,2,2,3,"4bb1165",25,1
"278",0,1,1384,1,5,3,"4bb1165",26,1
"288",0,1,657,6,1,3,"4bb1165",27,1
"298",1,1,421,6,6,3,"4bb1165",28,1
"308",1,1,382,4,4,3,"4bb1165",29,1
"3112",0,1,302,4,1,3,"4bb1165",30,1
"3210",-1,-1,0,3,3,3,"4bb1165",31,1
"338",1,0,1265,2,1,3,"4bb1165",32,1
"348",1,1,319,1,1,3,"4bb1165",33,1
"358",0,1,376,6,1,3,"4bb1165",34,1
"368",1,1,435,2,2,3,"4bb1165",35,1
"378",1,1,536,1,1,3,"4bb1165",36,1
"388",1,1,390,5,5,3,"4bb1165",37,1
"398",0,1,379,5,1,3,"4bb1165",38,1
"408",1,1,513,6,6,3,"4bb1165",39,1
"4112",1,0,273,2,1,3,"4bb1165",40,1
"4210",1,1,763,4,4,3,"4bb1165",41,1
"438",1,1,439,3,3,3,"4bb1165",42,1
"448",0,1,489,1,3,3,"4bb1165",43,1
"458",0,1,778,1,4,3,"4bb1165",44,1
"468",1,0,454,5,1,3,"4bb1165",45,1
"478",1,1,503,4,4,3,"4bb1165",46,1
"488",1,1,341,5,5,3,"4bb1165",47,1
"498",1,1,428,2,2,3,"4bb1165",48,1
"508",1,1,1042,6,6,3,"4bb1165",49,1
"5112",0,1,503,1,3,3,"4bb1165",50,1
"5210",1,1,420,3,3,3,"4bb1165",51,1
"538",1,1,446,1,1,3,"4bb1165",52,1
"548",1,0,880,2,1,3,"4bb1165",53,1
"558",0,1,355,1,6,3,"4bb1165",54,1
"568",0,1,450,1,4,3,"4bb1165",55,1
"578",1,1,404,2,2,3,"4bb1165",56,1
"588",1,1,69,1,1,3,"4bb1165",57,1
"598",0,1,355,1,6,3,"4bb1165",58,1
"608",0,1,540,1,5,3,"4bb1165",59,1
"6112",1,0,659,3,1,3,"4bb1165",60,1
"6210",1,1,574,5,5,3,"4bb1165",61,1
"638",1,1,899,3,3,3,"4bb1165",62,1
"648",1,0,1178,1,2,3,"4bb1165",63,1
"658",0,1,367,1,4,3,"4bb1165",64,1
"668",0,0,867,6,6,3,"4bb1165",65,1
"678",1,1,227,4,4,3,"4bb1165",66,1
"688",1,1,459,4,4,3,"4bb1165",67,1
"698",0,1,304,6,1,3,"4bb1165",68,1
"708",0,1,448,4,1,3,"4bb1165",69,1
"7112",1,1,625,3,3,3,"4bb1165",70,1
"7210",1,0,346,1,2,3,"4bb1165",71,1
"738",1,1,536,5,5,3,"4bb1165",72,1
"748",0,1,348,3,1,3,"4bb1165",73,1
"758",0,1,387,5,1,3,"4bb1165",74,1
"768",1,1,461,6,6,3,"4bb1165",75,1
"778",1,1,330,2,2,3,"4bb1165",76,1
"788",1,1,597,1,1,3,"4bb1165",77,1
"230",1,0,45,1,5,3,"1c9996b",1,1
"330",1,1,304,3,3,3,"1c9996b",2,1
"430",1,1,665,2,2,3,"1c9996b",3,1
"530",1,1,366,4,4,3,"1c9996b",4,1
"630",0,1,261,1,2,3,"1c9996b",5,1
"730",0,0,305,5,5,3,"1c9996b",6,1
"89",1,1,230,1,1,3,"1c9996b",7,1
"99",0,0,231,6,6,3,"1c9996b",8,1
"109",1,0,288,1,6,3,"1c9996b",9,1
"119",1,0,228,1,4,3,"1c9996b",10,1
"129",0,1,186,1,3,3,"1c9996b",11,1
"139",0,0,242,6,6,3,"1c9996b",12,1
"149",1,0,93,6,1,3,"1c9996b",13,1
"159",1,1,111,5,5,3,"1c9996b",14,1
"169",0,1,277,2,1,3,"1c9996b",15,1
"179",1,1,449,3,3,3,"1c9996b",16,1
"189",1,1,210,4,4,3,"1c9996b",17,1
"199",0,0,334,2,2,3,"1c9996b",18,1
"209",0,1,524,1,4,3,"1c9996b",19,1
"2113",0,0,501,1,1,3,"1c9996b",20,1
"2211",0,1,960,5,1,3,"1c9996b",21,1
"239",0,1,346,3,1,3,"1c9996b",22,1
"249",1,1,270,4,4,3,"1c9996b",23,1
"259",1,1,217,1,1,3,"1c9996b",24,1
"269",0,1,291,4,1,3,"1c9996b",25,1
"279",1,1,267,5,5,3,"1c9996b",26,1
"289",1,1,312,2,2,3,"1c9996b",27,1
"299",1,0,1853,2,1,3,"1c9996b",28,1
"309",1,1,395,3,3,3,"1c9996b",29,1
"3113",0,1,382,1,5,3,"1c9996b",30,1
"3211",1,1,434,6,6,3,"1c9996b",31,1
"339",0,1,419,1,6,3,"1c9996b",32,1
"349",0,1,455,1,3,3,"1c9996b",33,1
"359",1,1,400,1,1,3,"1c9996b",34,1
"369",1,1,224,4,4,3,"1c9996b",35,1
"379",0,1,341,1,3,3,"1c9996b",36,1
"389",1,1,275,6,6,3,"1c9996b",37,1
"399",0,1,693,1,6,3,"1c9996b",38,1
"409",1,1,558,5,5,3,"1c9996b",39,1
"4113",0,1,514,1,2,3,"1c9996b",40,1
"4211",1,1,574,2,2,3,"1c9996b",41,1
"439",0,1,376,1,5,3,"1c9996b",42,1
"449",1,1,503,3,3,3,"1c9996b",43,1
"459",0,1,748,4,1,3,"1c9996b",44,1
"469",0,1,1419,1,3,3,"1c9996b",45,1
"479",1,1,424,6,6,3,"1c9996b",46,1
"489",0,1,1645,4,1,3,"1c9996b",47,1
"499",1,1,1422,4,4,3,"1c9996b",48,1
"509",1,1,500,3,3,3,"1c9996b",49,1
"5113",0,1,278,1,6,3,"1c9996b",50,1
"5211",1,1,478,5,5,3,"1c9996b",51,1
"539",1,0,292,2,1,3,"1c9996b",52,1
"549",1,1,299,2,2,3,"1c9996b",53,1
"559",0,1,287,1,5,3,"1c9996b",54,1
"569",1,1,310,1,1,3,"1c9996b",55,1
"579",1,1,219,5,5,3,"1c9996b",56,1
"589",1,1,249,3,3,3,"1c9996b",57,1
"599",1,0,1080,1,2,3,"1c9996b",58,1
"609",0,1,443,6,1,3,"1c9996b",59,1
"6113",1,1,354,2,2,3,"1c9996b",60,1
"6211",1,1,244,6,6,3,"1c9996b",61,1
"639",0,1,343,1,3,3,"1c9996b",62,1
"649",0,1,260,5,1,3,"1c9996b",63,1
"659",1,1,266,1,1,3,"1c9996b",64,1
"669",0,1,317,4,1,3,"1c9996b",65,1
"679",1,1,254,4,4,3,"1c9996b",66,1
"689",1,1,592,5,5,3,"1c9996b",67,1
"699",0,1,331,1,3,3,"1c9996b",68,1
"709",0,1,240,2,1,3,"1c9996b",69,1
"7113",1,1,247,1,1,3,"1c9996b",70,1
"7211",1,1,346,3,3,3,"1c9996b",71,1
"739",0,1,373,1,5,3,"1c9996b",72,1
"749",0,0,247,2,2,3,"1c9996b",73,1
"759",0,1,330,1,4,3,"1c9996b",74,1
"769",0,0,200,4,4,3,"1c9996b",75,1
"779",1,1,597,6,6,3,"1c9996b",76,1
"789",0,1,347,6,1,3,"1c9996b",77,1
"240",1,1,613,5,5,3,"10f4080",1,1
"340",1,1,362,1,1,3,"10f4080",2,1
"440",1,1,338,3,3,3,"10f4080",3,1
"540",1,1,286,4,4,3,"10f4080",4,1
"640",1,0,603,1,5,3,"10f4080",5,1
"740",1,1,426,2,2,3,"10f4080",6,1
"810",0,1,1436,2,1,3,"10f4080",7,1
"910",0,1,957,1,4,3,"10f4080",8,1
"1010",0,1,278,1,6,3,"10f4080",9,1
"1110",0,1,283,1,3,3,"10f4080",10,1
"1210",1,1,334,6,6,3,"10f4080",11,1
"1310",0,1,1250,4,1,3,"10f4080",12,1
"1410",1,1,974,3,3,3,"10f4080",13,1
"1510",0,1,890,5,1,3,"10f4080",14,1
"1610",0,1,341,1,2,3,"10f4080",15,1
"1710",0,1,282,1,6,3,"10f4080",16,1
"1810",1,1,1478,6,6,3,"10f4080",17,1
"1910",1,1,281,4,4,3,"10f4080",18,1
"2010",1,1,890,1,1,3,"10f4080",19,1
"2114",1,1,390,5,5,3,"10f4080",20,1
"2212",0,1,242,3,1,3,"10f4080",21,1
"2310",1,1,972,2,2,3,"10f4080",22,1
"2410",0,1,408,1,6,3,"10f4080",23,1
"2510",1,1,357,2,2,3,"10f4080",24,1
"2610",0,1,1753,2,1,3,"10f4080",25,1
"2710",0,1,420,4,1,3,"10f4080",26,1
"2810",1,1,294,1,1,3,"10f4080",27,1
"2910",1,1,943,4,4,3,"10f4080",28,1
"3010",1,1,667,5,5,3,"10f4080",29,1
"3114",0,1,311,5,1,3,"10f4080",30,1
"3212",1,1,331,3,3,3,"10f4080",31,1
"3310",0,1,497,3,1,3,"10f4080",32,1
"3410",1,1,607,6,6,3,"10f4080",33,1
"3510",1,1,307,6,6,3,"10f4080",34,1
"3610",1,0,310,1,2,3,"10f4080",35,1
"3710",0,1,323,1,4,3,"10f4080",36,1
"3810",1,1,302,3,3,3,"10f4080",37,1
"3910",1,1,914,5,5,3,"10f4080",38,1
"4010",1,1,1255,2,2,3,"10f4080",39,1
"4114",0,1,1036,3,1,3,"10f4080",40,1
"4212",1,1,1105,4,4,3,"10f4080",41,1
"4310",0,1,1565,1,5,3,"10f4080",42,1
"4410",0,1,378,6,1,3,"10f4080",43,1
"4510",1,1,78,1,1,3,"10f4080",44,1
"4610",0,1,467,6,1,3,"10f4080",45,1
"4710",1,1,311,6,6,3,"10f4080",46,1
"4810",0,1,291,1,3,3,"10f4080",47,1
"4910",1,1,321,3,3,3,"10f4080",48,1
"5010",1,0,54,2,1,3,"10f4080",49,1
"5114",0,1,276,1,4,3,"10f4080",50,1
"5212",1,1,296,2,2,3,"10f4080",51,1
"5310",1,1,1571,5,5,3,"10f4080",52,1
"5410",1,1,222,4,4,3,"10f4080",53,1
"5510",1,1,452,1,1,3,"10f4080",54,1
"5610",0,1,321,1,5,3,"10f4080",55,1
"5710",0,1,334,4,1,3,"10f4080",56,1
"5810",0,1,1092,2,1,3,"10f4080",57,1
"5910",1,1,289,3,3,3,"10f4080",58,1
"6010",0,1,471,1,5,3,"10f4080",59,1
"6114",0,1,565,1,6,3,"10f4080",60,1
"6212",1,1,344,6,6,3,"10f4080",61,1
"6310",1,1,650,4,4,3,"10f4080",62,1
"6410",1,1,1614,1,1,3,"10f4080",63,1
"6510",1,1,666,5,5,3,"10f4080",64,1
"6610",1,1,469,2,2,3,"10f4080",65,1
"6710",0,1,460,3,1,3,"10f4080",66,1
"6810",1,1,385,5,5,3,"10f4080",67,1
"6910",1,1,1266,3,3,3,"10f4080",68,1
"7010",0,1,279,4,1,3,"10f4080",69,1
"7114",1,1,483,2,2,3,"10f4080",70,1
"7212",0,1,287,3,1,3,"10f4080",71,1
"7310",0,1,430,2,1,3,"10f4080",72,1
"7410",1,1,473,6,6,3,"10f4080",73,1
"7510",0,1,691,1,6,3,"10f4080",74,1
"7610",1,1,292,4,4,3,"10f4080",75,1
"7710",1,1,299,1,1,3,"10f4080",76,1
"7810",0,1,344,5,1,3,"10f4080",77,1
"250",1,0,590,1,3,3,"1ea6a38",1,1
"350",1,0,462,1,6,3,"1ea6a38",2,1
"450",1,0,359,5,1,3,"1ea6a38",3,1
"550",0,0,321,1,1,3,"1ea6a38",4,1
"650",0,1,326,4,1,3,"1ea6a38",5,1
"750",1,1,330,2,2,3,"1ea6a38",6,1
"811",0,0,389,5,5,3,"1ea6a38",7,1
"911",1,1,522,3,3,3,"1ea6a38",8,1
"1011",1,0,304,2,1,3,"1ea6a38",9,1
"1111",0,0,568,6,6,3,"1ea6a38",10,1
"1211",0,0,322,4,4,3,"1ea6a38",11,1
"1311",1,0,916,4,1,3,"1ea6a38",12,1
"1411",1,1,297,4,4,3,"1ea6a38",13,1
"1511",1,1,319,6,6,3,"1ea6a38",14,1
"1611",0,0,323,2,2,3,"1ea6a38",15,1
"1711",1,1,291,3,3,3,"1ea6a38",16,1
"1811",1,1,1262,1,1,3,"1ea6a38",17,1
"1911",0,1,537,5,1,3,"1ea6a38",18,1
"2011",0,1,446,1,6,3,"1ea6a38",19,1
"2115",1,1,380,5,5,3,"1ea6a38",20,1
"2213",0,1,267,3,1,3,"1ea6a38",21,1
"2311",1,0,270,1,2,3,"1ea6a38",22,1
"2411",0,1,138,4,1,3,"1ea6a38",23,1
"2511",1,1,310,4,4,3,"1ea6a38",24,1
"2611",0,1,726,1,6,3,"1ea6a38",25,1
"2711",0,1,400,1,5,3,"1ea6a38",26,1
"2811",0,1,325,2,1,3,"1ea6a38",27,1
"2911",1,1,482,5,5,3,"1ea6a38",28,1
"3011",1,1,308,1,1,3,"1ea6a38",29,1
"3115",1,1,333,6,6,3,"1ea6a38",30,1
"3213",1,1,334,3,3,3,"1ea6a38",31,1
"3311",0,1,323,1,3,3,"1ea6a38",32,1
"3411",1,1,328,2,2,3,"1ea6a38",33,1
"3511",1,1,489,3,3,3,"1ea6a38",34,1
"3611",1,1,345,6,6,3,"1ea6a38",35,1
"3711",1,1,425,2,2,3,"1ea6a38",36,1
"3811",0,1,318,2,1,3,"1ea6a38",37,1
"3911",1,0,526,3,1,3,"1ea6a38",38,1
"4011",0,1,436,1,5,3,"1ea6a38",39,1
"4115",1,1,406,4,4,3,"1ea6a38",40,1
"4213",0,1,361,1,6,3,"1ea6a38",41,1
"4311",0,1,300,4,1,3,"1ea6a38",42,1
"4411",1,1,880,5,5,3,"1ea6a38",43,1
"4511",1,1,378,1,1,3,"1ea6a38",44,1
"4611",0,1,1097,1,5,3,"1ea6a38",45,1
"4711",0,1,982,1,6,3,"1ea6a38",46,1
"4811",1,1,535,4,4,3,"1ea6a38",47,1
"4911",1,1,308,6,6,3,"1ea6a38",48,1
"5011",0,1,369,3,1,3,"1ea6a38",49,1
"5115",0,1,356,4,1,3,"1ea6a38",50,1
"5213",1,0,390,1,2,3,"1ea6a38",51,1
"5311",1,1,282,5,5,3,"1ea6a38",52,1
"5411",1,1,318,1,1,3,"1ea6a38",53,1
"5511",1,1,329,3,3,3,"1ea6a38",54,1
"5611",1,1,316,2,2,3,"1ea6a38",55,1
"5711",0,1,366,1,3,3,"1ea6a38",56,1
"5811",1,1,332,5,5,3,"1ea6a38",57,1
"5911",1,1,500,3,3,3,"1ea6a38",58,1
"6011",1,0,288,2,1,3,"1ea6a38",59,1
"6115",0,1,339,4,1,3,"1ea6a38",60,1
"6213",0,1,360,1,5,3,"1ea6a38",61,1
"6311",1,1,327,2,2,3,"1ea6a38",62,1
"6411",1,1,250,6,6,3,"1ea6a38",63,1
"6511",1,1,278,1,1,3,"1ea6a38",64,1
"6611",0,1,419,1,6,3,"1ea6a38",65,1
"6711",1,1,250,4,4,3,"1ea6a38",66,1
"6811",1,1,369,2,2,3,"1ea6a38",67,1
"6911",1,1,367,6,6,3,"1ea6a38",68,1
"7011",1,1,669,4,4,3,"1ea6a38",69,1
"7115",1,1,688,5,5,3,"1ea6a38",70,1
"7213",0,1,263,1,5,3,"1ea6a38",71,1
"7311",0,1,330,6,1,3,"1ea6a38",72,1
"7411",1,1,380,1,1,3,"1ea6a38",73,1
"7511",0,1,365,1,4,3,"1ea6a38",74,1
"7611",1,1,915,3,3,3,"1ea6a38",75,1
"7711",0,1,308,3,1,3,"1ea6a38",76,1
"7811",1,0,850,1,2,3,"1ea6a38",77,1
"260",1,0,629,2,1,2,"1d673f8",1,1
"360",1,1,367,4,4,2,"1d673f8",2,1
"460",1,1,1398,6,6,2,"1d673f8",3,1
"560",1,1,510,1,1,2,"1d673f8",4,1
"660",1,1,452,5,5,2,"1d673f8",5,1
"760",1,1,733,2,2,2,"1d673f8",6,1
"812",-1,-1,0,3,3,2,"1d673f8",7,1
"912",1,0,624,6,1,2,"1d673f8",8,1
"1012",0,1,1291,3,1,2,"1d673f8",9,1
"1112",0,1,290,1,4,2,"1d673f8",10,1
"1212",0,1,458,1,5,2,"1d673f8",11,1
"1312",0,1,230,3,1,2,"1d673f8",12,1
"1412",0,1,448,1,4,2,"1d673f8",13,1
"1512",1,0,274,2,1,2,"1d673f8",14,1
"1612",0,1,492,1,6,2,"1d673f8",15,1
"1712",0,1,416,1,5,2,"1d673f8",16,1
"1812",1,1,287,1,1,2,"1d673f8",17,1
"1912",0,0,308,6,6,2,"1d673f8",18,1
"2012",1,1,1073,3,3,2,"1d673f8",19,1
"2116",1,1,370,5,5,2,"1d673f8",20,1
"2214",1,1,245,4,4,2,"1d673f8",21,1
"2312",1,1,240,2,2,2,"1d673f8",22,1
"2412",0,1,397,1,5,2,"1d673f8",23,1
"2512",1,1,636,1,1,2,"1d673f8",24,1
"2612",1,1,104,2,2,2,"1d673f8",25,1
"2712",1,1,423,4,4,2,"1d673f8",26,1
"2812",1,1,302,3,3,2,"1d673f8",27,1
"2912",1,1,331,6,6,2,"1d673f8",28,1
"3012",1,0,563,2,1,2,"1d673f8",29,1
"3116",0,1,325,1,3,2,"1d673f8",30,1
"3214",0,1,206,1,4,2,"1d673f8",31,1
"3312",1,1,428,5,5,2,"1d673f8",32,1
"3412",0,1,335,6,1,2,"1d673f8",33,1
"3512",0,1,264,3,1,2,"1d673f8",34,1
"3612",1,1,945,3,3,2,"1d673f8",35,1
"3712",1,0,432,1,4,2,"1d673f8",36,1
"3812",1,1,317,6,6,2,"1d673f8",37,1
"3912",0,1,330,1,2,2,"1d673f8",38,1
"4012",0,1,656,1,5,2,"1d673f8",39,1
"4116",1,1,763,5,5,2,"1d673f8",40,1
"4214",1,1,684,4,4,2,"1d673f8",41,1
"4312",0,1,412,1,6,2,"1d673f8",42,1
"4412",1,1,689,1,1,2,"1d673f8",43,1
"4512",1,1,382,2,2,2,"1d673f8",44,1
"4612",1,1,383,1,1,2,"1d673f8",45,1
"4712",1,1,422,4,4,2,"1d673f8",46,1
"4812",0,1,309,6,1,2,"1d673f8",47,1
"4912",0,1,265,1,2,2,"1d673f8",48,1
"5012",0,1,324,1,3,2,"1d673f8",49,1
"5116",1,1,47,5,5,2,"1d673f8",50,1
"5214",0,1,247,1,4,2,"1d673f8",51,1
"5312",0,0,354,6,6,2,"1d673f8",52,1
"5412",-1,-1,0,3,3,2,"1d673f8",53,1
"5512",0,1,407,1,5,2,"1d673f8",54,1
"5612",1,1,414,2,2,2,"1d673f8",55,1
"5712",1,1,313,6,6,2,"1d673f8",56,1
"5812",0,1,217,1,2,2,"1d673f8",57,1
"5912",0,1,392,1,6,2,"1d673f8",58,1
"6012",0,1,283,3,1,2,"1d673f8",59,1
"6116",0,1,950,1,5,2,"1d673f8",60,1
"6214",1,1,341,2,2,2,"1d673f8",61,1
"6312",0,1,332,1,4,2,"1d673f8",62,1
"6412",1,1,96,4,4,2,"1d673f8",63,1
"6512",0,0,302,5,5,2,"1d673f8",64,1
"6612",1,1,192,3,3,2,"1d673f8",65,1
"6712",1,1,304,1,1,2,"1d673f8",66,1
"6812",1,1,324,5,5,2,"1d673f8",67,1
"6912",1,1,475,4,4,2,"1d673f8",68,1
"7012",1,0,912,1,2,2,"1d673f8",69,1
"7116",0,1,257,4,1,2,"1d673f8",70,1
"7214",1,1,230,3,3,2,"1d673f8",71,1
"7312",1,1,412,2,2,2,"1d673f8",72,1
"7412",1,1,375,1,1,2,"1d673f8",73,1
"7512",0,1,512,1,6,2,"1d673f8",74,1
"7612",0,1,459,5,1,2,"1d673f8",75,1
"7712",1,1,308,6,6,2,"1d673f8",76,1
"7812",0,1,414,3,1,2,"1d673f8",77,1
"270",1,0,1048,6,1,2,"1716fec",1,1
"370",1,1,576,4,4,2,"1716fec",2,1
"470",1,0,587,1,5,2,"1716fec",3,1
"570",1,1,388,5,5,2,"1716fec",4,1
"670",1,1,372,3,3,2,"1716fec",5,1
"770",1,1,477,1,1,2,"1716fec",6,1
"813",1,0,485,1,4,2,"1716fec",7,1
"913",1,0,408,1,3,2,"1716fec",8,1
"1013",0,1,418,1,2,2,"1716fec",9,1
"1113",0,0,1051,6,6,2,"1716fec",10,1
"1213",1,1,403,2,2,2,"1716fec",11,1
"1313",1,0,1422,4,1,2,"1716fec",12,1
"1413",0,0,449,2,2,2,"1716fec",13,1
"1513",1,1,467,5,5,2,"1716fec",14,1
"1613",1,0,307,2,1,2,"1716fec",15,1
"1713",0,0,1156,6,6,2,"1716fec",16,1
"1813",0,1,373,1,3,2,"1716fec",17,1
"1913",0,1,401,6,1,2,"1716fec",18,1
"2013",0,1,346,5,1,2,"1716fec",19,1
"2117",1,1,305,4,4,2,"1716fec",20,1
"2215",1,1,346,1,1,2,"1716fec",21,1
"2313",1,1,341,3,3,2,"1716fec",22,1
"2413",0,1,486,1,6,2,"1716fec",23,1
"2513",1,1,328,3,3,2,"1716fec",24,1
"2613",1,1,331,2,2,2,"1716fec",25,1
"2713",0,1,323,3,1,2,"1716fec",26,1
"2813",1,1,462,6,6,2,"1716fec",27,1
"2913",1,0,431,1,2,2,"1716fec",28,1
"3013",1,1,255,1,1,2,"1716fec",29,1
"3117",0,1,303,1,5,2,"1716fec",30,1
"3215",1,1,575,5,5,2,"1716fec",31,1
"3313",1,1,241,4,4,2,"1716fec",32,1
"3413",0,1,314,4,1,2,"1716fec",33,1
"3513",1,1,301,1,1,2,"1716fec",34,1
"3613",0,1,453,3,1,2,"1716fec",35,1
"3713",1,1,295,6,6,2,"1716fec",36,1
"3813",1,1,287,4,4,2,"1716fec",37,1
"3913",1,1,842,2,2,2,"1716fec",38,1
"4013",1,1,252,3,3,2,"1716fec",39,1
"4117",0,1,268,1,6,2,"1716fec",40,1
"4215",0,1,237,1,5,2,"1716fec",41,1
"4313",0,1,292,1,4,2,"1716fec",42,1
"4413",1,1,400,5,5,2,"1716fec",43,1
"4513",0,1,466,2,1,2,"1716fec",44,1
"4613",1,1,281,2,2,2,"1716fec",45,1
"4713",1,1,340,4,4,2,"1716fec",46,1
"4813",0,1,196,1,2,2,"1716fec",47,1
"4913",1,1,279,6,6,2,"1716fec",48,1
"5013",1,1,266,3,3,2,"1716fec",49,1
"5117",0,1,378,1,4,2,"1716fec",50,1
"5215",0,1,497,1,6,2,"1716fec",51,1
"5313",0,1,266,5,1,2,"1716fec",52,1
"5413",1,1,276,5,5,2,"1716fec",53,1
"5513",1,1,317,1,1,2,"1716fec",54,1
"5613",0,1,72,1,3,2,"1716fec",55,1
"5713",1,1,593,3,3,2,"1716fec",56,1
"5813",0,1,34,6,1,2,"1716fec",57,1
"5913",1,1,44,4,4,2,"1716fec",58,1
"6013",1,1,523,5,5,2,"1716fec",59,1
"6117",0,1,523,1,4,2,"1716fec",60,1
"6215",0,1,268,1,2,2,"1716fec",61,1
"6313",1,1,263,6,6,2,"1716fec",62,1
"6413",0,1,296,1,3,2,"1716fec",63,1
"6513",0,1,303,1,5,2,"1716fec",64,1
"6613",1,1,362,1,1,2,"1716fec",65,1
"6713",1,1,273,2,2,2,"1716fec",66,1
"6813",0,1,235,4,1,2,"1716fec",67,1
"6913",1,1,334,3,3,2,"1716fec",68,1
"7013",1,1,283,2,2,2,"1716fec",69,1
"7117",0,1,373,5,1,2,"1716fec",70,1
"7215",1,1,566,4,4,2,"1716fec",71,1
"7313",0,1,975,3,1,2,"1716fec",72,1
"7413",0,1,552,6,1,2,"1716fec",73,1
"7513",1,1,339,6,6,2,"1716fec",74,1
"7613",1,1,430,1,1,2,"1716fec",75,1
"7713",1,1,413,5,5,2,"1716fec",76,1
"7813",0,1,447,1,2,2,"1716fec",77,1
"280",1,0,715,1,6,2,"c223b3d",1,1
"380",-1,-1,0,3,1,2,"c223b3d",2,1
"480",0,0,607,6,6,2,"c223b3d",3,1
"580",0,1,423,4,1,2,"c223b3d",4,1
"680",-1,-1,0,1,1,2,"c223b3d",5,1
"780",1,1,1661,5,5,2,"c223b3d",6,1
"814",1,0,636,2,1,2,"c223b3d",7,1
"914",1,1,692,4,4,2,"c223b3d",8,1
"1014",1,1,611,3,3,2,"c223b3d",9,1
"1114",0,1,815,5,1,2,"c223b3d",10,1
"1214",1,1,779,2,2,2,"c223b3d",11,1
"1314",0,1,457,4,1,2,"c223b3d",12,1
"1414",1,1,639,3,3,2,"c223b3d",13,1
"1514",0,1,498,1,6,2,"c223b3d",14,1
"1614",0,1,502,1,5,2,"c223b3d",15,1
"1714",1,1,795,6,6,2,"c223b3d",16,1
"1814",0,1,758,2,1,2,"c223b3d",17,1
"1914",0,0,182,4,4,2,"c223b3d",18,1
"2014",0,1,394,3,1,2,"c223b3d",19,1
"2118",-1,-1,0,1,1,2,"c223b3d",20,1
"2216",0,0,713,2,2,2,"c223b3d",21,1
"2314",1,1,393,5,5,2,"c223b3d",22,1
"2414",1,1,599,2,2,2,"c223b3d",23,1
"2514",-1,-1,0,3,3,2,"c223b3d",24,1
"2614",1,1,728,6,6,2,"c223b3d",25,1
"2714",1,1,621,1,1,2,"c223b3d",26,1
"2814",0,1,814,1,3,2,"c223b3d",27,1
"2914",0,1,774,4,1,2,"c223b3d",28,1
"3014",0,1,406,1,5,2,"c223b3d",29,1
"3118",0,1,714,1,6,2,"c223b3d",30,1
"3216",0,1,999,1,2,2,"c223b3d",31,1
"3314",1,1,759,4,4,2,"c223b3d",32,1
"3414",1,1,574,5,5,2,"c223b3d",33,1
"3514",0,0,633,3,3,2,"c223b3d",34,1
"3614",1,1,862,2,2,2,"c223b3d",35,1
"3714",1,1,472,5,5,2,"c223b3d",36,1
"3814",0,1,395,1,4,2,"c223b3d",37,1
"3914",0,1,453,1,3,2,"c223b3d",38,1
"4014",1,1,540,6,6,2,"c223b3d",39,1
"4118",0,1,433,1,5,2,"c223b3d",40,1
"4216",1,1,558,1,1,2,"c223b3d",41,1
"4314",1,1,541,4,4,2,"c223b3d",42,1
"4414",1,0,339,2,1,2,"c223b3d",43,1
"4514",0,1,383,6,1,2,"c223b3d",44,1
"4614",1,1,421,6,6,2,"c223b3d",45,1
"4714",1,0,440,2,1,2,"c223b3d",46,1
"4814",0,1,428,1,3,2,"c223b3d",47,1
"4914",1,1,466,1,1,2,"c223b3d",48,1
"5014",0,1,436,1,6,2,"c223b3d",49,1
"5118",0,1,403,5,1,2,"c223b3d",50,1
"5216",0,1,360,4,1,2,"c223b3d",51,1
"5314",1,1,506,4,4,2,"c223b3d",52,1
"5414",1,1,668,2,2,2,"c223b3d",53,1
"5514",0,0,852,3,3,2,"c223b3d",54,1
"5614",1,1,645,5,5,2,"c223b3d",55,1
"5714",1,0,445,1,2,2,"c223b3d",56,1
"5814",1,1,645,1,1,2,"c223b3d",57,1
"5914",1,1,386,3,3,2,"c223b3d",58,1
"6014",0,1,318,3,1,2,"c223b3d",59,1
"6118",1,1,886,6,6,2,"c223b3d",60,1
"6216",1,1,651,5,5,2,"c223b3d",61,1
"6314",1,1,661,2,2,2,"c223b3d",62,1
"6414",1,1,817,4,4,2,"c223b3d",63,1
"6514",0,1,591,1,4,2,"c223b3d",64,1
"6614",0,1,649,1,6,2,"c223b3d",65,1
"6714",0,1,491,1,5,2,"c223b3d",66,1
"6814",1,1,448,6,6,2,"c223b3d",67,1
"6914",0,1,569,1,4,2,"c223b3d",68,1
"7014",1,1,398,4,4,2,"c223b3d",69,1
"7118",1,1,342,5,5,2,"c223b3d",70,1
"7216",0,1,330,1,3,2,"c223b3d",71,1
"7314",0,1,860,1,2,2,"c223b3d",72,1
"7414",0,1,969,1,5,2,"c223b3d",73,1
"7514",1,1,1113,2,2,2,"c223b3d",74,1
"7614",1,1,470,3,3,2,"c223b3d",75,1
"7714",1,1,433,1,1,2,"c223b3d",76,1
"7814",0,1,614,6,1,2,"c223b3d",77,1
"290",1,1,713,3,3,2,"1bee965",1,1
"390",1,0,442,1,4,2,"1bee965",2,1
"490",1,1,352,1,1,2,"1bee965",3,1
"590",0,1,496,1,6,2,"1bee965",4,1
"690",0,0,343,4,4,2,"1bee965",5,1
"790",1,1,433,6,6,2,"1bee965",6,1
"815",0,1,566,2,1,2,"1bee965",7,1
"915",1,1,469,2,2,2,"1bee965",8,1
"1015",1,1,291,5,5,2,"1bee965",9,1
"1115",0,1,320,1,5,2,"1bee965",10,1
"1215",0,1,361,3,1,2,"1bee965",11,1
"1315",0,0,435,6,6,2,"1bee965",12,1
"1415",0,1,336,1,5,2,"1bee965",13,1
"1515",0,0,337,2,2,2,"1bee965",14,1
"1615",0,1,469,1,4,2,"1bee965",15,1
"1715",0,1,320,2,1,2,"1bee965",16,1
"1815",0,1,414,1,3,2,"1bee965",17,1
"1915",1,1,473,1,1,2,"1bee965",18,1
"2015",1,1,317,5,5,2,"1bee965",19,1
"2119",1,1,369,3,3,2,"1bee965",20,1
"2217",1,1,351,4,4,2,"1bee965",21,1
"2315",0,1,297,1,6,2,"1bee965",22,1
"2415",1,1,232,4,4,2,"1bee965",23,1
"2515",0,1,459,4,1,2,"1bee965",24,1
"2615",1,1,282,6,6,2,"1bee965",25,1
"2715",0,1,274,3,1,2,"1bee965",26,1
"2815",0,1,314,5,1,2,"1bee965",27,1
"2915",1,1,296,1,1,2,"1bee965",28,1
"3015",0,1,391,6,1,2,"1bee965",29,1
"3119",1,1,290,3,3,2,"1bee965",30,1
"3217",1,0,441,1,2,2,"1bee965",31,1
"3315",1,1,399,5,5,2,"1bee965",32,1
"3415",1,1,233,2,2,2,"1bee965",33,1
"3515",1,1,189,4,4,2,"1bee965",34,1
"3615",1,1,252,1,1,2,"1bee965",35,1
"3715",1,1,543,3,3,2,"1bee965",36,1
"3815",1,1,609,2,2,2,"1bee965",37,1
"3915",0,1,365,1,4,2,"1bee965",38,1
"4015",1,1,330,6,6,2,"1bee965",39,1
"4119",0,1,393,1,3,2,"1bee965",40,1
"4217",0,1,315,6,1,2,"1bee965",41,1
"4315",0,1,304,1,2,2,"1bee965",42,1
"4415",0,1,506,5,1,2,"1bee965",43,1
"4515",1,1,181,5,5,2,"1bee965",44,1
"4615",0,1,300,3,1,2,"1bee965",45,1
"4715",0,1,381,1,4,2,"1bee965",46,1
"4815",1,1,501,3,3,2,"1bee965",47,1
"4915",1,1,308,1,1,2,"1bee965",48,1
"5015",1,1,314,4,4,2,"1bee965",49,1
"5119",1,1,354,5,5,2,"1bee965",50,1
"5217",0,1,484,2,1,2,"1bee965",51,1
"5315",0,1,278,6,1,2,"1bee965",52,1
"5415",1,1,319,6,6,2,"1bee965",53,1
"5515",1,1,294,2,2,2,"1bee965",54,1
"5615",0,1,384,5,1,2,"1bee965",55,1
"5715",1,1,330,1,1,2,"1bee965",56,1
"5815",0,1,330,4,1,2,"1bee965",57,1
"5915",0,1,286,1,5,2,"1bee965",58,1
"6015",1,1,443,5,5,2,"1bee965",59,1
"6119",1,1,286,2,2,2,"1bee965",60,1
"6217",0,1,237,1,6,2,"1bee965",61,1
"6315",1,1,321,3,3,2,"1bee965",62,1
"6415",1,1,357,4,4,2,"1bee965",63,1
"6515",0,1,402,3,1,2,"1bee965",64,1
"6615",1,1,346,6,6,2,"1bee965",65,1
"6715",0,1,152,1,2,2,"1bee965",66,1
"6815",1,1,335,1,1,2,"1bee965",67,1
"6915",0,1,282,6,1,2,"1bee965",68,1
"7015",0,1,311,1,4,2,"1bee965",69,1
"7119",0,1,294,1,5,2,"1bee965",70,1
"7217",0,0,293,2,2,2,"1bee965",71,1
"7315",1,1,301,4,4,2,"1bee965",72,1
"7415",0,1,285,3,1,2,"1bee965",73,1
"7515",1,1,266,6,6,2,"1bee965",74,1
"7615",1,1,319,3,3,2,"1bee965",75,1
"7715",1,1,251,5,5,2,"1bee965",76,1
"7815",0,1,316,2,1,2,"1bee965",77,1
"2100",1,0,1513,3,1,1,"1a6c98e",1,1
"3100",1,1,772,6,6,1,"1a6c98e",2,1
"4100",1,1,567,2,2,1,"1a6c98e",3,1
"5100",1,0,827,5,1,1,"1a6c98e",4,1
"6100",1,0,667,1,4,1,"1a6c98e",5,1
"791",1,1,807,4,4,1,"1a6c98e",6,1
"816",0,1,1216,2,1,1,"1a6c98e",7,1
"916",0,1,910,6,1,1,"1a6c98e",8,1
"1016",1,1,822,1,1,1,"1a6c98e",9,1
"1116",1,1,726,5,5,1,"1a6c98e",10,1
"1216",1,1,621,3,3,1,"1a6c98e",11,1
"1316",0,1,1040,1,3,1,"1a6c98e",12,1
"1416",1,1,1741,6,6,1,"1a6c98e",13,1
"1516",1,1,656,1,1,1,"1a6c98e",14,1
"1616",0,1,1,4,1,1,"1a6c98e",15,1
"1716",1,1,690,3,3,1,"1a6c98e",16,1
"1816",0,1,692,1,6,1,"1a6c98e",17,1
"1916",1,1,1234,4,4,1,"1a6c98e",18,1
"2016",0,1,644,1,2,1,"1a6c98e",19,1
"2120",1,1,841,2,2,1,"1a6c98e",20,1
"2218",1,1,777,5,5,1,"1a6c98e",21,1
"2316",0,1,416,1,5,1,"1a6c98e",22,1
"2416",1,1,412,5,5,1,"1a6c98e",23,1
"2516",0,1,590,5,1,1,"1a6c98e",24,1
"2616",0,1,703,1,3,1,"1a6c98e",25,1
"2716",1,1,1105,2,2,1,"1a6c98e",26,1
"2816",0,1,584,1,6,1,"1a6c98e",27,1
"2916",0,1,727,1,4,1,"1a6c98e",28,1
"3016",1,1,782,4,4,1,"1a6c98e",29,1
"3120",1,1,655,6,6,1,"1a6c98e",30,1
"3218",1,1,1327,3,3,1,"1a6c98e",31,1
"3316",0,1,1230,2,1,1,"1a6c98e",32,1
"3416",1,1,782,1,1,1,"1a6c98e",33,1
"3516",1,1,553,4,4,1,"1a6c98e",34,1
"3616",0,1,897,1,4,1,"1a6c98e",35,1
"3716",1,1,939,1,1,1,"1a6c98e",36,1
"3816",1,1,591,3,3,1,"1a6c98e",37,1
"3916",1,1,609,6,6,1,"1a6c98e",38,1
"4016",0,1,806,5,1,1,"1a6c98e",39,1
"4120",1,1,1746,2,2,1,"1a6c98e",40,1
"4218",0,1,1408,6,1,1,"1a6c98e",41,1
"4316",0,1,897,1,3,1,"1a6c98e",42,1
"4416",1,1,1617,5,5,1,"1a6c98e",43,1
"4516",0,1,957,2,1,1,"1a6c98e",44,1
"4616",1,1,1406,3,3,1,"1a6c98e",45,1
"4716",-1,-1,0,4,1,1,"1a6c98e",46,1
"4816",1,1,1200,5,5,1,"1a6c98e",47,1
"4916",0,1,1159,1,2,1,"1a6c98e",48,1
"5016",1,1,539,2,2,1,"1a6c98e",49,1
"5120",0,1,1125,3,1,1,"1a6c98e",50,1
"5218",-1,-1,0,1,1,1,"1a6c98e",51,1
"5316",0,1,771,1,6,1,"1a6c98e",52,1
"5416",1,1,632,6,6,1,"1a6c98e",53,1
"5516",-1,-1,0,4,4,1,"1a6c98e",54,1
"5616",1,0,1838,5,1,1,"1a6c98e",55,1
"5716",-1,-1,0,6,6,1,"1a6c98e",56,1
"5816",0,1,1004,4,1,1,"1a6c98e",57,1
"5916",1,1,990,4,4,1,"1a6c98e",58,1
"6016",0,1,700,6,1,1,"1a6c98e",59,1
"6120",1,1,1316,1,1,1,"1a6c98e",60,1
"6218",1,1,709,5,5,1,"1a6c98e",61,1
"6316",0,0,1873,3,3,1,"1a6c98e",62,1
"6416",0,1,894,2,1,1,"1a6c98e",63,1
"6516",1,1,1032,2,2,1,"1a6c98e",64,1
"6616",0,1,432,5,1,1,"1a6c98e",65,1
"6716",0,1,607,3,1,1,"1a6c98e",66,1
"6816",1,1,514,4,4,1,"1a6c98e",67,1
"6916",0,1,501,1,5,1,"1a6c98e",68,1
"7016",0,1,1368,4,1,1,"1a6c98e",69,1
"7120",1,1,713,1,1,1,"1a6c98e",70,1
"7218",1,1,434,3,3,1,"1a6c98e",71,1
"7316",0,1,513,1,6,1,"1a6c98e",72,1
"7416",0,1,1571,3,1,1,"1a6c98e",73,1
"7516",1,1,945,2,2,1,"1a6c98e",74,1
"7616",1,1,606,6,6,1,"1a6c98e",75,1
"7716",1,1,647,5,5,1,"1a6c98e",76,1
"7816",0,1,905,2,1,1,"1a6c98e",77,1
"2101",1,1,559,5,5,1,"1545656",1,1
"3101",1,0,351,6,1,1,"1545656",2,1
"4101",1,1,342,2,2,1,"1545656",3,1
"5101",0,1,377,3,1,1,"1545656",4,1
"6101",1,1,496,3,3,1,"1545656",5,1
"792",1,0,473,4,1,1,"1545656",6,1
"817",0,1,405,1,5,1,"1545656",7,1
"917",1,1,457,6,6,1,"1545656",8,1
"1017",1,1,320,4,4,1,"1545656",9,1
"1117",0,1,352,1,2,1,"1545656",10,1
"1217",1,1,229,1,1,1,"1545656",11,1
"1317",0,1,389,1,6,1,"1545656",12,1
"1417",0,1,252,1,3,1,"1545656",13,1
"1517",0,1,282,2,1,1,"1545656",14,1
"1617",0,1,278,5,1,1,"1545656",15,1
"1717",1,1,349,3,3,1,"1545656",16,1
"1817",1,1,430,6,6,1,"1545656",17,1
"1917",0,1,309,4,1,1,"1545656",18,1
"2017",1,1,422,5,5,1,"1545656",19,1
"2121",1,1,465,2,2,1,"1545656",20,1
"2219",1,1,437,1,1,1,"1545656",21,1
"2317",1,1,1650,4,4,1,"1545656",22,1
"2417",0,1,964,6,1,1,"1545656",23,1
"2517",-1,-1,0,4,1,1,"1545656",24,1
"2617",0,1,570,2,1,1,"1545656",25,1
"2717",1,1,1002,5,5,1,"1545656",26,1
"2817",0,1,391,3,1,1,"1545656",27,1
"2917",1,1,343,3,3,1,"1545656",28,1
"3017",1,1,261,6,6,1,"1545656",29,1
"3121",1,1,450,4,4,1,"1545656",30,1
"3219",0,1,257,5,1,1,"1545656",31,1
"3317",1,1,16,1,1,1,"1545656",32,1
"3417",1,1,252,2,2,1,"1545656",33,1
"3517",1,1,383,3,3,1,"1545656",34,1
"3617",0,1,305,1,2,1,"1545656",35,1
"3717",0,1,477,1,3,1,"1545656",36,1
"3817",0,1,482,4,1,1,"1545656",37,1
"3917",0,1,276,5,1,1,"1545656",38,1
"4017",1,1,819,6,6,1,"1545656",39,1
"4121",1,1,327,4,4,1,"1545656",40,1
"4219",1,1,289,5,5,1,"1545656",41,1
"4317",1,1,351,2,2,1,"1545656",42,1
"4417",1,1,11,1,1,1,"1545656",43,1
"4517",0,1,373,1,6,1,"1545656",44,1
"4617",0,1,237,3,1,1,"1545656",45,1
"4717",0,1,214,4,1,1,"1545656",46,1
"4817",0,1,255,1,5,1,"1545656",47,1
"4917",0,1,314,2,1,1,"1545656",48,1
"5017",1,1,261,3,3,1,"1545656",49,1
"5121",1,1,215,1,1,1,"1545656",50,1
"5219",0,1,339,1,6,1,"1545656",51,1
"5317",1,1,397,2,2,1,"1545656",52,1
"5417",1,1,516,4,4,1,"1545656",53,1
"5517",1,1,434,5,5,1,"1545656",54,1
"5617",1,1,264,6,6,1,"1545656",55,1
"5717",0,1,252,5,1,1,"1545656",56,1
"5817",0,1,271,1,3,1,"1545656",57,1
"5917",1,1,523,4,4,1,"1545656",58,1
"6017",0,1,455,1,2,1,"1545656",59,1
"6121",0,1,482,6,1,1,"1545656",60,1
"6219",1,1,505,6,6,1,"1545656",61,1
"6317",1,1,256,2,2,1,"1545656",62,1
"6417",1,1,381,3,3,1,"1545656",63,1
"6517",1,1,391,1,1,1,"1545656",64,1
"6617",0,1,412,1,4,1,"1545656",65,1
"6717",1,1,500,5,5,1,"1545656",66,1
"6817",1,1,248,1,1,1,"1545656",67,1
"6917",1,1,331,6,6,1,"1545656",68,1
"7017",0,1,371,1,5,1,"1545656",69,1
"7121",0,1,253,3,1,1,"1545656",70,1
"7219",1,1,494,3,3,1,"1545656",71,1
"7317",1,1,263,5,5,1,"1545656",72,1
"7417",0,1,289,4,1,1,"1545656",73,1
"7517",1,1,373,2,2,1,"1545656",74,1
"7617",0,1,309,2,1,1,"1545656",75,1
"7717",1,1,416,4,4,1,"1545656",76,1
"7817",0,1,164,1,6,1,"1545656",77,1
"2102",1,1,761,5,5,2,"11967ad",1,1
"3102",1,1,612,6,6,2,"11967ad",2,1
"4102",1,0,376,1,3,2,"11967ad",3,1
"5102",1,0,18,6,1,2,"11967ad",4,1
"6102",0,1,513,1,4,2,"11967ad",5,1
"793",1,1,372,1,1,2,"11967ad",6,1
"818",1,0,686,1,2,2,"11967ad",7,1
"918",0,1,339,5,1,2,"11967ad",8,1
"1018",1,1,415,2,2,2,"11967ad",9,1
"1118",1,1,533,3,3,2,"11967ad",10,1
"1218",1,1,620,4,4,2,"11967ad",11,1
"1318",0,1,515,4,1,2,"11967ad",12,1
"1418",0,1,289,1,6,2,"11967ad",13,1
"1518",1,1,419,4,4,2,"11967ad",14,1
"1618",1,1,949,1,1,2,"11967ad",15,1
"1718",1,1,323,5,5,2,"11967ad",16,1
"1818",0,1,449,3,1,2,"11967ad",17,1
"1918",1,1,338,6,6,2,"11967ad",18,1
"2018",1,1,778,3,3,2,"11967ad",19,1
"2122",1,0,75,2,1,2,"11967ad",20,1
"2220",0,1,687,1,5,2,"11967ad",21,1
"2318",1,1,355,2,2,2,"11967ad",22,1
"2418",0,1,356,1,3,2,"11967ad",23,1
"2518",1,1,729,5,5,2,"11967ad",24,1
"2618",1,1,444,4,4,2,"11967ad",25,1
"2718",0,1,363,6,1,2,"11967ad",26,1
"2818",0,0,415,3,3,2,"11967ad",27,1
"2918",0,1,493,1,2,2,"11967ad",28,1
"3018",0,1,924,5,1,2,"11967ad",29,1
"3122",0,0,327,6,6,2,"11967ad",30,1
"3220",0,0,1112,1,1,2,"11967ad",31,1
"3318",1,1,392,2,2,2,"11967ad",32,1
"3418",0,1,702,1,4,2,"11967ad",33,1
"3518",1,1,526,6,6,2,"11967ad",34,1
"3618",0,1,348,4,1,2,"11967ad",35,1
"3718",1,1,437,1,1,2,"11967ad",36,1
"3818",1,0,408,3,1,2,"11967ad",37,1
"3918",0,1,512,6,1,2,"11967ad",38,1
"4018",0,1,456,5,1,2,"11967ad",39,1
"4122",1,1,354,4,4,2,"11967ad",40,1
"4220",1,1,268,3,3,2,"11967ad",41,1
"4318",1,0,886,2,1,2,"11967ad",42,1
"4418",1,1,650,2,2,2,"11967ad",43,1
"4518",1,1,466,5,5,2,"11967ad",44,1
"4618",1,1,325,3,3,2,"11967ad",45,1
"4718",-1,0,510,5,1,2,"11967ad",46,1
"4818",1,1,569,4,4,2,"11967ad",47,1
"4918",1,0,578,1,2,2,"11967ad",48,1
"5018",1,1,440,2,2,2,"11967ad",49,1
"5122",0,1,684,1,4,2,"11967ad",50,1
"5220",0,1,334,3,1,2,"11967ad",51,1
"5318",0,1,517,6,1,2,"11967ad",52,1
"5418",-1,0,773,1,1,2,"11967ad",53,1
"5518",1,1,406,5,5,2,"11967ad",54,1
"5618",1,1,451,6,6,2,"11967ad",55,1
"5718",0,1,614,6,1,2,"11967ad",56,1
"5818",1,1,433,4,4,2,"11967ad",57,1
"5918",1,1,526,6,6,2,"11967ad",58,1
"6018",0,1,419,1,4,2,"11967ad",59,1
"6122",1,1,324,5,5,2,"11967ad",60,1
"6220",0,1,510,3,1,2,"11967ad",61,1
"6318",0,1,510,1,5,2,"11967ad",62,1
"6418",1,0,524,2,1,2,"11967ad",63,1
"6518",1,1,399,1,1,2,"11967ad",64,1
"6618",1,1,251,2,2,2,"11967ad",65,1
"6718",1,1,432,3,3,2,"11967ad",66,1
"6818",0,1,412,1,3,2,"11967ad",67,1
"6918",1,1,726,6,6,2,"11967ad",68,1
"7018",1,1,520,4,4,2,"11967ad",69,1
"7122",0,1,399,5,1,2,"11967ad",70,1
"7220",1,1,359,2,2,2,"11967ad",71,1
"7318",0,1,425,1,4,2,"11967ad",72,1
"7418",1,1,346,3,3,2,"11967ad",73,1
"7518",1,1,633,5,5,2,"11967ad",74,1
"7618",0,1,363,1,2,2,"11967ad",75,1
"7718",0,1,282,1,6,2,"11967ad",76,1
"7818",1,1,506,1,1,2,"11967ad",77,1
"2103",1,0,1357,6,1,3,"63b3c45",1,1
"3103",1,1,663,1,1,3,"63b3c45",2,1
"4103",1,1,396,3,3,3,"63b3c45",3,1
"5103",1,1,322,2,2,3,"63b3c45",4,1
"6103",1,1,405,6,6,3,"63b3c45",5,1
"794",1,1,531,4,4,3,"63b3c45",6,1
"819",1,0,347,1,4,3,"63b3c45",7,1
"919",1,1,314,5,5,3,"63b3c45",8,1
"1019",0,1,333,1,2,3,"63b3c45",9,1
"1119",1,0,382,1,5,3,"63b3c45",10,1
"1219",1,0,244,1,3,3,"63b3c45",11,1
"1319",0,0,473,5,5,3,"63b3c45",12,1
"1419",0,1,377,1,3,3,"63b3c45",13,1
"1519",0,0,636,6,6,3,"63b3c45",14,1
"1619",1,1,242,4,4,3,"63b3c45",15,1
"1719",1,0,732,5,1,3,"63b3c45",16,1
"1819",0,0,775,2,2,3,"63b3c45",17,1
"1919",1,0,547,4,1,3,"63b3c45",18,1
"2019",0,1,266,1,2,3,"63b3c45",19,1
"2123",1,0,127,1,6,3,"63b3c45",20,1
"2221",1,1,217,3,3,3,"63b3c45",21,1
"2319",1,1,420,1,1,3,"63b3c45",22,1
"2419",0,0,314,3,3,3,"63b3c45",23,1
"2519",1,1,248,5,5,3,"63b3c45",24,1
"2619",0,1,220,1,5,3,"63b3c45",25,1
"2719",1,0,327,6,1,3,"63b3c45",26,1
"2819",1,0,526,1,4,3,"63b3c45",27,1
"2919",1,0,283,1,2,3,"63b3c45",28,1
"3019",1,1,234,1,1,3,"63b3c45",29,1
"3123",0,1,219,1,3,3,"63b3c45",30,1
"3221",0,0,400,6,6,3,"63b3c45",31,1
"3319",0,0,165,4,4,3,"63b3c45",32,1
"3419",0,0,264,2,2,3,"63b3c45",33,1
"3519",1,1,36,4,4,3,"63b3c45",34,1
"3619",1,1,31,5,5,3,"63b3c45",35,1
"3719",0,1,737,6,1,3,"63b3c45",36,1
"3819",1,0,360,1,3,3,"63b3c45",37,1
"3919",1,1,235,6,6,3,"63b3c45",38,1
"4019",0,0,221,2,2,3,"63b3c45",39,1
"4123",1,1,2,1,1,3,"63b3c45",40,1
"4221",0,1,1145,5,1,3,"63b3c45",41,1
"4319",0,1,282,4,1,3,"63b3c45",42,1
"4419",1,1,594,3,3,3,"63b3c45",43,1
"4519",1,0,380,1,2,3,"63b3c45",44,1
"4619",1,1,13,6,6,3,"63b3c45",45,1
"4719",0,1,767,1,2,3,"63b3c45",46,1
"4819",0,0,288,3,3,3,"63b3c45",47,1
"4919",1,1,240,4,4,3,"63b3c45",48,1
"5019",1,0,297,1,6,3,"63b3c45",49,1
"5123",1,1,131,5,5,3,"63b3c45",50,1
"5221",0,1,69,1,5,3,"63b3c45",51,1
"5319",0,0,33,1,1,3,"63b3c45",52,1
"5419",1,0,577,1,4,3,"63b3c45",53,1
"5519",0,0,43,2,2,3,"63b3c45",54,1
"5619",1,0,255,3,1,3,"63b3c45",55,1
"5719",1,0,47,2,1,3,"63b3c45",56,1
"5819",0,1,466,4,1,3,"63b3c45",57,1
"5919",1,1,57,5,5,3,"63b3c45",58,1
"6019",0,0,252,6,6,3,"63b3c45",59,1
"6123",1,1,277,2,2,3,"63b3c45",60,1
"6221",1,1,170,4,4,3,"63b3c45",61,1
"6319",1,1,203,3,3,3,"63b3c45",62,1
"6419",1,0,54,1,5,3,"63b3c45",63,1
"6519",1,1,118,1,1,3,"63b3c45",64,1
"6619",1,0,402,1,3,3,"63b3c45",65,1
"6719",0,1,371,6,1,3,"63b3c45",66,1
"6819",1,1,546,2,2,3,"63b3c45",67,1
"6919",1,0,222,1,6,3,"63b3c45",68,1
"7019",1,1,445,3,3,3,"63b3c45",69,1
"7123",1,1,755,5,5,3,"63b3c45",70,1
"7221",1,1,236,4,4,3,"63b3c45",71,1
"7319",1,1,29,1,1,3,"63b3c45",72,1
"7419",1,0,487,3,1,3,"63b3c45",73,1
"7519",1,1,503,6,6,3,"63b3c45",74,1
"7619",1,0,37,1,2,3,"63b3c45",75,1
"7719",1,0,219,4,1,3,"63b3c45",76,1
"7819",1,0,32,1,5,3,"63b3c45",77,1
"2104",1,1,612,5,5,3,"1510d9a",1,1
"3104",1,0,467,1,6,3,"1510d9a",2,1
"4104",1,0,616,1,3,3,"1510d9a",3,1
"5104",1,0,501,2,1,3,"1510d9a",4,1
"6104",0,0,355,4,4,3,"1510d9a",5,1
"795",1,0,633,5,1,3,"1510d9a",6,1
"820",1,1,810,6,6,3,"1510d9a",7,1
"920",1,1,616,3,3,3,"1510d9a",8,1
"1020",0,0,866,1,1,3,"1510d9a",9,1
"1120",1,1,705,2,2,3,"1510d9a",10,1
"1220",1,0,478,4,1,3,"1510d9a",11,1
"1320",1,0,1204,4,1,3,"1510d9a",12,1
"1420",1,1,981,5,5,3,"1510d9a",13,1
"1520",0,0,365,3,3,3,"1510d9a",14,1
"1620",1,1,661,2,2,3,"1510d9a",15,1
"1720",1,0,523,1,5,3,"1510d9a",16,1
"1820",0,0,965,6,6,3,"1510d9a",17,1
"1920",1,0,804,3,1,3,"1510d9a",18,1
"2020",0,1,353,1,6,3,"1510d9a",19,1
"2124",1,1,543,1,1,3,"1510d9a",20,1
"2222",0,1,448,1,2,3,"1510d9a",21,1
"2320",0,0,1025,4,4,3,"1510d9a",22,1
"2420",0,1,567,1,5,3,"1510d9a",23,1
"2520",0,1,325,6,1,3,"1510d9a",24,1
"2620",1,1,895,3,3,3,"1510d9a",25,1
"2720",0,1,429,1,4,3,"1510d9a",26,1
"2820",0,1,579,1,2,3,"1510d9a",27,1
"2920",1,1,372,2,2,3,"1510d9a",28,1
"3020",1,0,394,1,3,3,"1510d9a",29,1
"3124",1,1,409,4,4,3,"1510d9a",30,1
"3222",1,1,305,6,6,3,"1510d9a",31,1
"3320",1,1,496,5,5,3,"1510d9a",32,1
"3420",1,1,433,1,1,3,"1510d9a",33,1
"3520",0,1,384,5,1,3,"1510d9a",34,1
"3620",1,1,327,3,3,3,"1510d9a",35,1
"3720",0,1,294,1,3,3,"1510d9a",36,1
"3820",1,1,318,5,5,3,"1510d9a",37,1
"3920",1,1,452,2,2,3,"1510d9a",38,1
"4020",0,1,307,2,1,3,"1510d9a",39,1
"4124",1,1,1422,6,6,3,"1510d9a",40,1
"4222",0,1,376,1,4,3,"1510d9a",41,1
"4320",1,1,416,1,1,3,"1510d9a",42,1
"4420",1,1,358,4,4,3,"1510d9a",43,1
"4520",0,1,972,1,6,3,"1510d9a",44,1
"4620",0,0,900,5,5,3,"1510d9a",45,1
"4720",1,1,325,3,3,3,"1510d9a",46,1
"4820",1,1,325,1,1,3,"1510d9a",47,1
"4920",1,1,277,6,6,3,"1510d9a",48,1
"5020",1,1,356,2,2,3,"1510d9a",49,1
"5124",0,1,530,3,1,3,"1510d9a",50,1
"5222",1,0,313,2,1,3,"1510d9a",51,1
"5320",0,1,426,1,5,3,"1510d9a",52,1
"5420",0,1,428,4,1,3,"1510d9a",53,1
"5520",0,1,337,1,6,3,"1510d9a",54,1
"5620",1,1,361,4,4,3,"1510d9a",55,1
"5720",0,1,295,3,1,3,"1510d9a",56,1
"5820",0,1,357,5,1,3,"1510d9a",57,1
"5920",1,1,351,2,2,3,"1510d9a",58,1
"6020",0,1,356,4,1,3,"1510d9a",59,1
"6124",1,1,483,6,6,3,"1510d9a",60,1
"6222",1,1,308,5,5,3,"1510d9a",61,1
"6320",1,1,363,1,1,3,"1510d9a",62,1
"6420",0,1,289,1,6,3,"1510d9a",63,1
"6520",1,0,440,2,1,3,"1510d9a",64,1
"6620",1,1,275,3,3,3,"1510d9a",65,1
"6720",1,1,299,4,4,3,"1510d9a",66,1
"6820",1,1,451,5,5,3,"1510d9a",67,1
"6920",1,1,632,2,2,3,"1510d9a",68,1
"7020",1,1,403,4,4,3,"1510d9a",69,1
"7124",0,1,353,6,1,3,"1510d9a",70,1
"7222",1,1,304,6,6,3,"1510d9a",71,1
"7320",0,1,399,1,5,3,"1510d9a",72,1
"7420",0,1,429,1,2,3,"1510d9a",73,1
"7520",1,1,253,1,1,3,"1510d9a",74,1
"7620",1,1,317,3,3,3,"1510d9a",75,1
"7720",0,1,548,1,3,3,"1510d9a",76,1
"7820",0,1,452,1,4,3,"1510d9a",77,1
"2105",-1,-1,0,6,1,2,"1106b05",1,1
"3105",-1,-1,0,3,3,2,"1106b05",2,1
"4105",1,1,893,4,4,2,"1106b05",3,1
"5105",1,1,494,5,5,2,"1106b05",4,1
"6105",1,1,600,1,1,2,"1106b05",5,1
"796",1,1,361,6,6,2,"1106b05",6,1
"821",1,1,851,2,2,2,"1106b05",7,1
"921",1,0,339,4,1,2,"1106b05",8,1
"1021",1,0,341,1,5,2,"1106b05",9,1
"1121",1,0,1102,3,1,2,"1106b05",10,1
"1221",0,1,470,2,1,2,"1106b05",11,1
"1321",1,1,585,2,2,2,"1106b05",12,1
"1421",1,0,528,5,1,2,"1106b05",13,1
"1521",0,0,436,1,1,2,"1106b05",14,1
"1621",1,1,546,4,4,2,"1106b05",15,1
"1721",1,1,420,5,5,2,"1106b05",16,1
"1821",1,0,678,4,1,2,"1106b05",17,1
"1921",1,0,368,3,1,2,"1106b05",18,1
"2021",1,1,489,3,3,2,"1106b05",19,1
"2125",1,0,612,1,6,2,"1106b05",20,1
"2223",1,0,411,2,1,2,"1106b05",21,1
"2321",1,1,525,6,6,2,"1106b05",22,1
"2421",1,0,429,1,2,2,"1106b05",23,1
"2521",1,1,527,4,4,2,"1106b05",24,1
"2621",1,1,352,3,3,2,"1106b05",25,1
"2721",0,1,467,1,3,2,"1106b05",26,1
"2821",1,0,476,1,4,2,"1106b05",27,1
"2921",1,1,366,6,6,2,"1106b05",28,1
"3021",0,1,629,1,5,2,"1106b05",29,1
"3125",0,1,727,6,1,2,"1106b05",30,1
"3223",1,1,344,2,2,2,"1106b05",31,1
"3321",1,1,315,5,5,2,"1106b05",32,1
"3421",0,0,394,1,1,2,"1106b05",33,1
"3521",0,1,367,6,1,2,"1106b05",34,1
"3621",1,1,343,6,6,2,"1106b05",35,1
"3721",1,1,393,4,4,2,"1106b05",36,1
"3821",0,0,488,3,3,2,"1106b05",37,1
"3921",1,1,330,5,5,2,"1106b05",38,1
"4021",1,1,282,2,2,2,"1106b05",39,1
"4125",0,1,805,5,1,2,"1106b05",40,1
"4223",0,1,341,4,1,2,"1106b05",41,1
"4321",0,1,423,1,3,2,"1106b05",42,1
"4421",0,1,319,2,1,2,"1106b05",43,1
"4521",1,1,337,1,1,2,"1106b05",44,1
"4621",0,1,425,1,5,2,"1106b05",45,1
"4721",1,1,387,5,5,2,"1106b05",46,1
"4821",0,1,298,1,3,2,"1106b05",47,1
"4921",1,1,294,3,3,2,"1106b05",48,1
"5021",1,1,318,6,6,2,"1106b05",49,1
"5125",0,1,433,1,6,2,"1106b05",50,1
"5223",1,1,368,2,2,2,"1106b05",51,1
"5321",1,1,330,1,1,2,"1106b05",52,1
"5421",0,1,410,4,1,2,"1106b05",53,1
"5521",1,1,421,4,4,2,"1106b05",54,1
"5621",0,1,324,2,1,2,"1106b05",55,1
"5721",1,1,536,5,5,2,"1106b05",56,1
"5821",0,1,376,3,1,2,"1106b05",57,1
"5921",0,1,332,1,4,2,"1106b05",58,1
"6021",0,1,546,6,1,2,"1106b05",59,1
"6125",1,1,1157,3,3,2,"1106b05",60,1
"6223",1,1,357,2,2,2,"1106b05",61,1
"6321",0,1,344,5,1,2,"1106b05",62,1
"6421",1,1,657,4,4,2,"1106b05",63,1
"6521",1,1,331,1,1,2,"1106b05",64,1
"6621",1,1,595,6,6,2,"1106b05",65,1
"6721",1,0,797,2,1,2,"1106b05",66,1
"6821",1,1,438,3,3,2,"1106b05",67,1
"6921",1,1,320,2,2,2,"1106b05",68,1
"7021",0,1,312,1,6,2,"1106b05",69,1
"7125",1,1,428,6,6,2,"1106b05",70,1
"7223",0,1,379,1,2,2,"1106b05",71,1
"7321",1,1,566,4,4,2,"1106b05",72,1
"7421",0,1,367,1,5,2,"1106b05",73,1
"7521",1,1,385,1,1,2,"1106b05",74,1
"7621",0,1,328,3,1,2,"1106b05",75,1
"7721",1,1,315,5,5,2,"1106b05",76,1
"7821",0,1,827,4,1,2,"1106b05",77,1
"2106",1,0,81,4,1,3,"17eb20f",1,1
"3106",1,1,646,1,1,3,"17eb20f",2,1
"4106",0,0,271,2,2,3,"17eb20f",3,1
"5106",0,0,318,6,6,3,"17eb20f",4,1
"6106",1,1,408,3,3,3,"17eb20f",5,1
"797",1,0,262,2,1,3,"17eb20f",6,1
"822",1,1,261,5,5,3,"17eb20f",7,1
"922",1,0,299,1,5,3,"17eb20f",8,1
"1022",0,1,522,3,1,3,"17eb20f",9,1
"1122",1,0,242,1,6,3,"17eb20f",10,1
"1222",1,1,280,4,4,3,"17eb20f",11,1
"1322",1,1,335,3,3,3,"17eb20f",12,1
"1422",0,0,391,2,2,3,"17eb20f",13,1
"1522",1,0,255,1,5,3,"17eb20f",14,1
"1622",0,1,375,1,4,3,"17eb20f",15,1
"1722",0,0,261,5,5,3,"17eb20f",16,1
"1822",0,1,246,6,1,3,"17eb20f",17,1
"1922",1,1,383,1,1,3,"17eb20f",18,1
"2022",1,0,272,3,1,3,"17eb20f",19,1
"2126",1,1,302,4,4,3,"17eb20f",20,1
"2224",1,1,499,6,6,3,"17eb20f",21,1
"2322",0,1,403,1,2,3,"17eb20f",22,1
"2422",0,1,345,1,6,3,"17eb20f",23,1
"2522",1,0,264,1,3,3,"17eb20f",24,1
"2622",0,1,279,1,5,3,"17eb20f",25,1
"2722",1,1,91,4,4,3,"17eb20f",26,1
"2822",1,1,227,1,1,3,"17eb20f",27,1
"2922",0,0,140,6,6,3,"17eb20f",28,1
"3022",0,0,889,2,2,3,"17eb20f",29,1
"3126",0,0,382,3,3,3,"17eb20f",30,1
"3224",1,0,306,4,1,3,"17eb20f",31,1
"3322",1,0,296,2,1,3,"17eb20f",32,1
"3422",0,0,846,5,5,3,"17eb20f",33,1
"3522",1,0,823,6,1,3,"17eb20f",34,1
"3622",0,0,1807,3,3,3,"17eb20f",35,1
"3722",1,0,485,1,3,3,"17eb20f",36,1
"3822",1,1,260,4,4,3,"17eb20f",37,1
"3922",0,1,236,4,1,3,"17eb20f",38,1
"4022",1,1,369,5,5,3,"17eb20f",39,1
"4126",1,1,322,6,6,3,"17eb20f",40,1
"4224",0,1,1059,1,2,3,"17eb20f",41,1
"4322",1,0,1898,5,1,3,"17eb20f",42,1
"4422",1,1,432,2,2,3,"17eb20f",43,1
"4522",1,1,319,1,1,3,"17eb20f",44,1
"4622",1,0,277,4,1,3,"17eb20f",45,1
"4722",1,1,268,4,4,3,"17eb20f",46,1
"4822",1,0,626,3,1,3,"17eb20f",47,1
"4922",-1,-1,0,1,6,3,"17eb20f",48,1
"5022",1,0,1895,1,2,3,"17eb20f",49,1
"5126",0,0,439,5,5,3,"17eb20f",50,1
"5224",1,1,325,3,3,3,"17eb20f",51,1
"5322",1,0,373,1,5,3,"17eb20f",52,1
"5422",0,0,273,2,2,3,"17eb20f",53,1
"5522",1,1,564,6,6,3,"17eb20f",54,1
"5622",1,1,296,1,1,3,"17eb20f",55,1
"5722",1,0,727,1,3,3,"17eb20f",56,1
"5822",1,1,253,6,6,3,"17eb20f",57,1
"5922",0,1,260,1,6,3,"17eb20f",58,1
"6022",1,1,65,1,1,3,"17eb20f",59,1
"6126",0,0,246,2,2,3,"17eb20f",60,1
"6224",0,0,424,4,4,3,"17eb20f",61,1
"6322",1,0,176,4,1,3,"17eb20f",62,1
"6422",1,0,330,1,2,3,"17eb20f",63,1
"6522",0,0,285,5,5,3,"17eb20f",64,1
"6622",0,0,899,3,3,3,"17eb20f",65,1
"6722",0,1,186,1,5,3,"17eb20f",66,1
"6822",1,0,219,5,1,3,"17eb20f",67,1
"6922",0,1,292,1,6,3,"17eb20f",68,1
"7022",1,1,1107,2,2,3,"17eb20f",69,1
"7126",0,1,147,3,1,3,"17eb20f",70,1
"7224",0,0,247,6,6,3,"17eb20f",71,1
"7322",0,0,262,4,4,3,"17eb20f",72,1
"7422",1,0,317,4,1,3,"17eb20f",73,1
"7522",1,1,243,3,3,3,"17eb20f",74,1
"7622",1,1,379,5,5,3,"17eb20f",75,1
"7722",0,0,401,1,1,3,"17eb20f",76,1
"7822",0,1,232,2,1,3,"17eb20f",77,1
"2107",1,1,237,5,5,2,"1949a39",1,1
"3107",1,0,525,1,2,2,"1949a39",2,1
"4107",0,1,543,4,1,2,"1949a39",3,1
"5107",0,0,632,6,6,2,"1949a39",4,1
"6107",0,1,571,1,6,2,"1949a39",5,1
"798",0,0,532,1,1,2,"1949a39",6,1
"823",1,1,443,4,4,2,"1949a39",7,1
"923",1,1,1113,2,2,2,"1949a39",8,1
"1023",1,0,512,1,5,2,"1949a39",9,1
"1123",0,1,421,1,3,2,"1949a39",10,1
"1223",0,0,415,3,3,2,"1949a39",11,1
"1323",1,0,398,2,1,2,"1949a39",12,1
"1423",0,0,468,6,6,2,"1949a39",13,1
"1523",1,1,469,3,3,2,"1949a39",14,1
"1623",1,1,486,2,2,2,"1949a39",15,1
"1723",1,0,517,3,1,2,"1949a39",16,1
"1823",0,0,568,1,1,2,"1949a39",17,1
"1923",1,0,421,6,1,2,"1949a39",18,1
"2023",0,1,534,5,1,2,"1949a39",19,1
"2127",0,0,440,4,4,2,"1949a39",20,1
"2225",1,1,331,5,5,2,"1949a39",21,1
"2323",1,0,655,4,1,2,"1949a39",22,1
"2423",0,1,905,4,1,2,"1949a39",23,1
"2523",0,1,679,5,1,2,"1949a39",24,1
"2623",1,0,421,1,3,2,"1949a39",25,1
"2723",0,0,461,4,4,2,"1949a39",26,1
"2823",1,0,507,6,1,2,"1949a39",27,1
"2923",1,1,552,5,5,2,"1949a39",28,1
"3023",1,1,631,6,6,2,"1949a39",29,1
"3127",1,1,451,2,2,2,"1949a39",30,1
"3225",1,1,695,1,1,2,"1949a39",31,1
"3323",-1,-1,0,1,2,2,"1949a39",32,1
"3423",0,0,487,3,3,2,"1949a39",33,1
"3523",1,0,478,3,1,2,"1949a39",34,1
"3623",0,0,879,2,2,2,"1949a39",35,1
"3723",1,1,454,3,3,2,"1949a39",36,1
"3823",1,1,554,1,1,2,"1949a39",37,1
"3923",1,0,511,5,1,2,"1949a39",38,1
"4023",0,0,453,5,5,2,"1949a39",39,1
"4127",1,0,483,6,1,2,"1949a39",40,1
"4225",0,0,446,4,4,2,"1949a39",41,1
"4323",1,0,708,1,4,2,"1949a39",42,1
"4423",0,0,435,6,6,2,"1949a39",43,1
"4523",0,1,452,2,1,2,"1949a39",44,1
"4623",0,1,385,2,1,2,"1949a39",45,1
"4723",0,0,510,3,3,2,"1949a39",46,1
"4823",1,0,441,3,1,2,"1949a39",47,1
"4923",1,0,564,1,6,2,"1949a39",48,1
"5023",0,0,461,5,5,2,"1949a39",49,1
"5127",1,1,532,2,2,2,"1949a39",50,1
"5225",1,1,547,4,4,2,"1949a39",51,1
"5323",1,1,453,6,6,2,"1949a39",52,1
"5423",1,0,804,4,1,2,"1949a39",53,1
"5523",0,1,479,5,1,2,"1949a39",54,1
"5623",0,0,608,1,1,2,"1949a39",55,1
"5723",1,0,589,4,1,2,"1949a39",56,1
"5823",0,0,546,5,5,2,"1949a39",57,1
"5923",1,1,454,2,2,2,"1949a39",58,1
"6023",1,0,710,5,1,2,"1949a39",59,1
"6127",0,0,676,4,4,2,"1949a39",60,1
"6225",1,1,345,3,3,2,"1949a39",61,1
"6323",0,0,459,1,1,2,"1949a39",62,1
"6423",1,1,561,6,6,2,"1949a39",63,1
"6523",1,0,552,1,6,2,"1949a39",64,1
"6623",0,1,527,3,1,2,"1949a39",65,1
"6723",1,0,534,2,1,2,"1949a39",66,1
"6823",0,1,466,1,4,2,"1949a39",67,1
"6923",0,0,554,3,3,2,"1949a39",68,1
"7023",1,1,671,5,5,2,"1949a39",69,1
"7127",1,0,594,1,2,2,"1949a39",70,1
"7225",0,0,532,4,4,2,"1949a39",71,1
"7323",1,0,430,5,1,2,"1949a39",72,1
"7423",0,0,373,6,6,2,"1949a39",73,1
"7523",0,1,431,6,1,2,"1949a39",74,1
"7623",1,0,548,1,3,2,"1949a39",75,1
"7723",0,0,710,1,1,2,"1949a39",76,1
"7823",0,0,872,2,2,2,"1949a39",77,1
"2108",1,0,922,1,4,1,"1f9414c",1,1
"3108",1,0,365,1,5,1,"1f9414c",2,1
"4108",1,0,401,1,3,1,"1f9414c",3,1
"5108",0,0,447,4,4,1,"1f9414c",4,1
"6108",0,0,580,6,6,1,"1f9414c",5,1
"799",0,0,273,1,1,1,"1f9414c",6,1
"824",1,1,361,5,5,1,"1f9414c",7,1
"924",0,0,395,2,2,1,"1f9414c",8,1
"1024",0,1,356,1,6,1,"1f9414c",9,1
"1124",1,1,304,3,3,1,"1f9414c",10,1
"1224",1,0,298,2,1,1,"1f9414c",11,1
"1324",1,1,300,5,5,1,"1f9414c",12,1
"1424",0,1,402,5,1,1,"1f9414c",13,1
"1524",1,1,322,4,4,1,"1f9414c",14,1
"1624",0,1,280,1,3,1,"1f9414c",15,1
"1724",1,1,257,6,6,1,"1f9414c",16,1
"1824",0,1,200,1,4,1,"1f9414c",17,1
"1924",1,1,81,3,3,1,"1f9414c",18,1
"2024",0,1,176,6,1,1,"1f9414c",19,1
"2128",0,1,279,1,2,1,"1f9414c",20,1
"2226",1,1,324,2,2,1,"1f9414c",21,1
"2324",1,1,343,1,1,1,"1f9414c",22,1
"2424",0,1,434,1,5,1,"1f9414c",23,1
"2524",1,1,219,4,4,1,"1f9414c",24,1
"2624",1,1,308,3,3,1,"1f9414c",25,1
"2724",1,1,234,1,1,1,"1f9414c",26,1
"2824",1,1,320,2,2,1,"1f9414c",27,1
"2924",0,1,329,4,1,1,"1f9414c",28,1
"3024",0,1,428,1,6,1,"1f9414c",29,1
"3128",0,1,316,3,1,1,"1f9414c",30,1
"3226",1,0,325,1,2,1,"1f9414c",31,1
"3324",0,0,257,5,5,1,"1f9414c",32,1
"3424",1,1,208,6,6,1,"1f9414c",33,1
"3524",0,1,253,5,1,1,"1f9414c",34,1
"3624",0,1,275,6,1,1,"1f9414c",35,1
"3724",1,1,283,3,3,1,"1f9414c",36,1
"3824",1,1,317,6,6,1,"1f9414c",37,1
"3924",1,1,230,4,4,1,"1f9414c",38,1
"4024",1,0,136,2,1,1,"1f9414c",39,1
"4128",1,1,297,5,5,1,"1f9414c",40,1
"4226",0,1,346,3,1,1,"1f9414c",41,1
"4324",0,1,363,1,4,1,"1f9414c",42,1
"4424",1,1,357,2,2,1,"1f9414c",43,1
"4524",1,1,345,1,1,1,"1f9414c",44,1
"4624",1,1,146,5,5,1,"1f9414c",45,1
"4724",1,1,273,1,1,1,"1f9414c",46,1
"4824",0,1,322,6,1,1,"1f9414c",47,1
"4924",1,1,277,3,3,1,"1f9414c",48,1
"5024",0,1,112,1,2,1,"1f9414c",49,1
"5128",0,1,466,5,1,1,"1f9414c",50,1
"5226",0,1,255,1,3,1,"1f9414c",51,1
"5324",1,1,471,2,2,1,"1f9414c",52,1
"5424",0,1,247,4,1,1,"1f9414c",53,1
"5524",1,1,284,4,4,1,"1f9414c",54,1
"5624",1,1,269,6,6,1,"1f9414c",55,1
"5724",0,1,253,4,1,1,"1f9414c",56,1
"5824",0,1,224,6,1,1,"1f9414c",57,1
"5924",1,1,482,2,2,1,"1f9414c",58,1
"6024",1,1,285,6,6,1,"1f9414c",59,1
"6128",0,1,235,2,1,1,"1f9414c",60,1
"6226",0,1,291,1,5,1,"1f9414c",61,1
"6324",1,1,338,1,1,1,"1f9414c",62,1
"6424",1,1,248,5,5,1,"1f9414c",63,1
"6524",1,1,238,4,4,1,"1f9414c",64,1
"6624",1,1,318,3,3,1,"1f9414c",65,1
"6724",0,1,339,3,1,1,"1f9414c",66,1
"6824",0,1,303,5,1,1,"1f9414c",67,1
"6924",0,1,175,1,4,1,"1f9414c",68,1
"7024",0,1,80,2,1,1,"1f9414c",69,1
"7128",1,1,200,4,4,1,"1f9414c",70,1
"7226",1,1,786,1,1,1,"1f9414c",71,1
"7324",0,1,331,3,1,1,"1f9414c",72,1
"7424",1,1,311,3,3,1,"1f9414c",73,1
"7524",0,1,384,6,1,1,"1f9414c",74,1
"7624",1,1,247,5,5,1,"1f9414c",75,1
"7724",1,1,217,6,6,1,"1f9414c",76,1
"7824",1,1,147,2,2,1,"1f9414c",77,1
"2109",1,1,292,1,1,1,"182eced",1,1
"3109",0,1,330,1,5,1,"182eced",2,1
"4109",1,1,343,2,2,1,"182eced",3,1
"5109",1,1,306,6,6,1,"182eced",4,1
"6109",0,1,306,3,1,1,"182eced",5,1
"7100",1,0,353,2,1,1,"182eced",6,1
"825",0,1,276,1,4,1,"182eced",7,1
"925",1,1,85,4,4,1,"182eced",8,1
"1025",0,0,306,3,3,1,"182eced",9,1
"1125",0,1,345,1,6,1,"182eced",10,1
"1225",1,1,350,5,5,1,"182eced",11,1
"1325",1,1,341,2,2,1,"182eced",12,1
"1425",1,0,285,1,2,1,"182eced",13,1
"1525",0,0,310,3,3,1,"182eced",14,1
"1625",0,1,286,1,4,1,"182eced",15,1
"1725",0,1,325,1,6,1,"182eced",16,1
"1825",0,1,318,1,5,1,"182eced",17,1
"1925",1,1,259,5,5,1,"182eced",18,1
"2025",0,1,340,3,1,1,"182eced",19,1
"2129",0,0,356,1,1,1,"182eced",20,1
"2227",1,1,292,6,6,1,"182eced",21,1
"2325",1,1,311,4,4,1,"182eced",22,1
"2425",1,1,420,2,2,1,"182eced",23,1
"2525",0,1,344,3,1,1,"182eced",24,1
"2625",1,1,298,3,3,1,"182eced",25,1
"2725",0,1,360,4,1,1,"182eced",26,1
"2825",0,1,421,1,2,1,"182eced",27,1
"2925",1,1,285,6,6,1,"182eced",28,1
"3025",0,1,343,6,1,1,"182eced",29,1
"3129",0,1,289,5,1,1,"182eced",30,1
"3227",1,1,272,1,1,1,"182eced",31,1
"3325",0,0,268,4,4,1,"182eced",32,1
"3425",1,1,380,5,5,1,"182eced",33,1
"3525",0,0,356,2,2,1,"182eced",34,1
"3625",1,1,369,5,5,1,"182eced",35,1
"3725",1,1,51,4,4,1,"182eced",36,1
"3825",0,1,285,6,1,1,"182eced",37,1
"3925",0,1,557,3,1,1,"182eced",38,1
"4025",0,1,299,1,4,1,"182eced",39,1
"4129",1,1,263,1,1,1,"182eced",40,1
"4227",1,1,337,6,6,1,"182eced",41,1
"4325",0,1,294,5,1,1,"182eced",42,1
"4425",1,0,422,2,1,1,"182eced",43,1
"4525",1,1,391,3,3,1,"182eced",44,1
"4625",0,0,336,6,6,1,"182eced",45,1
"4725",0,1,310,1,5,1,"182eced",46,1
"4825",1,1,298,1,1,1,"182eced",47,1
"4925",1,0,290,2,1,1,"182eced",48,1
"5025",1,1,308,4,4,1,"182eced",49,1
"5129",0,0,300,3,3,1,"182eced",50,1
"5227",1,1,916,2,2,1,"182eced",51,1
"5325",0,1,301,4,1,1,"182eced",52,1
"5425",0,1,343,1,3,1,"182eced",53,1
"5525",0,1,388,6,1,1,"182eced",54,1
"5625",1,1,310,5,5,1,"182eced",55,1
"5725",1,1,319,5,5,1,"182eced",56,1
"5825",1,0,406,2,1,1,"182eced",57,1
"5925",1,1,268,3,3,1,"182eced",58,1
"6025",0,0,347,4,4,1,"182eced",59,1
"6129",0,1,451,1,5,1,"182eced",60,1
"6227",1,1,294,2,2,1,"182eced",61,1
"6325",0,0,327,6,6,1,"182eced",62,1
"6425",1,1,376,1,1,1,"182eced",63,1
"6525",0,1,413,4,1,1,"182eced",64,1
"6625",0,1,417,6,1,1,"182eced",65,1
"6725",0,1,678,1,3,1,"182eced",66,1
"6825",1,1,573,2,2,1,"182eced",67,1
"6925",0,1,249,1,6,1,"182eced",68,1
"7025",1,1,296,1,1,1,"182eced",69,1
"7129",1,1,260,3,3,1,"182eced",70,1
"7227",1,1,316,5,5,1,"182eced",71,1
"7325",1,1,377,6,6,1,"182eced",72,1
"7425",1,1,323,4,4,1,"182eced",73,1
"7525",0,1,542,1,5,1,"182eced",74,1
"7625",0,1,301,1,2,1,"182eced",75,1
"7725",0,1,300,1,4,1,"182eced",76,1
"7825",-1,-1,0,3,1,1,"182eced",77,1
"2130",1,0,772,1,3,3,"1da7c0d",1,1
"3130",1,1,462,5,5,3,"1da7c0d",2,1
"4130",1,1,455,4,4,3,"1da7c0d",3,1
"5130",1,1,590,3,3,3,"1da7c0d",4,1
"6130",1,0,521,1,2,3,"1da7c0d",5,1
"7101",1,1,475,2,2,3,"1da7c0d",6,1
"826",0,1,555,6,1,3,"1da7c0d",7,1
"926",0,1,501,1,5,3,"1da7c0d",8,1
"1026",1,0,554,4,1,3,"1da7c0d",9,1
"1126",0,0,451,6,6,3,"1da7c0d",10,1
"1226",1,1,415,1,1,3,"1da7c0d",11,1
"1326",1,1,572,1,1,3,"1da7c0d",12,1
"1426",1,0,387,1,4,3,"1da7c0d",13,1
"1526",0,1,350,1,3,3,"1da7c0d",14,1
"1626",0,0,463,6,6,3,"1da7c0d",15,1
"1726",1,1,628,2,2,3,"1da7c0d",16,1
"1826",1,1,468,4,4,3,"1da7c0d",17,1
"1926",0,1,575,1,5,3,"1da7c0d",18,1
"2026",1,1,474,5,5,3,"1da7c0d",19,1
"2131",1,0,348,1,2,3,"1da7c0d",20,1
"2228",1,1,515,3,3,3,"1da7c0d",21,1
"2326",0,1,409,1,6,3,"1da7c0d",22,1
"2426",0,1,489,1,6,3,"1da7c0d",23,1
"2526",1,1,444,1,1,3,"1da7c0d",24,1
"2626",1,1,685,5,5,3,"1da7c0d",25,1
"2726",0,1,480,4,1,3,"1da7c0d",26,1
"2826",0,1,445,5,1,3,"1da7c0d",27,1
"2926",1,1,382,4,4,3,"1da7c0d",28,1
"3026",0,1,558,2,1,3,"1da7c0d",29,1
"3131",1,1,358,3,3,3,"1da7c0d",30,1
"3228",1,1,401,2,2,3,"1da7c0d",31,1
"3326",1,1,610,6,6,3,"1da7c0d",32,1
"3426",0,1,689,1,3,3,"1da7c0d",33,1
"3526",0,1,548,1,4,3,"1da7c0d",34,1
"3626",1,1,634,3,3,3,"1da7c0d",35,1
"3726",0,1,392,1,6,3,"1da7c0d",36,1
"3826",1,1,447,6,6,3,"1da7c0d",37,1
"3926",1,1,378,2,2,3,"1da7c0d",38,1
"4026",1,1,489,4,4,3,"1da7c0d",39,1
"4131",1,1,381,5,5,3,"1da7c0d",40,1
"4228",0,1,489,1,5,3,"1da7c0d",41,1
"4326",0,1,702,1,2,3,"1da7c0d",42,1
"4426",0,1,814,1,3,3,"1da7c0d",43,1
"4526",1,1,574,1,1,3,"1da7c0d",44,1
"4626",1,1,479,3,3,3,"1da7c0d",45,1
"4726",0,1,516,3,1,3,"1da7c0d",46,1
"4826",1,1,561,1,1,3,"1da7c0d",47,1
"4926",0,1,431,6,1,3,"1da7c0d",48,1
"5026",0,1,410,1,4,3,"1da7c0d",49,1
"5131",0,1,515,1,5,3,"1da7c0d",50,1
"5228",1,1,468,5,5,3,"1da7c0d",51,1
"5326",1,1,423,2,2,3,"1da7c0d",52,1
"5426",0,1,882,2,1,3,"1da7c0d",53,1
"5526",1,1,733,4,4,3,"1da7c0d",54,1
"5626",1,1,514,6,6,3,"1da7c0d",55,1
"5726",0,1,307,6,1,3,"1da7c0d",56,1
"5826",0,1,422,5,1,3,"1da7c0d",57,1
"5926",1,1,593,6,6,3,"1da7c0d",58,1
"6026",1,1,377,2,2,3,"1da7c0d",59,1
"6131",0,1,522,1,4,3,"1da7c0d",60,1
"6228",1,1,444,3,3,3,"1da7c0d",61,1
"6326",1,1,403,4,4,3,"1da7c0d",62,1
"6426",0,1,356,1,3,3,"1da7c0d",63,1
"6526",0,1,478,1,2,3,"1da7c0d",64,1
"6626",1,1,815,5,5,3,"1da7c0d",65,1
"6726",1,1,525,1,1,3,"1da7c0d",66,1
"6826",1,1,539,6,6,3,"1da7c0d",67,1
"6926",1,1,542,5,5,3,"1da7c0d",68,1
"7026",0,1,435,1,4,3,"1da7c0d",69,1
"7130",0,1,449,2,1,3,"1da7c0d",70,1
"7228",0,1,620,1,3,3,"1da7c0d",71,1
"7326",1,1,368,4,4,3,"1da7c0d",72,1
"7426",1,1,536,2,2,3,"1da7c0d",73,1
"7526",1,1,375,1,1,3,"1da7c0d",74,1
"7626",0,1,397,5,1,3,"1da7c0d",75,1
"7726",0,1,796,6,1,3,"1da7c0d",76,1
"7826",1,1,455,3,3,3,"1da7c0d",77,1
"2132",1,1,608,6,6,1,"1ca3c4b",1,1
"3132",1,1,502,4,4,1,"1ca3c4b",2,1
"4132",0,1,396,6,1,1,"1ca3c4b",3,1
"5132",0,1,554,1,4,1,"1ca3c4b",4,1
"6132",1,1,467,2,2,1,"1ca3c4b",5,1
"7102",1,1,1099,5,5,1,"1ca3c4b",6,1
"827",0,1,1114,2,1,1,"1ca3c4b",7,1
"927",0,1,1170,1,5,1,"1ca3c4b",8,1
"1027",1,1,465,3,3,1,"1ca3c4b",9,1
"1127",1,1,364,1,1,1,"1ca3c4b",10,1
"1227",0,1,282,1,3,1,"1ca3c4b",11,1
"1327",0,1,752,1,2,1,"1ca3c4b",12,1
"1427",1,1,418,6,6,1,"1ca3c4b",13,1
"1527",0,1,263,4,1,1,"1ca3c4b",14,1
"1627",0,1,399,1,6,1,"1ca3c4b",15,1
"1727",0,1,495,5,1,1,"1ca3c4b",16,1
"1827",1,1,434,4,4,1,"1ca3c4b",17,1
"1927",0,1,456,1,3,1,"1ca3c4b",18,1
"2027",1,1,374,3,3,1,"1ca3c4b",19,1
"2133",1,1,446,1,1,1,"1ca3c4b",20,1
"2229",1,1,372,2,2,1,"1ca3c4b",21,1
"2327",1,1,393,5,5,1,"1ca3c4b",22,1
"2427",1,1,852,6,6,1,"1ca3c4b",23,1
"2527",0,1,297,1,6,1,"1ca3c4b",24,1
"2627",0,1,282,2,1,1,"1ca3c4b",25,1
"2727",1,1,252,1,1,1,"1ca3c4b",26,1
"2827",1,1,604,2,2,1,"1ca3c4b",27,1
"2927",1,1,271,4,4,1,"1ca3c4b",28,1
"3027",1,1,401,3,3,1,"1ca3c4b",29,1
"3133",1,1,229,5,5,1,"1ca3c4b",30,1
"3229",0,1,454,4,1,1,"1ca3c4b",31,1
"3327",0,1,392,5,1,1,"1ca3c4b",32,1
"3427",0,1,528,3,1,1,"1ca3c4b",33,1
"3527",0,1,634,1,5,1,"1ca3c4b",34,1
"3627",1,0,894,1,4,1,"1ca3c4b",35,1
"3727",0,1,1438,6,1,1,"1ca3c4b",36,1
"3827",0,0,390,4,4,1,"1ca3c4b",37,1
"3927",0,1,295,3,1,1,"1ca3c4b",38,1
"4027",1,1,949,6,6,1,"1ca3c4b",39,1
"4133",0,0,311,2,2,1,"1ca3c4b",40,1
"4229",1,1,281,1,1,1,"1ca3c4b",41,1
"4327",1,1,615,3,3,1,"1ca3c4b",42,1
"4427",0,0,282,5,5,1,"1ca3c4b",43,1
"4527",1,0,260,2,1,1,"1ca3c4b",44,1
"4627",0,0,261,6,6,1,"1ca3c4b",45,1
"4727",0,1,272,3,1,1,"1ca3c4b",46,1
"4827",1,1,41,3,3,1,"1ca3c4b",47,1
"4927",1,1,302,5,5,1,"1ca3c4b",48,1
"5027",0,1,247,5,1,1,"1ca3c4b",49,1
"5133",1,1,628,2,2,1,"1ca3c4b",50,1
"5229",1,0,308,2,1,1,"1ca3c4b",51,1
"5327",1,1,322,4,4,1,"1ca3c4b",52,1
"5427",1,1,279,1,1,1,"1ca3c4b",53,1
"5527",1,0,1214,4,1,1,"1ca3c4b",54,1
"5627",0,1,249,6,1,1,"1ca3c4b",55,1
"5727",0,1,280,1,6,1,"1ca3c4b",56,1
"5827",1,1,273,3,3,1,"1ca3c4b",57,1
"5927",1,1,277,5,5,1,"1ca3c4b",58,1
"6027",1,1,346,4,4,1,"1ca3c4b",59,1
"6133",0,0,366,6,6,1,"1ca3c4b",60,1
"6229",1,1,297,2,2,1,"1ca3c4b",61,1
"6327",1,0,336,1,3,1,"1ca3c4b",62,1
"6427",1,1,375,1,1,1,"1ca3c4b",63,1
"6527",1,0,466,2,1,1,"1ca3c4b",64,1
"6627",0,1,574,5,1,1,"1ca3c4b",65,1
"6727",1,0,247,4,1,1,"1ca3c4b",66,1
"6827",1,0,133,1,2,1,"1ca3c4b",67,1
"6927",0,1,1245,1,6,1,"1ca3c4b",68,1
"7027",1,1,279,3,3,1,"1ca3c4b",69,1
"7131",1,0,254,3,1,1,"1ca3c4b",70,1
"7229",0,1,256,1,5,1,"1ca3c4b",71,1
"7327",1,1,264,6,6,1,"1ca3c4b",72,1
"7427",1,1,499,1,1,1,"1ca3c4b",73,1
"7527",1,1,303,2,2,1,"1ca3c4b",74,1
"7627",1,1,243,5,5,1,"1ca3c4b",75,1
"7727",1,1,290,4,4,1,"1ca3c4b",76,1
"7827",0,1,423,4,1,1,"1ca3c4b",77,1
"2134",1,1,585,6,6,1,"1f873c3",1,1
"3134",0,1,392,2,1,1,"1f873c3",2,1
"4134",1,1,393,4,4,1,"1f873c3",3,1
"5134",0,0,334,3,3,1,"1f873c3",4,1
"6134",1,0,276,4,1,1,"1f873c3",5,1
"7103",0,1,129,1,5,1,"1f873c3",6,1
"828",1,1,228,1,1,1,"1f873c3",7,1
"928",0,0,188,2,2,1,"1f873c3",8,1
"1028",0,1,252,6,1,1,"1f873c3",9,1
"1128",1,0,345,1,3,1,"1f873c3",10,1
"1228",1,1,192,5,5,1,"1f873c3",11,1
"1328",0,0,244,5,5,1,"1f873c3",12,1
"1428",1,0,234,4,1,1,"1f873c3",13,1
"1528",0,1,192,5,1,1,"1f873c3",14,1
"1628",1,1,215,1,1,1,"1f873c3",15,1
"1728",1,1,181,4,4,1,"1f873c3",16,1
"1828",1,1,203,2,2,1,"1f873c3",17,1
"1928",0,0,215,3,3,1,"1f873c3",18,1
"2028",1,0,127,2,1,1,"1f873c3",19,1
"2135",1,1,165,6,6,1,"1f873c3",20,1
"2230",0,1,259,6,1,1,"1f873c3",21,1
"2328",0,1,281,1,3,1,"1f873c3",22,1
"2428",1,1,151,2,2,1,"1f873c3",23,1
"2528",1,1,220,6,6,1,"1f873c3",24,1
"2628",1,1,227,5,5,1,"1f873c3",25,1
"2728",0,1,234,6,1,1,"1f873c3",26,1
"2828",1,1,144,1,1,1,"1f873c3",27,1
"2928",0,1,323,5,1,1,"1f873c3",28,1
"3028",0,1,155,3,1,1,"1f873c3",29,1
"3135",1,0,1057,2,1,1,"1f873c3",30,1
"3230",0,1,69,4,1,1,"1f873c3",31,1
"3328",1,1,76,3,3,1,"1f873c3",32,1
"3428",1,1,131,4,4,1,"1f873c3",33,1
"3528",0,1,145,1,4,1,"1f873c3",34,1
"3628",0,1,279,1,2,1,"1f873c3",35,1
"3728",0,1,374,6,1,1,"1f873c3",36,1
"3828",1,1,339,1,1,1,"1f873c3",37,1
"3928",1,1,256,5,5,1,"1f873c3",38,1
"4028",1,1,263,6,6,1,"1f873c3",39,1
"4135",0,1,261,1,5,1,"1f873c3",40,1
"4230",1,1,450,4,4,1,"1f873c3",41,1
"4328",1,1,217,3,3,1,"1f873c3",42,1
"4428",1,1,341,2,2,1,"1f873c3",43,1
"4528",0,1,267,3,1,1,"1f873c3",44,1
"4628",1,1,276,4,4,1,"1f873c3",45,1
"4728",1,1,185,2,2,1,"1f873c3",46,1
"4828",1,1,126,3,3,1,"1f873c3",47,1
"4928",0,0,332,1,1,1,"1f873c3",48,1
"5028",0,1,226,5,1,1,"1f873c3",49,1
"5135",1,0,487,4,1,1,"1f873c3",50,1
"5230",0,1,421,6,1,1,"1f873c3",51,1
"5328",1,1,621,6,6,1,"1f873c3",52,1
"5428",1,0,498,3,1,1,"1f873c3",53,1
"5528",0,1,136,1,2,1,"1f873c3",54,1
"5628",1,1,198,5,5,1,"1f873c3",55,1
"5728",1,0,221,2,1,1,"1f873c3",56,1
"5828",0,1,1803,1,5,1,"1f873c3",57,1
"5928",0,1,408,1,4,1,"1f873c3",58,1
"6028",0,1,408,1,6,1,"1f873c3",59,1
"6135",0,0,277,1,1,1,"1f873c3",60,1
"6230",1,1,395,6,6,1,"1f873c3",61,1
"6328",-1,0,1697,5,5,1,"1f873c3",62,1
"6428",0,1,367,1,3,1,"1f873c3",63,1
"6528",1,1,388,2,2,1,"1f873c3",64,1
"6628",1,1,514,3,3,1,"1f873c3",65,1
"6728",1,1,1281,4,4,1,"1f873c3",66,1
"6828",0,1,522,4,1,1,"1f873c3",67,1
"6928",1,1,565,3,3,1,"1f873c3",68,1
"7028",0,1,394,1,5,1,"1f873c3",69,1
"7132",1,1,615,1,1,1,"1f873c3",70,1
"7230",0,1,359,6,1,1,"1f873c3",71,1
"7328",1,1,277,2,2,1,"1f873c3",72,1
"7428",1,1,260,4,4,1,"1f873c3",73,1
"7528",1,1,368,5,5,1,"1f873c3",74,1
"7628",1,0,406,2,1,1,"1f873c3",75,1
"7728",1,1,269,6,6,1,"1f873c3",76,1
"7828",0,1,219,1,3,1,"1f873c3",77,1
"2136",1,0,945,3,1,2,"126d650",1,1
"3136",1,1,450,4,4,2,"126d650",2,1
"4136",0,1,358,1,6,2,"126d650",3,1
"5136",0,0,587,6,6,2,"126d650",4,1
"6136",1,0,495,2,1,2,"126d650",5,1
"7104",0,1,466,1,5,2,"126d650",6,1
"829",1,1,403,1,1,2,"126d650",7,1
"929",1,0,535,4,1,2,"126d650",8,1
"1029",1,1,597,5,5,2,"126d650",9,1
"1129",1,1,562,3,3,2,"126d650",10,1
"1229",1,1,570,2,2,2,"126d650",11,1
"1329",0,0,656,5,5,2,"126d650",12,1
"1429",1,1,428,1,1,2,"126d650",13,1
"1529",0,0,893,4,4,2,"126d650",14,1
"1629",0,1,393,5,1,2,"126d650",15,1
"1729",1,1,537,6,6,2,"126d650",16,1
"1829",1,0,390,1,2,2,"126d650",17,1
"1929",-1,-1,0,2,2,2,"126d650",18,1
"2029",0,1,560,3,1,2,"126d650",19,1
"2137",1,0,1577,1,6,2,"126d650",20,1
"2231",1,0,956,4,1,2,"126d650",21,1
"2329",1,1,478,3,3,2,"126d650",22,1
"2429",0,1,518,6,1,2,"126d650",23,1
"2529",1,1,592,5,5,2,"126d650",24,1
"2629",1,0,709,2,1,2,"126d650",25,1
"2729",0,1,319,1,4,2,"126d650",26,1
"2829",-1,-1,0,1,1,2,"126d650",27,1
"2929",1,1,416,3,3,2,"126d650",28,1
"3029",-1,-1,0,2,2,2,"126d650",29,1
"3137",1,1,677,6,6,2,"126d650",30,1
"3231",1,1,1081,4,4,2,"126d650",31,1
"3329",0,1,651,5,1,2,"126d650",32,1
"3429",1,0,1002,3,1,2,"126d650",33,1
"3529",0,1,844,1,3,2,"126d650",34,1
"3629",1,1,486,5,5,2,"126d650",35,1
"3729",1,0,913,1,4,2,"126d650",36,1
"3829",-1,-1,0,1,6,2,"126d650",37,1
"3929",1,0,272,2,1,2,"126d650",38,1
"4029",1,1,506,4,4,2,"126d650",39,1
"4137",1,1,855,2,2,2,"126d650",40,1
"4231",1,1,549,3,3,2,"126d650",41,1
"4329",0,0,484,1,1,2,"126d650",42,1
"4429",1,1,580,6,6,2,"126d650",43,1
"4529",1,0,484,1,5,2,"126d650",44,1
"4629",1,1,527,4,4,2,"126d650",45,1
"4729",0,1,579,1,6,2,"126d650",46,1
"4829",0,1,897,1,4,2,"126d650",47,1
"4929",1,1,607,5,5,2,"126d650",48,1
"5029",0,0,580,1,1,2,"126d650",49,1
"5137",1,1,658,6,6,2,"126d650",50,1
"5231",1,0,1383,2,1,2,"126d650",51,1
"5329",1,0,1112,1,3,2,"126d650",52,1
"5429",0,1,562,5,1,2,"126d650",53,1
"5529",0,0,421,3,3,2,"126d650",54,1
"5629",1,1,520,2,2,2,"126d650",55,1
"5729",1,1,614,6,6,2,"126d650",56,1
"5829",0,1,530,1,3,2,"126d650",57,1
"5929",0,1,418,1,4,2,"126d650",58,1
"6029",0,1,641,1,5,2,"126d650",59,1
"6137",1,1,248,4,4,2,"126d650",60,1
"6231",1,1,856,3,3,2,"126d650",61,1
"6329",1,1,529,2,2,2,"126d650",62,1
"6429",1,1,1094,5,5,2,"126d650",63,1
"6529",1,1,485,1,1,2,"126d650",64,1
"6629",0,1,501,6,1,2,"126d650",65,1
"6729",0,1,446,2,1,2,"126d650",66,1
"6829",0,1,800,1,5,2,"126d650",67,1
"6929",0,1,298,1,3,2,"126d650",68,1
"7029",1,1,404,2,2,2,"126d650",69,1
"7133",1,1,275,3,3,2,"126d650",70,1
"7231",0,0,350,1,1,2,"126d650",71,1
"7329",-1,0,187,5,5,2,"126d650",72,1
"7429",-1,-1,0,2,1,2,"126d650",73,1
"7529",-1,-1,0,4,1,2,"126d650",74,1
"7629",-1,-1,0,6,6,2,"126d650",75,1
"7729",-1,-1,0,1,6,2,"126d650",76,1
"7829",-1,-1,0,4,4,2,"126d650",77,1
"2138",1,1,728,6,6,1,"1fdef44",1,1
"3138",1,1,400,1,1,1,"1fdef44",2,1
"4138",0,1,421,1,5,1,"1fdef44",3,1
"5138",0,1,435,4,1,1,"1fdef44",4,1
"6138",1,1,376,2,2,1,"1fdef44",5,1
"7105",1,1,490,3,3,1,"1fdef44",6,1
"830",0,1,535,1,6,1,"1fdef44",7,1
"930",1,0,287,3,1,1,"1fdef44",8,1
"1030",1,0,304,2,1,1,"1fdef44",9,1
"1130",1,1,317,5,5,1,"1fdef44",10,1
"1230",1,1,373,4,4,1,"1fdef44",11,1
"1330",0,1,282,1,3,1,"1fdef44",12,1
"1430",1,0,284,2,1,1,"1fdef44",13,1
"1530",0,1,93,4,1,1,"1fdef44",14,1
"1630",1,1,1246,1,1,1,"1fdef44",15,1
"1730",0,1,259,1,5,1,"1fdef44",16,1
"1830",1,1,337,6,6,1,"1fdef44",17,1
"1930",1,1,213,4,4,1,"1fdef44",18,1
"2030",0,1,311,1,6,1,"1fdef44",19,1
"2139",1,1,159,3,3,1,"1fdef44",20,1
"2232",1,1,138,2,2,1,"1fdef44",21,1
"2330",1,1,145,5,5,1,"1fdef44",22,1
"2430",1,1,163,4,4,1,"1fdef44",23,1
"2530",1,1,334,1,1,1,"1fdef44",24,1
"2630",0,1,314,1,5,1,"1fdef44",25,1
"2730",1,1,330,3,3,1,"1fdef44",26,1
"2830",1,1,115,2,2,1,"1fdef44",27,1
"2930",1,0,309,3,1,1,"1fdef44",28,1
"3030",1,0,305,2,1,1,"1fdef44",29,1
"3139",0,1,127,1,6,1,"1fdef44",30,1
"3232",0,1,177,1,4,1,"1fdef44",31,1
"3330",1,1,63,6,6,1,"1fdef44",32,1
"3430",1,1,128,5,5,1,"1fdef44",33,1
"3530",0,1,119,1,5,1,"1fdef44",34,1
"3630",1,1,480,1,1,1,"1fdef44",35,1
"3730",0,1,213,6,1,1,"1fdef44",36,1
"3830",1,1,83,3,3,1,"1fdef44",37,1
"3930",1,0,558,3,1,1,"1fdef44",38,1
"4030",1,0,259,2,1,1,"1fdef44",39,1
"4139",1,1,307,4,4,1,"1fdef44",40,1
"4232",1,1,312,5,5,1,"1fdef44",41,1
"4330",0,1,602,4,1,1,"1fdef44",42,1
"4430",0,0,165,2,2,1,"1fdef44",43,1
"4530",1,1,174,6,6,1,"1fdef44",44,1
"4630",1,1,434,3,3,1,"1fdef44",45,1
"4730",0,1,203,1,4,1,"1fdef44",46,1
"4830",1,1,332,5,5,1,"1fdef44",47,1
"4930",1,1,139,6,6,1,"1fdef44",48,1
"5030",1,1,346,1,1,1,"1fdef44",49,1
"5139",1,0,236,1,2,1,"1fdef44",50,1
"5232",0,1,718,1,6,1,"1fdef44",51,1
"5330",0,1,668,1,3,1,"1fdef44",52,1
"5430",1,1,335,2,2,1,"1fdef44",53,1
"5530",1,1,74,4,4,1,"1fdef44",54,1
"5630",0,1,120,1,5,1,"1fdef44",55,1
"5730",1,1,206,5,5,1,"1fdef44",56,1
"5830",0,1,442,1,4,1,"1fdef44",57,1
"5930",1,1,638,1,1,1,"1fdef44",58,1
"6030",0,1,193,1,6,1,"1fdef44",59,1
"6139",0,1,3,3,1,1,"1fdef44",60,1
"6232",1,1,103,3,3,1,"1fdef44",61,1
"6330",1,1,45,4,4,1,"1fdef44",62,1
"6430",1,1,80,2,2,1,"1fdef44",63,1
"6530",1,0,647,1,2,1,"1fdef44",64,1
"6630",1,1,368,6,6,1,"1fdef44",65,1
"6730",0,1,173,5,1,1,"1fdef44",66,1
"6830",0,1,387,1,6,1,"1fdef44",67,1
"6930",0,1,184,1,5,1,"1fdef44",68,1
"7030",0,1,447,3,1,1,"1fdef44",69,1
"7134",1,1,103,6,6,1,"1fdef44",70,1
"7232",1,1,271,4,4,1,"1fdef44",71,1
"7330",1,1,599,3,3,1,"1fdef44",72,1
"7430",1,1,105,5,5,1,"1fdef44",73,1
"7530",1,1,226,2,2,1,"1fdef44",74,1
"7630",0,1,36,4,1,1,"1fdef44",75,1
"7730",1,0,538,2,1,1,"1fdef44",76,1
"7830",1,1,380,1,1,1,"1fdef44",77,1
"2140",1,1,851,1,1,3,"173ab26",1,1
"3140",1,1,491,4,4,3,"173ab26",2,1
"4140",1,0,433,1,3,3,"173ab26",3,1
"5140",1,0,370,1,2,3,"173ab26",4,1
"6140",1,0,545,4,1,3,"173ab26",5,1
"7106",0,1,1408,1,6,3,"173ab26",6,1
"831",1,1,441,2,2,3,"173ab26",7,1
"931",1,1,415,5,5,3,"173ab26",8,1
"1031",1,1,377,3,3,3,"173ab26",9,1
"1131",-1,-1,0,6,6,3,"173ab26",10,1
"1231",0,1,1868,5,1,3,"173ab26",11,1
"1331",1,1,315,4,4,3,"173ab26",12,1
"1431",0,0,1339,2,2,3,"173ab26",13,1
"1531",0,1,588,1,5,3,"173ab26",14,1
"1631",1,1,400,1,1,3,"173ab26",15,1
"1731",0,1,298,1,4,3,"173ab26",16,1
"1831",0,1,380,6,1,3,"173ab26",17,1
"1931",0,1,1444,1,2,3,"173ab26",18,1
"2031",1,1,490,6,6,3,"173ab26",19,1
"2141",1,1,882,5,5,3,"173ab26",20,1
"2233",1,1,355,3,3,3,"173ab26",21,1
"2331",0,1,946,3,1,3,"173ab26",22,1
"2431",1,1,439,6,6,3,"173ab26",23,1
"2531",0,1,1203,1,5,3,"173ab26",24,1
"2631",1,1,931,3,3,3,"173ab26",25,1
"2731",0,1,1150,1,2,3,"173ab26",26,1
"2831",1,1,289,2,2,3,"173ab26",27,1
"2931",0,1,562,1,4,3,"173ab26",28,1
"3031",1,1,392,5,5,3,"173ab26",29,1
"3141",0,1,946,3,1,3,"173ab26",30,1
"3233",1,1,1383,1,1,3,"173ab26",31,1
"3331",0,1,1326,6,1,3,"173ab26",32,1
"3431",1,1,394,4,4,3,"173ab26",33,1
"3531",0,1,383,1,4,3,"173ab26",34,1
"3631",0,1,763,2,1,3,"173ab26",35,1
"3731",0,0,372,5,5,3,"173ab26",36,1
"3831",0,1,704,5,1,3,"173ab26",37,1
"3931",0,1,375,6,1,3,"173ab26",38,1
"4031",1,1,406,3,3,3,"173ab26",39,1
"4141",1,1,385,4,4,3,"173ab26",40,1
"4233",0,1,318,3,1,3,"173ab26",41,1
"4331",1,1,345,6,6,3,"173ab26",42,1
"4431",1,1,348,1,1,3,"173ab26",43,1
"4531",1,1,504,2,2,3,"173ab26",44,1
"4631",0,1,324,4,1,3,"173ab26",45,1
"4731",1,1,387,3,3,3,"173ab26",46,1
"4831",1,1,423,5,5,3,"173ab26",47,1
"4931",1,1,727,6,6,3,"173ab26",48,1
"5031",0,1,313,1,5,3,"173ab26",49,1
"5141",1,1,345,2,2,3,"173ab26",50,1
"5233",0,1,331,3,1,3,"173ab26",51,1
"5331",1,1,388,1,1,3,"173ab26",52,1
"5431",0,1,367,1,6,3,"173ab26",53,1
"5531",1,1,408,4,4,3,"173ab26",54,1
"5631",0,1,351,1,2,3,"173ab26",55,1
"5731",1,1,520,2,2,3,"173ab26",56,1
"5831",0,1,505,6,1,3,"173ab26",57,1
"5931",1,1,682,4,4,3,"173ab26",58,1
"6031",0,1,483,1,4,3,"173ab26",59,1
"6141",0,1,424,5,1,3,"173ab26",60,1
"6233",0,1,367,3,1,3,"173ab26",61,1
"6331",0,1,372,2,1,3,"173ab26",62,1
"6431",1,1,379,1,1,3,"173ab26",63,1
"6531",1,1,386,3,3,3,"173ab26",64,1
"6631",1,1,386,6,6,3,"173ab26",65,1
"6731",1,1,415,5,5,3,"173ab26",66,1
"6831",1,1,301,3,3,3,"173ab26",67,1
"6931",1,1,316,4,4,3,"173ab26",68,1
"7031",0,1,392,1,4,3,"173ab26",69,1
"7135",1,1,239,2,2,3,"173ab26",70,1
"7233",0,1,304,1,5,3,"173ab26",71,1
"7331",0,1,353,1,6,3,"173ab26",72,1
"7431",1,1,395,1,1,3,"173ab26",73,1
"7531",0,1,334,1,3,3,"173ab26",74,1
"7631",1,1,325,5,5,3,"173ab26",75,1
"7731",1,0,319,1,2,3,"173ab26",76,1
"7831",1,1,408,6,6,3,"173ab26",77,1
"2142",1,1,886,5,5,3,"5e95a48",1,1
"3142",1,0,581,1,5,3,"5e95a48",2,1
"4142",1,1,396,4,4,3,"5e95a48",3,1
"5142",1,1,661,2,2,3,"5e95a48",4,1
"6142",0,0,481,6,6,3,"5e95a48",5,1
"7107",1,0,510,3,1,3,"5e95a48",6,1
"832",1,0,469,6,1,3,"5e95a48",7,1
"932",1,0,543,4,1,3,"5e95a48",8,1
"1032",1,0,595,1,2,3,"5e95a48",9,1
"1132",1,1,551,3,3,3,"5e95a48",10,1
"1232",1,1,539,1,1,3,"5e95a48",11,1
"1332",1,0,672,1,4,3,"5e95a48",12,1
"1432",1,1,486,1,1,3,"5e95a48",13,1
"1532",1,0,489,3,1,3,"5e95a48",14,1
"1632",0,0,324,3,3,3,"5e95a48",15,1
"1732",1,0,633,2,1,3,"5e95a48",16,1
"1832",1,0,300,5,1,3,"5e95a48",17,1
"1932",1,1,294,6,6,3,"5e95a48",18,1
"2032",0,0,334,5,5,3,"5e95a48",19,1
"2143",1,1,356,4,4,3,"5e95a48",20,1
"2234",1,0,370,6,1,3,"5e95a48",21,1
"2332",0,0,393,2,2,3,"5e95a48",22,1
"2432",1,0,286,2,1,3,"5e95a48",23,1
"2532",0,0,475,2,2,3,"5e95a48",24,1
"2632",0,0,336,5,5,3,"5e95a48",25,1
"2732",1,1,366,3,3,3,"5e95a48",26,1
"2832",1,0,411,5,1,3,"5e95a48",27,1
"2932",1,0,297,1,4,3,"5e95a48",28,1
"3032",1,1,471,6,6,3,"5e95a48",29,1
"3143",1,1,682,4,4,3,"5e95a48",30,1
"3234",0,1,380,3,1,3,"5e95a48",31,1
"3332",0,1,527,6,1,3,"5e95a48",32,1
"3432",1,1,301,1,1,3,"5e95a48",33,1
"3532",0,1,339,3,1,3,"5e95a48",34,1
"3632",1,1,265,2,2,3,"5e95a48",35,1
"3732",1,1,332,4,4,3,"5e95a48",36,1
"3832",1,1,469,6,6,3,"5e95a48",37,1
"3932",1,1,338,5,5,3,"5e95a48",38,1
"4032",1,1,334,1,1,3,"5e95a48",39,1
"4143",0,1,396,1,5,3,"5e95a48",40,1
"4234",1,1,360,3,3,3,"5e95a48",41,1
"4332",0,1,322,6,1,3,"5e95a48",42,1
"4432",0,1,399,1,4,3,"5e95a48",43,1
"4532",1,0,307,1,2,3,"5e95a48",44,1
"4632",1,0,331,1,2,3,"5e95a48",45,1
"4732",0,1,256,1,6,3,"5e95a48",46,1
"4832",1,1,288,1,1,3,"5e95a48",47,1
"4932",0,1,283,4,1,3,"5e95a48",48,1
"5032",0,1,240,3,1,3,"5e95a48",49,1
"5143",1,1,296,6,6,3,"5e95a48",50,1
"5234",0,1,429,1,5,3,"5e95a48",51,1
"5332",1,1,220,2,2,3,"5e95a48",52,1
"5432",1,1,378,3,3,3,"5e95a48",53,1
"5532",1,1,422,4,4,3,"5e95a48",54,1
"5632",1,1,409,5,5,3,"5e95a48",55,1
"5732",1,1,519,2,2,3,"5e95a48",56,1
"5832",0,1,322,4,1,3,"5e95a48",57,1
"5932",0,1,390,1,3,3,"5e95a48",58,1
"6032",1,1,283,4,4,3,"5e95a48",59,1
"6143",1,1,294,3,3,3,"5e95a48",60,1
"6234",1,1,452,5,5,3,"5e95a48",61,1
"6332",0,1,515,6,1,3,"5e95a48",62,1
"6432",1,1,387,6,6,3,"5e95a48",63,1
"6532",1,1,592,1,1,3,"5e95a48",64,1
"6632",0,1,382,2,1,3,"5e95a48",65,1
"6732",0,1,479,5,1,3,"5e95a48",66,1
"6832",0,1,381,1,6,3,"5e95a48",67,1
"6932",1,1,511,6,6,3,"5e95a48",68,1
"7032",0,0,269,4,4,3,"5e95a48",69,1
"7136",1,1,243,1,1,3,"5e95a48",70,1
"7234",0,1,415,1,5,3,"5e95a48",71,1
"7332",0,1,306,1,3,3,"5e95a48",72,1
"7432",1,1,360,5,5,3,"5e95a48",73,1
"7532",1,1,330,2,2,3,"5e95a48",74,1
"7632",0,1,367,4,1,3,"5e95a48",75,1
"7732",1,0,379,2,1,3,"5e95a48",76,1
"7832",1,1,471,3,3,3,"5e95a48",77,1
"2144",0,1,359,4,1,2,"12344b0",1,1
"3144",0,0,630,3,3,2,"12344b0",2,1
"4144",1,0,332,1,6,2,"12344b0",3,1
"5144",0,0,484,1,1,2,"12344b0",4,1
"6144",1,1,471,2,2,2,"12344b0",5,1
"7108",0,0,364,4,4,2,"12344b0",6,1
"833",0,1,305,2,1,2,"12344b0",7,1
"933",0,1,318,3,1,2,"12344b0",8,1
"1033",0,1,779,5,1,2,"12344b0",9,1
"1133",1,1,361,5,5,2,"12344b0",10,1
"1233",1,1,322,6,6,2,"12344b0",11,1
"1333",0,0,312,5,5,2,"12344b0",12,1
"1433",1,0,275,1,5,2,"12344b0",13,1
"1533",0,0,394,2,2,2,"12344b0",14,1
"1633",1,0,447,4,1,2,"12344b0",15,1
"1733",1,1,144,6,6,2,"12344b0",16,1
"1833",1,1,407,4,4,2,"12344b0",17,1
"1933",0,1,443,6,1,2,"12344b0",18,1
"2033",1,0,884,1,3,2,"12344b0",19,1
"2145",1,1,746,1,1,2,"12344b0",20,1
"2235",0,0,593,3,3,2,"12344b0",21,1
"2333",1,0,1391,1,2,2,"12344b0",22,1
"2433",0,0,977,6,6,2,"12344b0",23,1
"2533",1,0,387,1,2,2,"12344b0",24,1
"2633",0,0,318,1,1,2,"12344b0",25,1
"2733",1,0,1040,1,5,2,"12344b0",26,1
"2833",1,1,241,5,5,2,"12344b0",27,1
"2933",0,1,1208,6,1,2,"12344b0",28,1
"3033",0,0,358,2,2,2,"12344b0",29,1
"3145",1,0,467,1,4,2,"12344b0",30,1
"3235",0,0,543,3,3,2,"12344b0",31,1
"3333",1,1,229,4,4,2,"12344b0",32,1
"3433",1,0,892,1,3,2,"12344b0",33,1
"3533",1,1,273,3,3,2,"12344b0",34,1
"3633",0,1,301,4,1,2,"12344b0",35,1
"3733",0,1,306,5,1,2,"12344b0",36,1
"3833",1,1,261,5,5,2,"12344b0",37,1
"3933",1,1,302,1,1,2,"12344b0",38,1
"4033",1,0,389,1,2,2,"12344b0",39,1
"4145",1,1,414,2,2,2,"12344b0",40,1
"4235",0,1,619,3,1,2,"12344b0",41,1
"4333",1,1,647,4,4,2,"12344b0",42,1
"4433",0,1,339,6,1,2,"12344b0",43,1
"4533",1,1,258,6,6,2,"12344b0",44,1
"4633",1,1,434,6,6,2,"12344b0",45,1
"4733",0,1,367,5,1,2,"12344b0",46,1
"4833",1,1,376,5,5,2,"12344b0",47,1
"4933",0,1,807,1,4,2,"12344b0",48,1
"5033",1,1,307,4,4,2,"12344b0",49,1
"5145",0,1,251,1,2,2,"12344b0",50,1
"5235",0,1,247,6,1,2,"12344b0",51,1
"5333",1,1,169,3,3,2,"12344b0",52,1
"5433",1,1,308,2,2,2,"12344b0",53,1
"5533",0,1,146,1,3,2,"12344b0",54,1
"5633",1,1,226,1,1,2,"12344b0",55,1
"5733",0,1,84,5,1,2,"12344b0",56,1
"5833",0,0,312,1,1,2,"12344b0",57,1
"5933",1,1,165,3,3,2,"12344b0",58,1
"6033",1,1,322,6,6,2,"12344b0",59,1
"6145",1,1,359,4,4,2,"12344b0",60,1
"6235",0,1,359,4,1,2,"12344b0",61,1
"6333",1,1,288,5,5,2,"12344b0",62,1
"6433",1,0,976,2,1,2,"12344b0",63,1
"6533",0,1,271,6,1,2,"12344b0",64,1
"6633",0,1,247,1,3,2,"12344b0",65,1
"6733",1,1,197,2,2,2,"12344b0",66,1
"6833",1,1,277,3,3,2,"12344b0",67,1
"6933",0,1,328,1,4,2,"12344b0",68,1
"7033",0,1,269,1,2,2,"12344b0",69,1
"7137",0,1,231,5,1,2,"12344b0",70,1
"7235",0,0,411,2,2,2,"12344b0",71,1
"7333",1,1,328,1,1,2,"12344b0",72,1
"7433",1,1,346,5,5,2,"12344b0",73,1
"7533",1,1,300,4,4,2,"12344b0",74,1
"7633",0,1,303,3,1,2,"12344b0",75,1
"7733",1,1,187,6,6,2,"12344b0",76,1
"7833",0,1,82,6,1,2,"12344b0",77,1
"2146",0,0,241,1,1,1,"19803b3",1,1
"3146",1,1,327,4,4,1,"19803b3",2,1
"4146",1,1,233,6,6,1,"19803b3",3,1
"5146",1,1,400,2,2,1,"19803b3",4,1
"6146",1,1,272,5,5,1,"19803b3",5,1
"7109",1,0,223,1,6,1,"19803b3",6,1
"834",0,1,216,1,3,1,"19803b3",7,1
"934",1,1,263,3,3,1,"19803b3",8,1
"1034",1,0,275,1,2,1,"19803b3",9,1
"1134",0,1,196,5,1,1,"19803b3",10,1
"1234",1,0,202,4,1,1,"19803b3",11,1
"1334",1,0,238,1,5,1,"19803b3",12,1
"1434",1,1,52,3,3,1,"19803b3",13,1
"1534",0,0,221,4,4,1,"19803b3",14,1
"1634",1,0,298,1,3,1,"19803b3",15,1
"1734",0,1,299,2,1,1,"19803b3",16,1
"1834",0,1,264,1,4,1,"19803b3",17,1
"1934",0,0,259,6,6,1,"19803b3",18,1
"2034",1,0,441,1,6,1,"19803b3",19,1
"2147",1,1,149,1,1,1,"19803b3",20,1
"2236",1,1,252,5,5,1,"19803b3",21,1
"2334",1,1,621,2,2,1,"19803b3",22,1
"2434",1,0,504,1,4,1,"19803b3",23,1
"2534",1,1,273,1,1,1,"19803b3",24,1
"2634",1,0,219,1,3,1,"19803b3",25,1
"2734",0,1,245,1,5,1,"19803b3",26,1
"2834",1,1,247,2,2,1,"19803b3",27,1
"2934",0,1,191,6,1,1,"19803b3",28,1
"3034",1,1,193,4,4,1,"19803b3",29,1
"3147",1,1,200,5,5,1,"19803b3",30,1
"3236",1,1,164,6,6,1,"19803b3",31,1
"3334",1,1,34,3,3,1,"19803b3",32,1
"3434",0,1,207,1,2,1,"19803b3",33,1
"3534",1,1,304,5,5,1,"19803b3",34,1
"3634",0,1,247,1,3,1,"19803b3",35,1
"3734",0,1,135,1,6,1,"19803b3",36,1
"3834",1,1,622,4,4,1,"19803b3",37,1
"3934",0,1,310,1,2,1,"19803b3",38,1
"4034",1,1,75,1,1,1,"19803b3",39,1
"4147",0,1,173,1,4,1,"19803b3",40,1
"4236",1,1,299,3,3,1,"19803b3",41,1
"4334",1,1,357,2,2,1,"19803b3",42,1
"4434",0,1,309,1,5,1,"19803b3",43,1
"4534",1,1,354,6,6,1,"19803b3",44,1
"4634",0,1,307,6,1,1,"19803b3",45,1
"4734",1,0,498,2,1,1,"19803b3",46,1
"4834",1,1,460,1,1,1,"19803b3",47,1
"4934",1,1,522,4,4,1,"19803b3",48,1
"5034",0,1,779,1,3,1,"19803b3",49,1
"5147",1,1,318,3,3,1,"19803b3",50,1
"5236",1,1,372,2,2,1,"19803b3",51,1
"5334",0,1,261,1,5,1,"19803b3",52,1
"5434",0,1,441,4,1,1,"19803b3",53,1
"5534",1,1,552,5,5,1,"19803b3",54,1
"5634",1,1,269,6,6,1,"19803b3",55,1
"5734",0,1,239,3,1,1,"19803b3",56,1
"5834",1,1,260,6,6,1,"19803b3",57,1
"5934",1,1,195,5,5,1,"19803b3",58,1
"6034",0,1,1282,4,1,1,"19803b3",59,1
"6147",1,1,320,4,4,1,"19803b3",60,1
"6236",0,1,353,5,1,1,"19803b3",61,1
"6334",0,1,374,1,2,1,"19803b3",62,1
"6434",1,1,314,2,2,1,"19803b3",63,1
"6534",1,1,139,3,3,1,"19803b3",64,1
"6634",0,1,828,1,6,1,"19803b3",65,1
"6734",1,1,324,1,1,1,"19803b3",66,1
"6834",1,1,282,2,2,1,"19803b3",67,1
"6934",1,1,36,5,5,1,"19803b3",68,1
"7034",1,1,338,4,4,1,"19803b3",69,1
"7138",0,1,457,4,1,1,"19803b3",70,1
"7236",0,1,257,1,5,1,"19803b3",71,1
"7334",1,1,262,1,1,1,"19803b3",72,1
"7434",1,1,711,3,3,1,"19803b3",73,1
"7534",0,1,55,2,1,1,"19803b3",74,1
"7634",0,1,291,1,3,1,"19803b3",75,1
"7734",1,1,321,6,6,1,"19803b3",76,1
"7834",0,1,257,6,1,1,"19803b3",77,1
"2148",1,1,522,1,1,1,"1791002",1,1
"3148",1,0,420,1,2,1,"1791002",2,1
"4148",1,1,406,4,4,1,"1791002",3,1
"5148",1,0,283,3,1,1,"1791002",4,1
"6148",1,1,337,3,3,1,"1791002",5,1
"7139",0,1,381,1,6,1,"1791002",6,1
"835",0,1,509,5,1,1,"1791002",7,1
"935",1,1,375,6,6,1,"1791002",8,1
"1035",1,1,284,2,2,1,"1791002",9,1
"1135",1,1,353,5,5,1,"1791002",10,1
"1235",0,1,364,4,1,1,"1791002",11,1
"1335",1,1,398,2,2,1,"1791002",12,1
"1435",1,0,342,1,2,1,"1791002",13,1
"1535",1,1,434,1,1,1,"1791002",14,1
"1635",0,1,279,4,1,1,"1791002",15,1
"1735",1,1,343,5,5,1,"1791002",16,1
"1835",0,1,368,1,3,1,"1791002",17,1
"1935",1,1,329,6,6,1,"1791002",18,1
"2035",1,1,578,4,4,1,"1791002",19,1
"2149",1,1,426,3,3,1,"1791002",20,1
"2237",0,1,431,6,1,1,"1791002",21,1
"2335",0,1,327,5,1,1,"1791002",22,1
"2435",1,1,312,5,5,1,"1791002",23,1
"2535",1,0,339,2,1,1,"1791002",24,1
"2635",0,1,465,1,4,1,"1791002",25,1
"2735",0,1,455,1,3,1,"1791002",26,1
"2835",0,0,263,1,1,1,"1791002",27,1
"2935",0,1,324,6,1,1,"1791002",28,1
"3035",1,1,303,4,4,1,"1791002",29,1
"3149",1,1,291,2,2,1,"1791002",30,1
"3237",1,1,512,3,3,1,"1791002",31,1
"3335",1,1,344,6,6,1,"1791002",32,1
"3435",0,1,297,5,1,1,"1791002",33,1
"3535",1,1,473,6,6,1,"1791002",34,1
"3635",1,1,441,3,3,1,"1791002",35,1
"3735",0,1,388,1,2,1,"1791002",36,1
"3835",0,1,337,5,1,1,"1791002",37,1
"3935",0,1,375,1,6,1,"1791002",38,1
"4035",1,1,320,5,5,1,"1791002",39,1
"4149",1,1,317,1,1,1,"1791002",40,1
"4237",1,1,362,4,4,1,"1791002",41,1
"4335",1,1,390,2,2,1,"1791002",42,1
"4435",0,1,337,3,1,1,"1791002",43,1
"4535",0,1,576,1,4,1,"1791002",44,1
"4635",1,1,396,4,4,1,"1791002",45,1
"4735",0,1,426,3,1,1,"1791002",46,1
"4835",1,1,372,2,2,1,"1791002",47,1
"4935",1,1,405,6,6,1,"1791002",48,1
"5035",1,1,400,3,3,1,"1791002",49,1
"5149",1,1,348,5,5,1,"1791002",50,1
"5237",1,1,325,1,1,1,"1791002",51,1
"5335",0,1,335,2,1,1,"1791002",52,1
"5435",0,1,289,1,6,1,"1791002",53,1
"5535",0,1,666,1,4,1,"1791002",54,1
"5635",0,1,330,1,5,1,"1791002",55,1
"5735",0,0,1163,4,4,1,"1791002",56,1
"5835",0,1,340,3,1,1,"1791002",57,1
"5935",0,1,232,6,1,1,"1791002",58,1
"6035",0,1,1021,5,1,1,"1791002",59,1
"6149",1,1,282,2,2,1,"1791002",60,1
"6237",1,1,416,6,6,1,"1791002",61,1
"6335",0,1,351,2,1,1,"1791002",62,1
"6435",0,1,318,1,4,1,"1791002",63,1
"6535",1,1,293,5,5,1,"1791002",64,1
"6635",1,1,307,1,1,1,"1791002",65,1
"6735",1,1,377,3,3,1,"1791002",66,1
"6835",1,1,276,2,2,1,"1791002",67,1
"6935",0,1,371,1,2,1,"1791002",68,1
"7035",0,1,383,1,6,1,"1791002",69,1
"7140",0,1,410,1,4,1,"1791002",70,1
"7237",1,1,394,4,4,1,"1791002",71,1
"7335",1,1,321,1,1,1,"1791002",72,1
"7435",0,1,319,1,3,1,"1791002",73,1
"7535",0,1,315,5,1,1,"1791002",74,1
"7635",1,1,591,5,5,1,"1791002",75,1
"7735",1,1,595,3,3,1,"1791002",76,1
"7835",1,1,406,6,6,1,"1791002",77,1
"2150",1,0,511,3,1,3,"1ad91bb",1,1
"3150",0,1,473,1,2,3,"1ad91bb",2,1
"4150",1,0,339,1,6,3,"1ad91bb",3,1
"5150",0,1,370,1,4,3,"1ad91bb",4,1
"6150",1,1,359,6,6,3,"1ad91bb",5,1
"7141",0,0,554,1,1,3,"1ad91bb",6,1
"836",1,1,536,3,3,3,"1ad91bb",7,1
"936",1,0,786,1,5,3,"1ad91bb",8,1
"1036",1,1,905,2,2,3,"1ad91bb",9,1
"1136",1,1,377,4,4,3,"1ad91bb",10,1
"1236",0,0,365,5,5,3,"1ad91bb",11,1
"1336",1,1,745,3,3,3,"1ad91bb",12,1
"1436",0,1,369,5,1,3,"1ad91bb",13,1
"1536",0,0,851,2,2,3,"1ad91bb",14,1
"1636",1,0,304,3,1,3,"1ad91bb",15,1
"1736",1,1,306,1,1,3,"1ad91bb",16,1
"1836",0,1,372,2,1,3,"1ad91bb",17,1
"1936",0,1,543,1,4,3,"1ad91bb",18,1
"2036",1,1,276,6,6,3,"1ad91bb",19,1
"2151",0,1,393,6,1,3,"1ad91bb",20,1
"2238",1,1,411,4,4,3,"1ad91bb",21,1
"2336",1,1,333,5,5,3,"1ad91bb",22,1
"2436",1,1,386,3,3,3,"1ad91bb",23,1
"2536",1,1,613,5,5,3,"1ad91bb",24,1
"2636",1,1,590,2,2,3,"1ad91bb",25,1
"2736",1,1,714,1,1,3,"1ad91bb",26,1
"2836",0,1,341,3,1,3,"1ad91bb",27,1
"2936",0,1,307,1,6,3,"1ad91bb",28,1
"3036",1,1,519,4,4,3,"1ad91bb",29,1
"3151",0,1,338,5,1,3,"1ad91bb",30,1
"3238",1,1,416,6,6,3,"1ad91bb",31,1
"3336",1,0,497,1,2,3,"1ad91bb",32,1
"3436",0,1,320,1,4,3,"1ad91bb",33,1
"3536",0,1,602,4,1,3,"1ad91bb",34,1
"3636",0,1,663,5,1,3,"1ad91bb",35,1
